onset	duration	sample	trial_type	response_time	stim_file	value	correct
14.5110000000	n/a	14511	ignore	3098	n/a	n/a	0
18.6770000000	n/a	18677	ignore	1000	n/a	n/a	1
20.6780000000	n/a	20678	ignore	1700	n/a	n/a	1
22.3770000000	n/a	22377	ignore	1253	n/a	n/a	1
24.6940000000	n/a	24694	ignore	1000	n/a	n/a	1
26.6940000000	n/a	26694	ignore	1700	n/a	n/a	1
28.3940000000	n/a	28394	ignore	476	n/a	n/a	1
29.9440000000	n/a	29944	ignore	1000	n/a	n/a	1
31.9440000000	n/a	31944	ignore	1700	n/a	n/a	1
33.6440000000	n/a	33644	ignore	327	n/a	n/a	0
35.0440000000	n/a	35044	ignore	1000	n/a	n/a	1
37.0440000000	n/a	37044	ignore	1700	n/a	n/a	1
38.7440000000	n/a	38744	ignore	256	n/a	n/a	1
40.0770000000	n/a	40077	ignore	1000	n/a	n/a	1
42.0780000000	n/a	42078	ignore	1700	n/a	n/a	1
43.7770000000	n/a	43777	ignore	278	n/a	n/a	0
45.1270000000	n/a	45127	ignore	1000	n/a	n/a	1
47.1280000000	n/a	47128	ignore	1700	n/a	n/a	1
48.8270000000	n/a	48827	ignore	336	n/a	n/a	1
50.2270000000	n/a	50227	ignore	1000	n/a	n/a	1
52.2270000000	n/a	52227	ignore	1700	n/a	n/a	1
53.9270000000	n/a	53927	ignore	651	n/a	n/a	0
55.6440000000	n/a	55644	ignore	1000	n/a	n/a	1
57.6440000000	n/a	57644	ignore	1700	n/a	n/a	1
59.3440000000	n/a	59344	ignore	2676	n/a	n/a	0
62.0940000000	n/a	62094	STATUS	2000	n/a	n/a	1
68.3440000000	n/a	68344	ignore	1000	n/a	n/a	1
70.3440000000	n/a	70344	ignore	1700	n/a	n/a	1
72.0440000000	n/a	72044	ignore	1055	n/a	n/a	1
74.1770000000	n/a	74177	ignore	1000	n/a	n/a	1
76.1770000000	n/a	76177	ignore	1700	n/a	n/a	1
77.8770000000	n/a	77877	ignore	642	n/a	n/a	1
79.5940000000	n/a	79594	ignore	1000	n/a	n/a	1
81.5940000000	n/a	81594	ignore	1700	n/a	n/a	1
83.2940000000	n/a	83294	ignore	836	n/a	n/a	1
85.1940000000	n/a	85194	ignore	1000	n/a	n/a	1
87.1940000000	n/a	87194	ignore	1700	n/a	n/a	1
88.8940000000	n/a	88894	ignore	886	n/a	n/a	1
90.8440000000	n/a	90844	ignore	1000	n/a	n/a	1
92.8440000000	n/a	92844	ignore	1700	n/a	n/a	1
94.5440000000	n/a	94544	ignore	207	n/a	n/a	0
95.8270000000	n/a	95827	ignore	1000	n/a	n/a	1
97.8270000000	n/a	97827	ignore	1700	n/a	n/a	1
99.5270000000	n/a	99527	ignore	264	n/a	n/a	1
100.8610000000	n/a	100861	ignore	1000	n/a	n/a	1
102.8610000000	n/a	102861	ignore	1700	n/a	n/a	1
104.5610000000	n/a	104561	ignore	281	n/a	n/a	1
105.9110000000	n/a	105911	ignore	1000	n/a	n/a	1
107.9110000000	n/a	107911	ignore	1700	n/a	n/a	1
109.6110000000	n/a	109611	ignore	2290	n/a	n/a	1
111.9770000000	n/a	111977	ignore 	2000	n/a	n/a	1
123.5270000000	n/a	123527	PenaltyB1	2390	n/a	n/a	1
126.9940000000	n/a	126994	NeuCorrB1	1000	n/a	n/a	1
128.9940000000	n/a	128994	ignore	1700	n/a	n/a	1
130.6940000000	n/a	130694	PenaltyB1	1010	n/a	n/a	0
132.7770000000	n/a	132777	PunIncorrB1	1000	n/a	n/a	1
134.7770000000	n/a	134777	ignore	1700	n/a	n/a	1
136.4770000000	n/a	136477	PenaltyB1	417	n/a	n/a	0
137.9610000000	n/a	137961	PunIncorrB1	1000	n/a	n/a	1
139.9610000000	n/a	139961	STATUS	1700	n/a	n/a	1
141.6610000000	n/a	141661	RewardB1	1268	n/a	n/a	0
143.9940000000	n/a	143994	NeuIncorrB1	1000	n/a	n/a	1
145.9940000000	n/a	145994	STATUS	1700	n/a	n/a	1
147.6940000000	n/a	147694	RewardB1	753	n/a	n/a	0
149.5110000000	n/a	149511	NeuIncorrB1	1000	n/a	n/a	1
151.5110000000	n/a	151511	STATUS	1700	n/a	n/a	1
153.2110000000	n/a	153211	PenaltyB1	1134	n/a	n/a	1
155.4110000000	n/a	155411	NeuCorrB1	1000	n/a	n/a	1
157.4110000000	n/a	157411	STATUS	1700	n/a	n/a	1
159.1110000000	n/a	159111	PenaltyB1	1113	n/a	n/a	1
161.2940000000	n/a	161294	NeuCorrB1	1000	n/a	n/a	1
163.2940000000	n/a	163294	STATUS	1700	n/a	n/a	1
164.9940000000	n/a	164994	PenaltyB1	1303	n/a	n/a	1
167.3610000000	n/a	167361	NeuCorrB1	1000	n/a	n/a	1
169.3610000000	n/a	169361	STATUS	1700	n/a	n/a	1
171.0610000000	n/a	171061	PenaltyB1	851	n/a	n/a	0
172.9770000000	n/a	172977	NeuIncorrB1	1000	n/a	n/a	1
174.9770000000	n/a	174977	STATUS	1700	n/a	n/a	1
176.6770000000	n/a	176677	RewardB1	547	n/a	n/a	1
178.2940000000	n/a	178294	RewardCorrB1	1000	n/a	n/a	1
180.2940000000	n/a	180294	ignore	1700	n/a	n/a	1
181.9940000000	n/a	181994	PenaltyB1	907	n/a	n/a	1
183.9770000000	n/a	183977	NeuCorrB1	1000	n/a	n/a	1
185.9770000000	n/a	185977	ignore	1700	n/a	n/a	1
187.6770000000	n/a	187677	RewardB1	630	n/a	n/a	0
189.3770000000	n/a	189377	RewIncorrB1	1000	n/a	n/a	1
191.3770000000	n/a	191377	ignore	1700	n/a	n/a	1
193.0770000000	n/a	193077	PenaltyB1	1048	n/a	n/a	0
195.1940000000	n/a	195194	PunIncorrB1	1000	n/a	n/a	1
197.1940000000	n/a	197194	ignore	1700	n/a	n/a	1
198.8940000000	n/a	198894	RewardB1	621	n/a	n/a	0
200.5770000000	n/a	200577	NeuIncorrB1	1000	n/a	n/a	1
202.5770000000	n/a	202577	ignore	1700	n/a	n/a	1
204.2770000000	n/a	204277	PenaltyB1	1086	n/a	n/a	1
206.4270000000	n/a	206427	NeuCorrB1	1000	n/a	n/a	1
208.4270000000	n/a	208427	ignore	1700	n/a	n/a	1
210.1270000000	n/a	210127	PenaltyB1	808	n/a	n/a	1
212.0110000000	n/a	212011	NeuCorrB1	1000	n/a	n/a	1
214.0110000000	n/a	214011	ignore	1700	n/a	n/a	1
215.7110000000	n/a	215711	RewardB1	835	n/a	n/a	0
217.6110000000	n/a	217611	RewIncorrB1	1000	n/a	n/a	1
219.6110000000	n/a	219611	ignore	1700	n/a	n/a	1
221.3100000000	n/a	221310	PenaltyB1	1386	n/a	n/a	1
223.7600000000	n/a	223760	NeuCorrB1	1000	n/a	n/a	1
225.7610000000	n/a	225761	ignore	1700	n/a	n/a	1
227.4600000000	n/a	227460	RewardB1	519	n/a	n/a	0
229.0440000000	n/a	229044	NeuIncorrB1	1000	n/a	n/a	1
231.0440000000	n/a	231044	ignore	1700	n/a	n/a	1
232.7440000000	n/a	232744	RewardB1	1019	n/a	n/a	1
234.8270000000	n/a	234827	RewardCorrB1	1000	n/a	n/a	1
236.8270000000	n/a	236827	ignore	1700	n/a	n/a	1
238.5270000000	n/a	238527	RewardB1	811	n/a	n/a	1
240.4100000000	n/a	240410	NeuCorrB1	1000	n/a	n/a	1
242.4110000000	n/a	242411	ignore	1700	n/a	n/a	1
244.1100000000	n/a	244110	RewardB1	859	n/a	n/a	1
246.0440000000	n/a	246044	RewardCorrB1	1000	n/a	n/a	1
248.0440000000	n/a	248044	ignore	1700	n/a	n/a	1
249.7440000000	n/a	249744	RewardB1	884	n/a	n/a	0
251.6940000000	n/a	251694	NeuIncorrB1	1000	n/a	n/a	1
253.6940000000	n/a	253694	ignore	1700	n/a	n/a	1
255.3940000000	n/a	255394	PenaltyB1	2252	n/a	n/a	0
258.7100000000	n/a	258710	PunIncorrB1	1000	n/a	n/a	1
260.7110000000	n/a	260711	ignore	1700	n/a	n/a	1
262.4100000000	n/a	262410	RewardB1	460	n/a	n/a	1
263.9440000000	n/a	263944	RewardCorrB1	1000	n/a	n/a	1
265.9440000000	n/a	265944	ignore	1700	n/a	n/a	1
267.6440000000	n/a	267644	PenaltyB1	626	n/a	n/a	1
269.3440000000	n/a	269344	PunCorrB1	1000	n/a	n/a	1
271.3440000000	n/a	271344	ignore	1700	n/a	n/a	1
273.0440000000	n/a	273044	RewardB1	516	n/a	n/a	1
274.6270000000	n/a	274627	RewardCorrB1	1000	n/a	n/a	1
276.6270000000	n/a	276627	ignore	1700	n/a	n/a	1
278.3270000000	n/a	278327	RewardB1	561	n/a	n/a	0
279.9600000000	n/a	279960	NeuIncorrB1	1000	n/a	n/a	1
281.9600000000	n/a	281960	ignore	1700	n/a	n/a	1
283.6600000000	n/a	283660	RewardB1	797	n/a	n/a	1
285.5270000000	n/a	285527	RewardCorrB1	1000	n/a	n/a	1
287.5270000000	n/a	287527	ignore	1700	n/a	n/a	1
289.2270000000	n/a	289227	PenaltyB1	1080	n/a	n/a	0
291.3770000000	n/a	291377	PunIncorrB1	1000	n/a	n/a	1
293.3770000000	n/a	293377	ignore	1700	n/a	n/a	1
295.0770000000	n/a	295077	RewardB1	637	n/a	n/a	1
296.7770000000	n/a	296777	NeuCorrB1	1000	n/a	n/a	1
298.7770000000	n/a	298777	ignore	1700	n/a	n/a	1
300.4770000000	n/a	300477	PenaltyB1	442	n/a	n/a	0
301.9940000000	n/a	301994	PunIncorrB1	1000	n/a	n/a	1
303.9940000000	n/a	303994	ignore	1700	n/a	n/a	1
305.6940000000	n/a	305694	RewardB1	444	n/a	n/a	0
307.2100000000	n/a	307210	NeuIncorrB1	1000	n/a	n/a	1
309.2100000000	n/a	309210	ignore	1700	n/a	n/a	1
310.9100000000	n/a	310910	PenaltyB1	1151	n/a	n/a	0
313.1270000000	n/a	313127	NeuIncorrB1	1000	n/a	n/a	1
315.1270000000	n/a	315127	ignore	1700	n/a	n/a	1
316.8270000000	n/a	316827	RewardB1	1093	n/a	n/a	1
318.9940000000	n/a	318994	RewardCorrB1	1000	n/a	n/a	1
320.9940000000	n/a	320994	ignore	1700	n/a	n/a	1
322.6940000000	n/a	322694	PenaltyB1	942	n/a	n/a	1
324.7100000000	n/a	324710	NeuCorrB1	1000	n/a	n/a	1
326.7100000000	n/a	326710	ignore	1700	n/a	n/a	1
328.4100000000	n/a	328410	PenaltyB1	1350	n/a	n/a	0
330.8270000000	n/a	330827	PunIncorrB1	1000	n/a	n/a	1
332.8270000000	n/a	332827	ignore	1700	n/a	n/a	1
334.5270000000	n/a	334527	RewardB1	1275	n/a	n/a	1
336.8770000000	n/a	336877	RewardCorrB1	1000	n/a	n/a	1
338.8770000000	n/a	338877	ignore	1700	n/a	n/a	1
340.5770000000	n/a	340577	PenaltyB1	672	n/a	n/a	1
342.3270000000	n/a	342327	PunCorrB1	1000	n/a	n/a	1
344.3270000000	n/a	344327	ignore	1700	n/a	n/a	1
346.0270000000	n/a	346027	RewardB1	1413	n/a	n/a	0
348.5100000000	n/a	348510	NeuIncorrB1	1000	n/a	n/a	1
350.5100000000	n/a	350510	ignore	1700	n/a	n/a	1
359.5770000000	n/a	359577	RewardB2	700	n/a	n/a	0
361.3440000000	n/a	361344	NeuIncorrB2	1000	n/a	n/a	1
363.3440000000	n/a	363344	ignore	1700	n/a	n/a	1
365.0440000000	n/a	365044	PenaltyB2	1421	n/a	n/a	0
367.5270000000	n/a	367527	PunIncorrB2	1000	n/a	n/a	1
369.5270000000	n/a	369527	ignore	1700	n/a	n/a	1
371.2270000000	n/a	371227	RewardB2	594	n/a	n/a	0
372.8940000000	n/a	372894	NeuIncorrB2	1000	n/a	n/a	1
374.8940000000	n/a	374894	ignore	1700	n/a	n/a	1
376.5940000000	n/a	376594	RewardB2	722	n/a	n/a	1
378.3940000000	n/a	378394	NeuCorrB2	1000	n/a	n/a	1
380.3940000000	n/a	380394	ignore	1700	n/a	n/a	1
382.0940000000	n/a	382094	PenaltyB2	592	n/a	n/a	1
383.7600000000	n/a	383760	NeuCorrB2	1000	n/a	n/a	1
385.7600000000	n/a	385760	ignore	1700	n/a	n/a	1
387.4600000000	n/a	387460	RewardB2	359	n/a	n/a	1
388.8940000000	n/a	388894	RewardCorrB2	1000	n/a	n/a	1
390.8940000000	n/a	390894	ignore	1700	n/a	n/a	1
392.5940000000	n/a	392594	PenaltyB2	519	n/a	n/a	1
394.1770000000	n/a	394177	NeuCorrB2	1000	n/a	n/a	1
396.1770000000	n/a	396177	ignore	1700	n/a	n/a	1
397.8770000000	n/a	397877	RewardB2	604	n/a	n/a	1
399.5440000000	n/a	399544	RewardCorrB2	1000	n/a	n/a	1
401.5440000000	n/a	401544	ignore	1700	n/a	n/a	1
403.2440000000	n/a	403244	PenaltyB2	598	n/a	n/a	0
404.9100000000	n/a	404910	PunIncorrB2	1000	n/a	n/a	1
406.9100000000	n/a	406910	ignore	1700	n/a	n/a	1
408.6100000000	n/a	408610	RewardB2	426	n/a	n/a	0
410.1100000000	n/a	410110	NeuIncorrB2	1000	n/a	n/a	1
412.1100000000	n/a	412110	ignore	1700	n/a	n/a	1
413.8100000000	n/a	413810	PenaltyB2	769	n/a	n/a	1
415.6440000000	n/a	415644	PunCorrB2	1000	n/a	n/a	1
417.6440000000	n/a	417644	ignore	1700	n/a	n/a	1
419.3440000000	n/a	419344	RewardB2	682	n/a	n/a	0
421.0940000000	n/a	421094	NeuIncorrB2	1000	n/a	n/a	1
423.0940000000	n/a	423094	ignore	1700	n/a	n/a	1
424.7940000000	n/a	424794	PenaltyB2	682	n/a	n/a	0
426.5440000000	n/a	426544	PunIncorrB2	1000	n/a	n/a	1
428.5440000000	n/a	428544	ignore	1700	n/a	n/a	1
430.2440000000	n/a	430244	RewardB2	516	n/a	n/a	1
431.8270000000	n/a	431827	RewardCorrB2	1000	n/a	n/a	1
433.8270000000	n/a	433827	ignore	1700	n/a	n/a	1
435.5270000000	n/a	435527	PenaltyB2	842	n/a	n/a	0
437.4440000000	n/a	437444	PunIncorrB2	1000	n/a	n/a	1
439.4440000000	n/a	439444	ignore	1700	n/a	n/a	1
441.1430000000	n/a	441143	RewardB2	595	n/a	n/a	1
442.8100000000	n/a	442810	NeuCorrB2	1000	n/a	n/a	1
444.8100000000	n/a	444810	ignore	1700	n/a	n/a	1
446.5100000000	n/a	446510	PenaltyB2	677	n/a	n/a	0
448.2600000000	n/a	448260	PunIncorrB2	1000	n/a	n/a	1
450.2600000000	n/a	450260	STATUS	1700	n/a	n/a	1
451.9600000000	n/a	451960	RewardB2	506	n/a	n/a	1
453.5430000000	n/a	453543	RewardCorrB2	1000	n/a	n/a	1
455.5440000000	n/a	455544	ignore	1700	n/a	n/a	1
457.2430000000	n/a	457243	PenaltyB2	296	n/a	n/a	1
458.6100000000	n/a	458610	NeuCorrB2	1000	n/a	n/a	1
460.6100000000	n/a	460610	ignore	1700	n/a	n/a	1
462.3100000000	n/a	462310	RewardB2	400	n/a	n/a	0
463.7770000000	n/a	463777	NeuIncorrB2	1000	n/a	n/a	1
465.7770000000	n/a	465777	ignore	1700	n/a	n/a	1
467.4770000000	n/a	467477	PenaltyB2	291	n/a	n/a	0
468.8430000000	n/a	468843	NeuIncorrB2	1000	n/a	n/a	1
470.8440000000	n/a	470844	ignore	1700	n/a	n/a	1
472.5430000000	n/a	472543	PenaltyB2	776	n/a	n/a	1
474.3930000000	n/a	474393	NeuCorrB2	1000	n/a	n/a	1
476.3940000000	n/a	476394	ignore	1700	n/a	n/a	1
478.0930000000	n/a	478093	PenaltyB2	718	n/a	n/a	0
479.8770000000	n/a	479877	PunIncorrB2	1000	n/a	n/a	1
481.8770000000	n/a	481877	STATUS	1700	n/a	n/a	1
483.5770000000	n/a	483577	RewardB2	430	n/a	n/a	0
485.0770000000	n/a	485077	NeuIncorrB2	1000	n/a	n/a	1
487.0770000000	n/a	487077	STATUS	1700	n/a	n/a	1
488.7770000000	n/a	488777	RewardB2	412	n/a	n/a	1
490.2600000000	n/a	490260	NeuCorrB2	1000	n/a	n/a	1
492.2600000000	n/a	492260	STATUS	1700	n/a	n/a	1
493.9600000000	n/a	493960	RewardB2	1380	n/a	n/a	1
496.4100000000	n/a	496410	RewardCorrB2	1000	n/a	n/a	1
498.4100000000	n/a	498410	ignore	1700	n/a	n/a	1
500.1100000000	n/a	500110	PenaltyB2	334	n/a	n/a	0
501.5100000000	n/a	501510	PunIncorrB2	1000	n/a	n/a	1
503.5100000000	n/a	503510	STATUS	1700	n/a	n/a	1
505.2100000000	n/a	505210	PenaltyB2	668	n/a	n/a	0
506.9430000000	n/a	506943	PunIncorrB2	1000	n/a	n/a	1
508.9430000000	n/a	508943	STATUS	1700	n/a	n/a	1
510.6430000000	n/a	510643	RewardB2	863	n/a	n/a	0
512.5770000000	n/a	512577	NeuIncorrB2	1000	n/a	n/a	1
514.5770000000	n/a	514577	STATUS	1700	n/a	n/a	1
516.2770000000	n/a	516277	PenaltyB2	447	n/a	n/a	1
517.7930000000	n/a	517793	NeuCorrB2	1000	n/a	n/a	1
519.7930000000	n/a	519793	STATUS	1700	n/a	n/a	1
521.4930000000	n/a	521493	RewardB2	497	n/a	n/a	0
523.0600000000	n/a	523060	RewIncorrB2	1000	n/a	n/a	1
525.0600000000	n/a	525060	STATUS	1700	n/a	n/a	1
526.7600000000	n/a	526760	PenaltyB2	421	n/a	n/a	1
528.2430000000	n/a	528243	NeuCorrB2	1000	n/a	n/a	1
530.2430000000	n/a	530243	STATUS	1700	n/a	n/a	1
531.9430000000	n/a	531943	RewardB2	630	n/a	n/a	1
533.6430000000	n/a	533643	RewardCorrB2	1000	n/a	n/a	1
535.6430000000	n/a	535643	ignore	1700	n/a	n/a	1
537.3430000000	n/a	537343	PenaltyB2	353	n/a	n/a	1
538.7600000000	n/a	538760	NeuCorrB2	1000	n/a	n/a	1
540.7600000000	n/a	540760	ignore	1700	n/a	n/a	1
542.4600000000	n/a	542460	PenaltyB2	1322	n/a	n/a	0
544.8600000000	n/a	544860	NeuIncorrB2	1000	n/a	n/a	1
546.8600000000	n/a	546860	ignore	1700	n/a	n/a	1
548.5600000000	n/a	548560	RewardB2	630	n/a	n/a	0
550.2600000000	n/a	550260	NeuIncorrB2	1000	n/a	n/a	1
552.2600000000	n/a	552260	ignore	1700	n/a	n/a	1
553.9600000000	n/a	553960	PenaltyB2	1718	n/a	n/a	1
556.7430000000	n/a	556743	NeuCorrB2	1000	n/a	n/a	1
558.7430000000	n/a	558743	ignore	1700	n/a	n/a	1
560.4430000000	n/a	560443	RewardB2	574	n/a	n/a	1
562.0930000000	n/a	562093	RewardCorrB2	1000	n/a	n/a	1
564.0930000000	n/a	564093	ignore	1700	n/a	n/a	1
565.7930000000	n/a	565793	PenaltyB2	558	n/a	n/a	1
567.4270000000	n/a	567427	PunCorrB2	1000	n/a	n/a	1
569.4270000000	n/a	569427	ignore	1700	n/a	n/a	1
571.1270000000	n/a	571127	RewardB2	1022	n/a	n/a	0
573.2270000000	n/a	573227	NeuIncorrB2	1000	n/a	n/a	1
575.2270000000	n/a	575227	ignore	1700	n/a	n/a	1
579.8600000000	n/a	579860	RewardB3	782	n/a	n/a	0
581.7100000000	n/a	581710	NeuIncorrB3	1000	n/a	n/a	1
583.7100000000	n/a	583710	ignore	1700	n/a	n/a	1
585.4100000000	n/a	585410	PenaltyB3	1690	n/a	n/a	0
588.1770000000	n/a	588177	NeuIncorrB3	1000	n/a	n/a	1
590.1770000000	n/a	590177	ignore	1700	n/a	n/a	1
591.8770000000	n/a	591877	RewardB3	915	n/a	n/a	1
593.8600000000	n/a	593860	RewardCorrB3	1000	n/a	n/a	1
595.8600000000	n/a	595860	ignore	1700	n/a	n/a	1
597.5600000000	n/a	597560	PenaltyB3	920	n/a	n/a	1
599.5430000000	n/a	599543	NeuCorrB3	1000	n/a	n/a	1
601.5430000000	n/a	601543	ignore	1700	n/a	n/a	1
603.2430000000	n/a	603243	PenaltyB3	584	n/a	n/a	0
604.8930000000	n/a	604893	PunIncorrB3	1000	n/a	n/a	1
606.8930000000	n/a	606893	ignore	1700	n/a	n/a	1
608.5930000000	n/a	608593	RewardB3	639	n/a	n/a	1
610.3100000000	n/a	610310	RewardCorrB3	1000	n/a	n/a	1
612.3100000000	n/a	612310	ignore	1700	n/a	n/a	1
614.0100000000	n/a	614010	PenaltyB3	398	n/a	n/a	1
615.4770000000	n/a	615477	PunCorrB3	1000	n/a	n/a	1
617.4770000000	n/a	617477	ignore	1700	n/a	n/a	1
619.1770000000	n/a	619177	RewardB3	393	n/a	n/a	0
620.6430000000	n/a	620643	NeuIncorrB3	1000	n/a	n/a	1
622.6430000000	n/a	622643	ignore	1700	n/a	n/a	1
624.3430000000	n/a	624343	PenaltyB3	622	n/a	n/a	1
626.0430000000	n/a	626043	NeuCorrB3	1000	n/a	n/a	1
628.0430000000	n/a	628043	ignore	1700	n/a	n/a	1
629.7430000000	n/a	629743	RewardB3	346	n/a	n/a	1
631.1600000000	n/a	631160	NeuCorrB3	1000	n/a	n/a	1
633.1600000000	n/a	633160	ignore	1700	n/a	n/a	1
634.8600000000	n/a	634860	PenaltyB3	396	n/a	n/a	1
636.3270000000	n/a	636327	NeuCorrB3	1000	n/a	n/a	1
638.3270000000	n/a	638327	ignore	1700	n/a	n/a	1
640.0270000000	n/a	640027	RewardB3	869	n/a	n/a	0
641.9600000000	n/a	641960	NeuIncorrB3	1000	n/a	n/a	1
643.9600000000	n/a	643960	ignore	1700	n/a	n/a	1
645.6600000000	n/a	645660	RewardB3	802	n/a	n/a	0
647.5270000000	n/a	647527	NeuIncorrB3	1000	n/a	n/a	1
649.5270000000	n/a	649527	ignore	1700	n/a	n/a	1
651.2270000000	n/a	651227	RewardB3	540	n/a	n/a	1
652.8430000000	n/a	652843	RewardCorrB3	1000	n/a	n/a	1
654.8430000000	n/a	654843	ignore	1700	n/a	n/a	1
656.5430000000	n/a	656543	PenaltyB3	1057	n/a	n/a	0
658.6770000000	n/a	658677	NeuIncorrB3	1000	n/a	n/a	1
660.6770000000	n/a	660677	ignore	1700	n/a	n/a	1
662.3770000000	n/a	662377	RewardB3	1313	n/a	n/a	1
664.7600000000	n/a	664760	RewardCorrB3	1000	n/a	n/a	1
666.7600000000	n/a	666760	ignore	1700	n/a	n/a	1
668.4600000000	n/a	668460	PenaltyB3	1892	n/a	n/a	1
671.4260000000	n/a	671426	NeuCorrB3	1000	n/a	n/a	1
673.4270000000	n/a	673427	ignore	1700	n/a	n/a	1
675.1260000000	n/a	675126	RewardB3	1249	n/a	n/a	1
677.4430000000	n/a	677443	RewardCorrB3	1000	n/a	n/a	1
679.4430000000	n/a	679443	ignore	1700	n/a	n/a	1
681.1430000000	n/a	681143	RewardB3	729	n/a	n/a	0
682.9430000000	n/a	682943	NeuIncorrB3	1000	n/a	n/a	1
684.9430000000	n/a	684943	ignore	1700	n/a	n/a	1
686.6430000000	n/a	686643	RewardB3	827	n/a	n/a	1
688.5430000000	n/a	688543	NeuCorrB3	1000	n/a	n/a	1
690.5430000000	n/a	690543	ignore	1700	n/a	n/a	1
692.2430000000	n/a	692243	RewardB3	1208	n/a	n/a	0
694.5260000000	n/a	694526	NeuIncorrB3	1000	n/a	n/a	1
696.5270000000	n/a	696527	ignore	1700	n/a	n/a	1
698.2260000000	n/a	698226	RewardB3	460	n/a	n/a	1
699.7600000000	n/a	699760	RewardCorrB3	1000	n/a	n/a	1
701.7600000000	n/a	701760	ignore	1700	n/a	n/a	1
703.4600000000	n/a	703460	PenaltyB3	719	n/a	n/a	0
705.2430000000	n/a	705243	PunIncorrB3	1000	n/a	n/a	1
707.2430000000	n/a	707243	ignore	1700	n/a	n/a	1
708.9430000000	n/a	708943	RewardB3	879	n/a	n/a	0
710.8930000000	n/a	710893	RewIncorrB3	1000	n/a	n/a	1
712.8930000000	n/a	712893	ignore	1700	n/a	n/a	1
714.5930000000	n/a	714593	PenaltyB3	1560	n/a	n/a	1
717.2260000000	n/a	717226	NeuCorrB3	1000	n/a	n/a	1
719.2260000000	n/a	719226	ignore	1700	n/a	n/a	1
720.9260000000	n/a	720926	PenaltyB3	912	n/a	n/a	1
722.9100000000	n/a	722910	NeuCorrB3	1000	n/a	n/a	1
724.9100000000	n/a	724910	ignore	1700	n/a	n/a	1
726.6100000000	n/a	726610	RewardB3	1210	n/a	n/a	0
728.8930000000	n/a	728893	NeuIncorrB3	1000	n/a	n/a	1
730.8930000000	n/a	730893	ignore	1700	n/a	n/a	1
732.5930000000	n/a	732593	PenaltyB3	1239	n/a	n/a	0
734.9100000000	n/a	734910	PunIncorrB3	1000	n/a	n/a	1
736.9100000000	n/a	736910	ignore	1700	n/a	n/a	1
738.6100000000	n/a	738610	RewardB3	638	n/a	n/a	0
740.3100000000	n/a	740310	RewIncorrB3	1000	n/a	n/a	1
742.3100000000	n/a	742310	ignore	1700	n/a	n/a	1
744.0100000000	n/a	744010	PenaltyB3	1126	n/a	n/a	0
746.2100000000	n/a	746210	PunIncorrB3	1000	n/a	n/a	1
748.2100000000	n/a	748210	ignore	1700	n/a	n/a	1
749.9100000000	n/a	749910	RewardB3	616	n/a	n/a	1
751.5930000000	n/a	751593	RewardCorrB3	1000	n/a	n/a	1
753.5930000000	n/a	753593	ignore	1700	n/a	n/a	1
755.2930000000	n/a	755293	PenaltyB3	1253	n/a	n/a	0
757.6100000000	n/a	757610	NeuIncorrB3	1000	n/a	n/a	1
759.6100000000	n/a	759610	ignore	1700	n/a	n/a	1
761.3100000000	n/a	761310	PenaltyB3	1368	n/a	n/a	1
763.7430000000	n/a	763743	NeuCorrB3	1000	n/a	n/a	1
765.7430000000	n/a	765743	ignore	1700	n/a	n/a	1
767.4430000000	n/a	767443	PenaltyB3	1745	n/a	n/a	1
770.2600000000	n/a	770260	NeuCorrB3	1000	n/a	n/a	1
772.2600000000	n/a	772260	ignore	1700	n/a	n/a	1
773.9600000000	n/a	773960	PenaltyB3	1997	n/a	n/a	1
777.0260000000	n/a	777026	NeuCorrB3	1000	n/a	n/a	1
779.0260000000	n/a	779026	ignore	1700	n/a	n/a	1
780.7260000000	n/a	780726	RewardB3	671	n/a	n/a	1
782.4600000000	n/a	782460	RewardCorrB3	1000	n/a	n/a	1
784.4600000000	n/a	784460	ignore	1700	n/a	n/a	1
786.1600000000	n/a	786160	RewardB3	664	n/a	n/a	0
787.8930000000	n/a	787893	NeuIncorrB3	1000	n/a	n/a	1
789.8930000000	n/a	789893	ignore	1700	n/a	n/a	1
791.5930000000	n/a	791593	PenaltyB3	1174	n/a	n/a	1
793.8430000000	n/a	793843	NeuCorrB3	1000	n/a	n/a	1
795.8430000000	n/a	795843	ignore	1700	n/a	n/a	1
797.5430000000	n/a	797543	PenaltyB3	762	n/a	n/a	1
799.3760000000	n/a	799376	NeuCorrB3	1000	n/a	n/a	1
801.3760000000	n/a	801376	ignore	1700	n/a	n/a	1
803.0760000000	n/a	803076	PenaltyB3	707	n/a	n/a	0
804.8600000000	n/a	804860	PunIncorrB3	1000	n/a	n/a	1
806.8600000000	n/a	806860	ignore	1700	n/a	n/a	1
811.6100000000	n/a	811610	RewardB4	1194	n/a	n/a	0
813.8760000000	n/a	813876	NeuIncorrB4	1000	n/a	n/a	1
815.8760000000	n/a	815876	ignore	1700	n/a	n/a	1
817.5760000000	n/a	817576	PenaltyB4	1441	n/a	n/a	0
820.0930000000	n/a	820093	NeuIncorrB4	1000	n/a	n/a	1
822.0930000000	n/a	822093	ignore	1700	n/a	n/a	1
823.7930000000	n/a	823793	RewardB4	588	n/a	n/a	1
825.4600000000	n/a	825460	RewardCorrB4	1000	n/a	n/a	1
827.4600000000	n/a	827460	ignore	1700	n/a	n/a	1
829.1600000000	n/a	829160	PenaltyB4	949	n/a	n/a	0
831.1760000000	n/a	831176	PunIncorrB4	1000	n/a	n/a	1
833.1760000000	n/a	833176	ignore	1700	n/a	n/a	1
834.8760000000	n/a	834876	RewardB4	561	n/a	n/a	0
836.5100000000	n/a	836510	NeuIncorrB4	1000	n/a	n/a	1
838.5100000000	n/a	838510	ignore	1700	n/a	n/a	1
840.2100000000	n/a	840210	PenaltyB4	553	n/a	n/a	0
841.8260000000	n/a	841826	NeuIncorrB4	1000	n/a	n/a	1
843.8260000000	n/a	843826	ignore	1700	n/a	n/a	1
845.5260000000	n/a	845526	PenaltyB4	611	n/a	n/a	1
847.2100000000	n/a	847210	NeuCorrB4	1000	n/a	n/a	1
849.2100000000	n/a	849210	ignore	1700	n/a	n/a	1
850.9100000000	n/a	850910	RewardB4	1212	n/a	n/a	1
853.1930000000	n/a	853193	RewardCorrB4	1000	n/a	n/a	1
855.1930000000	n/a	855193	ignore	1700	n/a	n/a	1
856.8930000000	n/a	856893	PenaltyB4	903	n/a	n/a	1
858.8600000000	n/a	858860	NeuCorrB4	1000	n/a	n/a	1
860.8600000000	n/a	860860	ignore	1700	n/a	n/a	1
862.5600000000	n/a	862560	RewardB4	405	n/a	n/a	1
864.0430000000	n/a	864043	NeuCorrB4	1000	n/a	n/a	1
866.0430000000	n/a	866043	ignore	1700	n/a	n/a	1
867.7430000000	n/a	867743	PenaltyB4	370	n/a	n/a	1
869.1760000000	n/a	869176	NeuCorrB4	1000	n/a	n/a	1
871.1760000000	n/a	871176	ignore	1700	n/a	n/a	1
872.8760000000	n/a	872876	RewardB4	246	n/a	n/a	0
874.1930000000	n/a	874193	NeuIncorrB4	1000	n/a	n/a	1
876.1930000000	n/a	876193	ignore	1700	n/a	n/a	1
877.8930000000	n/a	877893	PenaltyB4	772	n/a	n/a	1
879.7430000000	n/a	879743	NeuCorrB4	1000	n/a	n/a	1
881.7430000000	n/a	881743	ignore	1700	n/a	n/a	1
883.4430000000	n/a	883443	PenaltyB4	779	n/a	n/a	0
885.2930000000	n/a	885293	PunIncorrB4	1000	n/a	n/a	1
887.2930000000	n/a	887293	ignore	1700	n/a	n/a	1
888.9930000000	n/a	888993	RewardB4	986	n/a	n/a	1
891.0430000000	n/a	891043	RewardCorrB4	1000	n/a	n/a	1
893.0430000000	n/a	893043	ignore	1700	n/a	n/a	1
894.7430000000	n/a	894743	RewardB4	856	n/a	n/a	0
896.6760000000	n/a	896676	RewIncorrB4	1000	n/a	n/a	1
898.6760000000	n/a	898676	ignore	1700	n/a	n/a	1
900.3760000000	n/a	900376	RewardB4	1263	n/a	n/a	1
902.7090000000	n/a	902709	RewardCorrB4	1000	n/a	n/a	1
904.7100000000	n/a	904710	ignore	1700	n/a	n/a	1
906.4090000000	n/a	906409	PenaltyB4	336	n/a	n/a	1
907.8090000000	n/a	907809	NeuCorrB4	1000	n/a	n/a	1
909.8100000000	n/a	909810	ignore	1700	n/a	n/a	1
911.5090000000	n/a	911509	PenaltyB4	328	n/a	n/a	0
912.9090000000	n/a	912909	PunIncorrB4	1000	n/a	n/a	1
914.9100000000	n/a	914910	ignore	1700	n/a	n/a	1
916.6090000000	n/a	916609	PenaltyB4	1091	n/a	n/a	0
918.7760000000	n/a	918776	NeuIncorrB4	1000	n/a	n/a	1
920.7760000000	n/a	920776	ignore	1700	n/a	n/a	1
922.4760000000	n/a	922476	RewardB4	480	n/a	n/a	1
924.0260000000	n/a	924026	RewardCorrB4	1000	n/a	n/a	1
926.0260000000	n/a	926026	ignore	1700	n/a	n/a	1
927.7260000000	n/a	927726	PenaltyB4	1745	n/a	n/a	0
930.5430000000	n/a	930543	PunIncorrB4	1000	n/a	n/a	1
932.5430000000	n/a	932543	ignore	1700	n/a	n/a	1
934.2430000000	n/a	934243	RewardB4	929	n/a	n/a	1
936.2430000000	n/a	936243	RewardCorrB4	1000	n/a	n/a	1
938.2430000000	n/a	938243	ignore	1700	n/a	n/a	1
939.9430000000	n/a	939943	PenaltyB4	1817	n/a	n/a	0
942.8260000000	n/a	942826	PunIncorrB4	1000	n/a	n/a	1
944.8260000000	n/a	944826	ignore	1700	n/a	n/a	1
946.5260000000	n/a	946526	RewardB4	1388	n/a	n/a	0
948.9930000000	n/a	948993	RewIncorrB4	1000	n/a	n/a	1
950.9930000000	n/a	950993	ignore	1700	n/a	n/a	1
952.6930000000	n/a	952693	PenaltyB4	1448	n/a	n/a	1
955.2090000000	n/a	955209	NeuCorrB4	1000	n/a	n/a	1
957.2090000000	n/a	957209	ignore	1700	n/a	n/a	1
958.9090000000	n/a	958909	RewardB4	738	n/a	n/a	0
960.7090000000	n/a	960709	NeuIncorrB4	1000	n/a	n/a	1
962.7090000000	n/a	962709	ignore	1700	n/a	n/a	1
964.4090000000	n/a	964409	PenaltyB4	9840	n/a	n/a	0
975.3260000000	n/a	975326	PunIncorrB4	1000	n/a	n/a	1
977.3260000000	n/a	977326	ignore	1700	n/a	n/a	1
979.0260000000	n/a	979026	RewardB4	903	n/a	n/a	0
980.9930000000	n/a	980993	NeuIncorrB4	1000	n/a	n/a	1
982.9930000000	n/a	982993	ignore	1700	n/a	n/a	1
984.6930000000	n/a	984693	PenaltyB4	1423	n/a	n/a	0
987.1930000000	n/a	987193	NeuIncorrB4	1000	n/a	n/a	1
989.1930000000	n/a	989193	ignore	1700	n/a	n/a	1
990.8930000000	n/a	990893	RewardB4	2718	n/a	n/a	0
994.6760000000	n/a	994676	NeuIncorrB4	1000	n/a	n/a	1
996.6760000000	n/a	996676	ignore	1700	n/a	n/a	1
998.3760000000	n/a	998376	PenaltyB4	836	n/a	n/a	1
1000.2760000000	n/a	1000276	NeuCorrB4	1000	n/a	n/a	1
1002.2760000000	n/a	1002276	ignore	1700	n/a	n/a	1
1003.9760000000	n/a	1003976	RewardB4	2402	n/a	n/a	1
1007.4430000000	n/a	1007443	RewardCorrB4	1000	n/a	n/a	1
1009.4430000000	n/a	1009443	ignore	1700	n/a	n/a	1
1011.1430000000	n/a	1011143	PenaltyB4	736	n/a	n/a	0
1012.9430000000	n/a	1012943	PunIncorrB4	1000	n/a	n/a	1
1014.9430000000	n/a	1014943	ignore	1700	n/a	n/a	1
1016.6430000000	n/a	1016643	RewardB4	351	n/a	n/a	0
1018.0590000000	n/a	1018059	NeuIncorrB4	1000	n/a	n/a	1
1020.0590000000	n/a	1020059	ignore	1700	n/a	n/a	1
1021.7590000000	n/a	1021759	PenaltyB4	2515	n/a	n/a	1
1025.3430000000	n/a	1025343	NeuCorrB4	1000	n/a	n/a	1
1027.3430000000	n/a	1027343	ignore	1700	n/a	n/a	1
1029.0430000000	n/a	1029043	RewardB4	1263	n/a	n/a	0
1031.3760000000	n/a	1031376	RewIncorrB4	1000	n/a	n/a	1
1033.3760000000	n/a	1033376	ignore	1700	n/a	n/a	1
1035.0760000000	n/a	1035076	RewardB4	977	n/a	n/a	0
1037.1260000000	n/a	1037126	NeuIncorrB4	1000	n/a	n/a	1
1039.1260000000	n/a	1039126	ignore	1700	n/a	n/a	1
1040.8260000000	n/a	1040826	PenaltyB4	610	n/a	n/a	1
1042.5090000000	n/a	1042509	NeuCorrB4	1000	n/a	n/a	1
1044.5090000000	n/a	1044509	ignore	1700	n/a	n/a	1
1046.2090000000	n/a	1046209	RewardB4	818	n/a	n/a	0
1048.0930000000	n/a	1048093	NeuIncorrB4	1000	n/a	n/a	1
1050.0930000000	n/a	1050093	ignore	1700	n/a	n/a	1
1057.3590000000	n/a	1057359	ignore	1700	n/a	n/a	1
