onset	duration	sample	trial_type	response_time	stim_file	value	correct
3.5720000000	n/a	3572	FrequentFixedSOA	1633	n/a	n/a	1
5.2050000000	n/a	5205	FrequentFixedSOA	1633	n/a	n/a	1
6.8380000000	n/a	6838	FrequentFixedSOA	1633	n/a	n/a	1
8.4710000000	n/a	8471	FrequentFixedSOA	1633	n/a	n/a	1
10.1050000000	n/a	10105	FrequentFixedSOA	1633	n/a	n/a	1
11.7380000000	n/a	11738	FrequentFixedSOA	1633	n/a	n/a	1
13.3710000000	n/a	13371	FrequentFixedSOA	1633	n/a	n/a	1
15.0050000000	n/a	15005	FrequentFixedSOA	1633	n/a	n/a	1
16.6380000000	n/a	16638	FrequentFixedSOA	1633	n/a	n/a	1
18.2710000000	n/a	18271	FrequentFixedSOA	1633	n/a	n/a	1
19.9050000000	n/a	19905	NovelFixedSOA	367	n/a	n/a	0
21.5380000000	n/a	21538	FrequentFixedSOA	1633	n/a	n/a	1
23.1710000000	n/a	23171	GoFixedSOA	727	n/a	n/a	1
24.8050000000	n/a	24805	FrequentFixedSOA	1633	n/a	n/a	1
26.4380000000	n/a	26438	FrequentFixedSOA	1633	n/a	n/a	1
28.0710000000	n/a	28071	FrequentFixedSOA	1633	n/a	n/a	1
29.7050000000	n/a	29705	GoFixedSOA	652	n/a	n/a	1
31.3380000000	n/a	31338	FrequentFixedSOA	1633	n/a	n/a	1
32.9710000000	n/a	32971	FrequentFixedSOA	1633	n/a	n/a	1
34.6050000000	n/a	34605	FrequentFixedSOA	1633	n/a	n/a	1
36.2380000000	n/a	36238	NovelFixedSOA	1633	n/a	n/a	1
37.8710000000	n/a	37871	FrequentFixedSOA	1633	n/a	n/a	1
39.5050000000	n/a	39505	FrequentFixedSOA	1633	n/a	n/a	1
41.1380000000	n/a	41138	FrequentFixedSOA	1633	n/a	n/a	1
42.7710000000	n/a	42771	GoFixedSOA	419	n/a	n/a	1
44.4050000000	n/a	44405	FrequentFixedSOA	1633	n/a	n/a	1
46.0380000000	n/a	46038	NovelFixedSOA	1633	n/a	n/a	1
47.6710000000	n/a	47671	FrequentFixedSOA	1633	n/a	n/a	1
49.3050000000	n/a	49305	FrequentFixedSOA	1633	n/a	n/a	1
50.9380000000	n/a	50938	FrequentFixedSOA	1633	n/a	n/a	1
52.5710000000	n/a	52571	GoFixedSOA	346	n/a	n/a	1
54.2050000000	n/a	54205	FrequentFixedSOA	1633	n/a	n/a	1
55.8380000000	n/a	55838	GoFixedSOA	459	n/a	n/a	1
57.4710000000	n/a	57471	FrequentFixedSOA	1633	n/a	n/a	1
59.1050000000	n/a	59105	FrequentFixedSOA	1633	n/a	n/a	1
60.7380000000	n/a	60738	GoFixedSOA	367	n/a	n/a	1
62.3710000000	n/a	62371	FrequentFixedSOA	1633	n/a	n/a	1
64.0050000000	n/a	64005	FrequentFixedSOA	1633	n/a	n/a	1
65.6380000000	n/a	65638	FrequentFixedSOA	1633	n/a	n/a	1
67.2710000000	n/a	67271	FrequentFixedSOA	1633	n/a	n/a	1
68.9050000000	n/a	68905	NovelFixedSOA	1633	n/a	n/a	1
70.5380000000	n/a	70538	FrequentFixedSOA	1633	n/a	n/a	1
72.1710000000	n/a	72171	NovelFixedSOA	1633	n/a	n/a	1
73.8050000000	n/a	73805	FrequentFixedSOA	1633	n/a	n/a	1
75.4380000000	n/a	75438	FrequentFixedSOA	1633	n/a	n/a	1
77.0710000000	n/a	77071	GoFixedSOA	316	n/a	n/a	1
78.7050000000	n/a	78705	FrequentFixedSOA	1633	n/a	n/a	1
80.3380000000	n/a	80338	FrequentFixedSOA	1633	n/a	n/a	1
81.9710000000	n/a	81971	FrequentFixedSOA	1633	n/a	n/a	1
83.6050000000	n/a	83605	FrequentFixedSOA	1633	n/a	n/a	1
85.2380000000	n/a	85238	NovelFixedSOA	1633	n/a	n/a	1
86.8710000000	n/a	86871	FrequentFixedSOA	1633	n/a	n/a	1
88.5050000000	n/a	88505	FrequentFixedSOA	1633	n/a	n/a	1
90.1380000000	n/a	90138	FrequentFixedSOA	1633	n/a	n/a	1
91.7710000000	n/a	91771	FrequentFixedSOA	1633	n/a	n/a	1
93.4050000000	n/a	93405	GoFixedSOA	418	n/a	n/a	1
95.0380000000	n/a	95038	FrequentFixedSOA	1633	n/a	n/a	1
96.6710000000	n/a	96671	FrequentFixedSOA	1633	n/a	n/a	1
98.3050000000	n/a	98305	NovelFixedSOA	1633	n/a	n/a	1
99.9380000000	n/a	99938	FrequentFixedSOA	1633	n/a	n/a	1
101.5710000000	n/a	101571	FrequentFixedSOA	1633	n/a	n/a	1
103.2050000000	n/a	103205	GoFixedSOA	450	n/a	n/a	1
104.8380000000	n/a	104838	FrequentFixedSOA	1633	n/a	n/a	1
106.4710000000	n/a	106471	FrequentFixedSOA	1633	n/a	n/a	1
108.1050000000	n/a	108105	FrequentFixedSOA	1633	n/a	n/a	1
109.7380000000	n/a	109738	FrequentFixedSOA	1633	n/a	n/a	1
111.3710000000	n/a	111371	NovelFixedSOA	1633	n/a	n/a	1
113.0050000000	n/a	113005	FrequentFixedSOA	1633	n/a	n/a	1
114.6380000000	n/a	114638	FrequentFixedSOA	1633	n/a	n/a	1
116.2710000000	n/a	116271	GoFixedSOA	1633	n/a	n/a	0
117.9050000000	n/a	117905	FrequentVariableSOA	1666	n/a	n/a	1
119.5710000000	n/a	119571	FrequentVariableSOA	1633	n/a	n/a	1
121.2050000000	n/a	121205	FrequentVariableSOA	1516	n/a	n/a	1
122.7210000000	n/a	122721	FrequentVariableSOA	1683	n/a	n/a	1
124.4050000000	n/a	124405	FrequentVariableSOA	1566	n/a	n/a	1
125.9710000000	n/a	125971	FrequentVariableSOA	1716	n/a	n/a	1
127.6880000000	n/a	127688	FrequentVariableSOA	1666	n/a	n/a	1
129.3550000000	n/a	129355	FrequentVariableSOA	1683	n/a	n/a	1
131.0380000000	n/a	131038	FrequentVariableSOA	1700	n/a	n/a	1
132.7380000000	n/a	132738	FrequentVariableSOA	1700	n/a	n/a	1
134.4380000000	n/a	134438	NovelVariableSOA	1583	n/a	n/a	1
136.0210000000	n/a	136021	FrequentVariableSOA	1633	n/a	n/a	1
137.6540000000	n/a	137654	GoVariableSOA	466	n/a	n/a	1
139.3210000000	n/a	139321	FrequentVariableSOA	1583	n/a	n/a	1
140.9040000000	n/a	140904	FrequentVariableSOA	1733	n/a	n/a	1
142.6380000000	n/a	142638	FrequentVariableSOA	1600	n/a	n/a	1
144.2380000000	n/a	144238	GoVariableSOA	450	n/a	n/a	1
145.9210000000	n/a	145921	FrequentVariableSOA	1700	n/a	n/a	1
147.6210000000	n/a	147621	FrequentVariableSOA	1566	n/a	n/a	1
149.1880000000	n/a	149188	FrequentVariableSOA	1683	n/a	n/a	1
150.8710000000	n/a	150871	NovelVariableSOA	1616	n/a	n/a	1
152.4880000000	n/a	152488	FrequentVariableSOA	1566	n/a	n/a	1
154.0540000000	n/a	154054	FrequentVariableSOA	1700	n/a	n/a	1
155.7540000000	n/a	155754	FrequentVariableSOA	1700	n/a	n/a	1
157.4540000000	n/a	157454	GoVariableSOA	459	n/a	n/a	1
159.0540000000	n/a	159054	FrequentVariableSOA	1616	n/a	n/a	1
160.6710000000	n/a	160671	NovelVariableSOA	1516	n/a	n/a	1
162.1880000000	n/a	162188	FrequentVariableSOA	1583	n/a	n/a	1
163.7710000000	n/a	163771	FrequentVariableSOA	1583	n/a	n/a	1
165.3540000000	n/a	165354	FrequentVariableSOA	1583	n/a	n/a	1
166.9380000000	n/a	166938	GoVariableSOA	398	n/a	n/a	1
168.6040000000	n/a	168604	FrequentVariableSOA	1566	n/a	n/a	1
170.1710000000	n/a	170171	GoVariableSOA	559	n/a	n/a	1
171.7040000000	n/a	171704	FrequentVariableSOA	1500	n/a	n/a	1
173.2040000000	n/a	173204	FrequentVariableSOA	1566	n/a	n/a	1
174.7710000000	n/a	174771	GoVariableSOA	484	n/a	n/a	1
176.5540000000	n/a	176554	FrequentVariableSOA	1500	n/a	n/a	1
178.0540000000	n/a	178054	FrequentVariableSOA	1716	n/a	n/a	1
179.7710000000	n/a	179771	FrequentVariableSOA	1800	n/a	n/a	1
181.5710000000	n/a	181571	FrequentVariableSOA	1733	n/a	n/a	1
183.3040000000	n/a	183304	NovelVariableSOA	1716	n/a	n/a	1
185.0210000000	n/a	185021	FrequentVariableSOA	1516	n/a	n/a	1
186.5380000000	n/a	186538	NovelVariableSOA	1583	n/a	n/a	1
188.1210000000	n/a	188121	FrequentVariableSOA	1633	n/a	n/a	1
189.7540000000	n/a	189754	FrequentVariableSOA	1566	n/a	n/a	1
191.3210000000	n/a	191321	GoVariableSOA	452	n/a	n/a	1
193.0710000000	n/a	193071	FrequentVariableSOA	1516	n/a	n/a	1
194.5880000000	n/a	194588	FrequentVariableSOA	1766	n/a	n/a	1
196.3540000000	n/a	196354	FrequentVariableSOA	1566	n/a	n/a	1
197.9210000000	n/a	197921	FrequentVariableSOA	1700	n/a	n/a	1
199.6210000000	n/a	199621	NovelVariableSOA	1550	n/a	n/a	1
201.1710000000	n/a	201171	FrequentVariableSOA	1566	n/a	n/a	1
202.7380000000	n/a	202738	FrequentVariableSOA	1800	n/a	n/a	1
204.5380000000	n/a	204538	FrequentVariableSOA	1783	n/a	n/a	1
206.3210000000	n/a	206321	FrequentVariableSOA	1683	n/a	n/a	1
208.0040000000	n/a	208004	GoVariableSOA	511	n/a	n/a	1
209.6210000000	n/a	209621	FrequentVariableSOA	1600	n/a	n/a	1
211.2210000000	n/a	211221	FrequentVariableSOA	1783	n/a	n/a	1
213.0040000000	n/a	213004	NovelVariableSOA	1516	n/a	n/a	1
214.5210000000	n/a	214521	FrequentVariableSOA	1666	n/a	n/a	1
216.1880000000	n/a	216188	FrequentVariableSOA	1550	n/a	n/a	1
217.7380000000	n/a	217738	GoVariableSOA	391	n/a	n/a	1
219.5040000000	n/a	219504	FrequentVariableSOA	1800	n/a	n/a	1
221.3040000000	n/a	221304	FrequentVariableSOA	1633	n/a	n/a	1
222.9380000000	n/a	222938	FrequentVariableSOA	1600	n/a	n/a	1
224.5380000000	n/a	224538	FrequentVariableSOA	1583	n/a	n/a	1
226.1210000000	n/a	226121	NovelVariableSOA	1766	n/a	n/a	1
227.8880000000	n/a	227888	FrequentVariableSOA	1766	n/a	n/a	1
229.6540000000	n/a	229654	FrequentVariableSOA	1550	n/a	n/a	1
231.2040000000	n/a	231204	GoVariableSOA	391	n/a	n/a	1
232.8880000000	n/a	232888	FrequentFixedSOA	1633	n/a	n/a	1
234.5210000000	n/a	234521	FrequentFixedSOA	1633	n/a	n/a	1
236.1540000000	n/a	236154	FrequentFixedSOA	1633	n/a	n/a	1
237.7880000000	n/a	237788	GoFixedSOA	487	n/a	n/a	1
239.4210000000	n/a	239421	FrequentFixedSOA	1633	n/a	n/a	1
241.0540000000	n/a	241054	FrequentFixedSOA	1633	n/a	n/a	1
242.6880000000	n/a	242688	FrequentFixedSOA	1633	n/a	n/a	1
244.3210000000	n/a	244321	GoFixedSOA	496	n/a	n/a	1
245.9540000000	n/a	245954	FrequentFixedSOA	1633	n/a	n/a	1
247.5880000000	n/a	247588	FrequentFixedSOA	1633	n/a	n/a	1
249.2210000000	n/a	249221	FrequentFixedSOA	1633	n/a	n/a	1
250.8540000000	n/a	250854	NovelFixedSOA	1633	n/a	n/a	1
252.4880000000	n/a	252488	FrequentFixedSOA	1633	n/a	n/a	1
254.1210000000	n/a	254121	NovelFixedSOA	1633	n/a	n/a	1
255.7540000000	n/a	255754	FrequentFixedSOA	1633	n/a	n/a	1
257.3880000000	n/a	257388	FrequentFixedSOA	1633	n/a	n/a	1
259.0210000000	n/a	259021	NovelFixedSOA	1633	n/a	n/a	1
260.6540000000	n/a	260654	FrequentFixedSOA	1633	n/a	n/a	1
262.2880000000	n/a	262288	FrequentFixedSOA	1633	n/a	n/a	1
263.9210000000	n/a	263921	FrequentFixedSOA	1633	n/a	n/a	1
265.5540000000	n/a	265554	FrequentFixedSOA	1633	n/a	n/a	1
267.1880000000	n/a	267188	FrequentFixedSOA	1633	n/a	n/a	1
268.8210000000	n/a	268821	NovelFixedSOA	1633	n/a	n/a	1
270.4540000000	n/a	270454	FrequentFixedSOA	1633	n/a	n/a	1
272.0880000000	n/a	272088	FrequentFixedSOA	1633	n/a	n/a	1
273.7210000000	n/a	273721	FrequentFixedSOA	1633	n/a	n/a	1
275.3540000000	n/a	275354	FrequentFixedSOA	1633	n/a	n/a	1
276.9880000000	n/a	276988	FrequentFixedSOA	1633	n/a	n/a	1
278.6210000000	n/a	278621	GoFixedSOA	457	n/a	n/a	1
280.2540000000	n/a	280254	FrequentFixedSOA	1633	n/a	n/a	1
281.8880000000	n/a	281888	FrequentFixedSOA	1633	n/a	n/a	1
283.5210000000	n/a	283521	GoFixedSOA	431	n/a	n/a	1
285.1540000000	n/a	285154	FrequentFixedSOA	1633	n/a	n/a	1
286.7880000000	n/a	286788	NovelFixedSOA	1633	n/a	n/a	1
288.4210000000	n/a	288421	FrequentFixedSOA	1633	n/a	n/a	1
290.0540000000	n/a	290054	GoFixedSOA	457	n/a	n/a	1
291.6880000000	n/a	291688	FrequentFixedSOA	1633	n/a	n/a	1
293.3210000000	n/a	293321	GoFixedSOA	480	n/a	n/a	1
294.9540000000	n/a	294954	FrequentFixedSOA	1633	n/a	n/a	1
296.5880000000	n/a	296588	FrequentFixedSOA	1633	n/a	n/a	1
298.2210000000	n/a	298221	FrequentFixedSOA	1633	n/a	n/a	1
299.8540000000	n/a	299854	FrequentFixedSOA	1633	n/a	n/a	1
301.4880000000	n/a	301488	GoFixedSOA	690	n/a	n/a	1
303.1210000000	n/a	303121	FrequentFixedSOA	1633	n/a	n/a	1
304.7540000000	n/a	304754	FrequentFixedSOA	1633	n/a	n/a	1
306.3880000000	n/a	306388	FrequentFixedSOA	1633	n/a	n/a	1
308.0210000000	n/a	308021	NovelFixedSOA	1633	n/a	n/a	1
309.6540000000	n/a	309654	FrequentFixedSOA	1633	n/a	n/a	1
311.2880000000	n/a	311288	FrequentFixedSOA	1633	n/a	n/a	1
312.9210000000	n/a	312921	FrequentFixedSOA	1633	n/a	n/a	1
314.5540000000	n/a	314554	FrequentFixedSOA	1633	n/a	n/a	1
316.1880000000	n/a	316188	NovelFixedSOA	1633	n/a	n/a	1
317.8210000000	n/a	317821	FrequentFixedSOA	1633	n/a	n/a	1
319.4540000000	n/a	319454	FrequentFixedSOA	1633	n/a	n/a	1
321.0880000000	n/a	321088	FrequentFixedSOA	1633	n/a	n/a	1
322.7210000000	n/a	322721	FrequentFixedSOA	1633	n/a	n/a	1
324.3540000000	n/a	324354	NovelFixedSOA	1633	n/a	n/a	1
325.9880000000	n/a	325988	FrequentFixedSOA	1633	n/a	n/a	1
327.6210000000	n/a	327621	FrequentFixedSOA	1633	n/a	n/a	1
329.2540000000	n/a	329254	GoFixedSOA	475	n/a	n/a	1
330.8880000000	n/a	330888	FrequentFixedSOA	1633	n/a	n/a	1
332.5210000000	n/a	332521	FrequentFixedSOA	1633	n/a	n/a	1
334.1540000000	n/a	334154	FrequentFixedSOA	1633	n/a	n/a	1
335.7880000000	n/a	335788	FrequentFixedSOA	1633	n/a	n/a	1
337.4210000000	n/a	337421	NovelFixedSOA	1633	n/a	n/a	1
339.0540000000	n/a	339054	FrequentFixedSOA	1633	n/a	n/a	1
340.6880000000	n/a	340688	FrequentFixedSOA	1633	n/a	n/a	1
342.3210000000	n/a	342321	FrequentFixedSOA	1633	n/a	n/a	1
343.9540000000	n/a	343954	FrequentFixedSOA	1633	n/a	n/a	1
345.5880000000	n/a	345588	FrequentFixedSOA	1633	n/a	n/a	1
347.2210000000	n/a	347221	FrequentVariableSOA	1616	n/a	n/a	1
348.8380000000	n/a	348838	FrequentVariableSOA	1600	n/a	n/a	1
350.4380000000	n/a	350438	FrequentVariableSOA	1783	n/a	n/a	1
352.2210000000	n/a	352221	GoVariableSOA	437	n/a	n/a	1
353.8210000000	n/a	353821	FrequentVariableSOA	1716	n/a	n/a	1
355.5380000000	n/a	355538	FrequentVariableSOA	1600	n/a	n/a	1
357.1380000000	n/a	357138	FrequentVariableSOA	1533	n/a	n/a	1
358.6710000000	n/a	358671	GoVariableSOA	633	n/a	n/a	1
360.4540000000	n/a	360454	FrequentVariableSOA	1700	n/a	n/a	1
362.1540000000	n/a	362154	FrequentVariableSOA	1716	n/a	n/a	1
363.8710000000	n/a	363871	FrequentVariableSOA	1550	n/a	n/a	1
365.4210000000	n/a	365421	NovelVariableSOA	1633	n/a	n/a	1
367.0540000000	n/a	367054	FrequentVariableSOA	1566	n/a	n/a	1
368.6210000000	n/a	368621	NovelVariableSOA	1650	n/a	n/a	1
370.2710000000	n/a	370271	FrequentVariableSOA	1616	n/a	n/a	1
371.8870000000	n/a	371887	FrequentVariableSOA	1550	n/a	n/a	1
373.4370000000	n/a	373437	NovelVariableSOA	1550	n/a	n/a	1
374.9870000000	n/a	374987	FrequentVariableSOA	1700	n/a	n/a	1
376.6870000000	n/a	376687	FrequentVariableSOA	1733	n/a	n/a	1
378.4210000000	n/a	378421	FrequentVariableSOA	1666	n/a	n/a	1
380.0870000000	n/a	380087	FrequentVariableSOA	1600	n/a	n/a	1
381.6870000000	n/a	381687	FrequentVariableSOA	1516	n/a	n/a	1
383.2040000000	n/a	383204	NovelVariableSOA	1500	n/a	n/a	1
384.7040000000	n/a	384704	FrequentVariableSOA	1566	n/a	n/a	1
386.2710000000	n/a	386271	FrequentVariableSOA	1716	n/a	n/a	1
387.9870000000	n/a	387987	FrequentVariableSOA	1533	n/a	n/a	1
389.5210000000	n/a	389521	FrequentVariableSOA	1783	n/a	n/a	1
391.3040000000	n/a	391304	FrequentVariableSOA	1616	n/a	n/a	1
392.9210000000	n/a	392921	GoVariableSOA	479	n/a	n/a	1
394.4210000000	n/a	394421	FrequentVariableSOA	1700	n/a	n/a	1
396.1210000000	n/a	396121	FrequentVariableSOA	1800	n/a	n/a	1
397.9210000000	n/a	397921	GoVariableSOA	511	n/a	n/a	1
399.5370000000	n/a	399537	FrequentVariableSOA	1733	n/a	n/a	1
401.2710000000	n/a	401271	NovelVariableSOA	1583	n/a	n/a	1
402.8540000000	n/a	402854	FrequentVariableSOA	1633	n/a	n/a	1
404.4870000000	n/a	404487	GoVariableSOA	429	n/a	n/a	1
406.0870000000	n/a	406087	FrequentVariableSOA	1583	n/a	n/a	1
407.6710000000	n/a	407671	GoVariableSOA	544	n/a	n/a	1
409.2370000000	n/a	409237	FrequentVariableSOA	1583	n/a	n/a	1
410.8210000000	n/a	410821	FrequentVariableSOA	1783	n/a	n/a	1
412.6040000000	n/a	412604	FrequentVariableSOA	1666	n/a	n/a	1
414.2710000000	n/a	414271	FrequentVariableSOA	1550	n/a	n/a	1
415.8210000000	n/a	415821	GoVariableSOA	355	n/a	n/a	1
417.4370000000	n/a	417437	FrequentVariableSOA	1733	n/a	n/a	1
419.1710000000	n/a	419171	FrequentVariableSOA	1550	n/a	n/a	1
420.7210000000	n/a	420721	FrequentVariableSOA	1666	n/a	n/a	1
422.3870000000	n/a	422387	NovelVariableSOA	1616	n/a	n/a	1
424.0040000000	n/a	424004	FrequentVariableSOA	1500	n/a	n/a	1
425.5040000000	n/a	425504	FrequentVariableSOA	1616	n/a	n/a	1
427.1210000000	n/a	427121	FrequentVariableSOA	1650	n/a	n/a	1
428.7710000000	n/a	428771	FrequentVariableSOA	1600	n/a	n/a	1
430.3710000000	n/a	430371	NovelVariableSOA	1633	n/a	n/a	1
432.0040000000	n/a	432004	FrequentVariableSOA	1750	n/a	n/a	1
433.7540000000	n/a	433754	FrequentVariableSOA	1566	n/a	n/a	1
435.3210000000	n/a	435321	FrequentVariableSOA	1666	n/a	n/a	1
436.9870000000	n/a	436987	FrequentVariableSOA	1566	n/a	n/a	1
438.5540000000	n/a	438554	NovelVariableSOA	1566	n/a	n/a	1
440.1210000000	n/a	440121	FrequentVariableSOA	1583	n/a	n/a	1
441.7040000000	n/a	441704	FrequentVariableSOA	1766	n/a	n/a	1
443.4710000000	n/a	443471	GoVariableSOA	441	n/a	n/a	1
445.2540000000	n/a	445254	FrequentVariableSOA	1783	n/a	n/a	1
447.0370000000	n/a	447037	FrequentVariableSOA	1633	n/a	n/a	1
448.6710000000	n/a	448671	FrequentVariableSOA	1666	n/a	n/a	1
450.3370000000	n/a	450337	FrequentVariableSOA	1566	n/a	n/a	1
451.9040000000	n/a	451904	NovelVariableSOA	1566	n/a	n/a	1
453.4710000000	n/a	453471	FrequentVariableSOA	1766	n/a	n/a	1
455.2370000000	n/a	455237	FrequentVariableSOA	1666	n/a	n/a	1
456.9040000000	n/a	456904	FrequentVariableSOA	1616	n/a	n/a	1
458.5210000000	n/a	458521	FrequentVariableSOA	1516	n/a	n/a	1
460.0370000000	n/a	460037	FrequentVariableSOA	1766	n/a	n/a	1
461.8040000000	n/a	461804	GoFixedSOA	1633	n/a	n/a	0
463.4370000000	n/a	463437	FrequentFixedSOA	1633	n/a	n/a	1
465.0710000000	n/a	465071	FrequentFixedSOA	1633	n/a	n/a	1
466.7040000000	n/a	466704	FrequentFixedSOA	1633	n/a	n/a	1
468.3370000000	n/a	468337	FrequentFixedSOA	1633	n/a	n/a	1
469.9710000000	n/a	469971	FrequentFixedSOA	1633	n/a	n/a	1
471.6040000000	n/a	471604	FrequentFixedSOA	1633	n/a	n/a	1
473.2370000000	n/a	473237	NovelFixedSOA	1633	n/a	n/a	1
474.8710000000	n/a	474871	FrequentFixedSOA	1633	n/a	n/a	1
476.5040000000	n/a	476504	FrequentFixedSOA	1633	n/a	n/a	1
478.1370000000	n/a	478137	FrequentFixedSOA	1633	n/a	n/a	1
479.7710000000	n/a	479771	NovelFixedSOA	1633	n/a	n/a	1
481.4040000000	n/a	481404	FrequentFixedSOA	1633	n/a	n/a	1
483.0370000000	n/a	483037	GoFixedSOA	473	n/a	n/a	1
484.6710000000	n/a	484671	FrequentFixedSOA	1633	n/a	n/a	1
486.3040000000	n/a	486304	FrequentFixedSOA	1633	n/a	n/a	1
487.9370000000	n/a	487937	GoFixedSOA	598	n/a	n/a	1
489.5710000000	n/a	489571	FrequentFixedSOA	1633	n/a	n/a	1
491.2040000000	n/a	491204	NovelFixedSOA	1633	n/a	n/a	1
492.8370000000	n/a	492837	FrequentFixedSOA	1633	n/a	n/a	1
494.4710000000	n/a	494471	FrequentFixedSOA	1633	n/a	n/a	1
496.1040000000	n/a	496104	FrequentFixedSOA	1633	n/a	n/a	1
497.7370000000	n/a	497737	FrequentFixedSOA	1633	n/a	n/a	1
499.3710000000	n/a	499371	FrequentFixedSOA	1633	n/a	n/a	1
501.0040000000	n/a	501004	GoFixedSOA	529	n/a	n/a	1
502.6370000000	n/a	502637	FrequentFixedSOA	1633	n/a	n/a	1
504.2710000000	n/a	504271	FrequentFixedSOA	1633	n/a	n/a	1
505.9040000000	n/a	505904	NovelFixedSOA	1633	n/a	n/a	1
507.5370000000	n/a	507537	FrequentFixedSOA	1633	n/a	n/a	1
509.1710000000	n/a	509171	FrequentFixedSOA	1633	n/a	n/a	1
510.8040000000	n/a	510804	FrequentFixedSOA	1633	n/a	n/a	1
512.4370000000	n/a	512437	FrequentFixedSOA	1633	n/a	n/a	1
514.0710000000	n/a	514071	FrequentFixedSOA	1633	n/a	n/a	1
515.7040000000	n/a	515704	NovelFixedSOA	1633	n/a	n/a	1
517.3370000000	n/a	517337	FrequentFixedSOA	1633	n/a	n/a	1
518.9710000000	n/a	518971	FrequentFixedSOA	1633	n/a	n/a	1
520.6040000000	n/a	520604	FrequentFixedSOA	1633	n/a	n/a	1
522.2370000000	n/a	522237	FrequentFixedSOA	1633	n/a	n/a	1
523.8710000000	n/a	523871	GoFixedSOA	654	n/a	n/a	1
525.5040000000	n/a	525504	FrequentFixedSOA	1633	n/a	n/a	1
527.1370000000	n/a	527137	FrequentFixedSOA	1633	n/a	n/a	1
528.7710000000	n/a	528771	NovelFixedSOA	1633	n/a	n/a	1
530.4040000000	n/a	530404	FrequentFixedSOA	1633	n/a	n/a	1
532.0370000000	n/a	532037	FrequentFixedSOA	1633	n/a	n/a	1
533.6710000000	n/a	533671	NovelFixedSOA	1633	n/a	n/a	1
535.3040000000	n/a	535304	FrequentFixedSOA	1633	n/a	n/a	1
536.9370000000	n/a	536937	FrequentFixedSOA	1633	n/a	n/a	1
538.5710000000	n/a	538571	FrequentFixedSOA	1633	n/a	n/a	1
540.2040000000	n/a	540204	FrequentFixedSOA	1633	n/a	n/a	1
541.8370000000	n/a	541837	FrequentFixedSOA	1633	n/a	n/a	1
543.4710000000	n/a	543471	GoFixedSOA	585	n/a	n/a	1
545.1040000000	n/a	545104	FrequentFixedSOA	1633	n/a	n/a	1
546.7370000000	n/a	546737	FrequentFixedSOA	1633	n/a	n/a	1
548.3710000000	n/a	548371	FrequentFixedSOA	1633	n/a	n/a	1
550.0040000000	n/a	550004	FrequentFixedSOA	1633	n/a	n/a	1
551.6370000000	n/a	551637	FrequentFixedSOA	1633	n/a	n/a	1
553.2710000000	n/a	553271	NovelFixedSOA	1633	n/a	n/a	1
554.9040000000	n/a	554904	FrequentFixedSOA	1633	n/a	n/a	1
556.5370000000	n/a	556537	GoFixedSOA	472	n/a	n/a	1
558.1710000000	n/a	558171	FrequentFixedSOA	1633	n/a	n/a	1
559.8040000000	n/a	559804	FrequentFixedSOA	1633	n/a	n/a	1
561.4370000000	n/a	561437	FrequentFixedSOA	1633	n/a	n/a	1
563.0710000000	n/a	563071	FrequentFixedSOA	1633	n/a	n/a	1
564.7040000000	n/a	564704	FrequentFixedSOA	1633	n/a	n/a	1
566.3370000000	n/a	566337	FrequentFixedSOA	1633	n/a	n/a	1
567.9710000000	n/a	567971	FrequentFixedSOA	1633	n/a	n/a	1
569.6040000000	n/a	569604	FrequentFixedSOA	1633	n/a	n/a	1
571.2370000000	n/a	571237	NovelFixedSOA	1633	n/a	n/a	1
572.8710000000	n/a	572871	FrequentFixedSOA	1633	n/a	n/a	1
574.5040000000	n/a	574504	FrequentFixedSOA	1633	n/a	n/a	1
576.1370000000	n/a	576137	GoVariableSOA	482	n/a	n/a	1
577.7040000000	n/a	577704	FrequentVariableSOA	1616	n/a	n/a	1
579.3210000000	n/a	579321	FrequentVariableSOA	1683	n/a	n/a	1
581.0040000000	n/a	581004	FrequentVariableSOA	1533	n/a	n/a	1
582.5370000000	n/a	582537	FrequentVariableSOA	1716	n/a	n/a	1
584.2540000000	n/a	584254	FrequentVariableSOA	1500	n/a	n/a	1
585.7540000000	n/a	585754	FrequentVariableSOA	1516	n/a	n/a	1
587.2710000000	n/a	587271	NovelVariableSOA	1616	n/a	n/a	1
588.8870000000	n/a	588887	FrequentVariableSOA	1566	n/a	n/a	1
590.4540000000	n/a	590454	FrequentVariableSOA	1666	n/a	n/a	1
592.1200000000	n/a	592120	FrequentVariableSOA	1566	n/a	n/a	1
593.6870000000	n/a	593687	NovelVariableSOA	1650	n/a	n/a	1
595.3370000000	n/a	595337	FrequentVariableSOA	1800	n/a	n/a	1
597.1370000000	n/a	597137	GoVariableSOA	439	n/a	n/a	1
598.6700000000	n/a	598670	FrequentVariableSOA	1766	n/a	n/a	1
600.4370000000	n/a	600437	FrequentVariableSOA	1600	n/a	n/a	1
602.0370000000	n/a	602037	GoVariableSOA	578	n/a	n/a	1
603.5870000000	n/a	603587	FrequentVariableSOA	1766	n/a	n/a	1
605.3540000000	n/a	605354	NovelVariableSOA	1716	n/a	n/a	1
607.0700000000	n/a	607070	FrequentVariableSOA	1633	n/a	n/a	1
608.7040000000	n/a	608704	FrequentVariableSOA	1533	n/a	n/a	1
610.2370000000	n/a	610237	FrequentVariableSOA	1533	n/a	n/a	1
611.7700000000	n/a	611770	FrequentVariableSOA	1666	n/a	n/a	1
613.4370000000	n/a	613437	FrequentVariableSOA	1783	n/a	n/a	1
615.2200000000	n/a	615220	GoVariableSOA	515	n/a	n/a	1
616.9200000000	n/a	616920	FrequentVariableSOA	1566	n/a	n/a	1
618.4870000000	n/a	618487	FrequentVariableSOA	1683	n/a	n/a	1
620.1700000000	n/a	620170	NovelVariableSOA	1750	n/a	n/a	1
621.9200000000	n/a	621920	FrequentVariableSOA	1700	n/a	n/a	1
623.6200000000	n/a	623620	FrequentVariableSOA	1633	n/a	n/a	1
625.2540000000	n/a	625254	FrequentVariableSOA	1666	n/a	n/a	1
626.9200000000	n/a	626920	FrequentVariableSOA	1550	n/a	n/a	1
628.4700000000	n/a	628470	FrequentVariableSOA	1566	n/a	n/a	1
630.0370000000	n/a	630037	NovelVariableSOA	1733	n/a	n/a	1
631.7700000000	n/a	631770	FrequentVariableSOA	1650	n/a	n/a	1
633.4200000000	n/a	633420	FrequentVariableSOA	1683	n/a	n/a	1
635.1040000000	n/a	635104	FrequentVariableSOA	1600	n/a	n/a	1
636.7040000000	n/a	636704	FrequentVariableSOA	1550	n/a	n/a	1
638.2540000000	n/a	638254	GoVariableSOA	514	n/a	n/a	1
639.8700000000	n/a	639870	FrequentVariableSOA	1716	n/a	n/a	1
641.5870000000	n/a	641587	FrequentVariableSOA	1516	n/a	n/a	1
643.1040000000	n/a	643104	NovelVariableSOA	1766	n/a	n/a	1
644.8700000000	n/a	644870	FrequentVariableSOA	1633	n/a	n/a	1
646.5040000000	n/a	646504	FrequentVariableSOA	1600	n/a	n/a	1
648.1040000000	n/a	648104	NovelVariableSOA	1700	n/a	n/a	1
649.8040000000	n/a	649804	FrequentVariableSOA	1750	n/a	n/a	1
651.5540000000	n/a	651554	FrequentVariableSOA	1583	n/a	n/a	1
653.1370000000	n/a	653137	FrequentVariableSOA	1650	n/a	n/a	1
654.7870000000	n/a	654787	FrequentVariableSOA	1800	n/a	n/a	1
656.5870000000	n/a	656587	FrequentVariableSOA	1583	n/a	n/a	1
658.1700000000	n/a	658170	GoVariableSOA	381	n/a	n/a	1
659.7700000000	n/a	659770	FrequentVariableSOA	1566	n/a	n/a	1
661.3370000000	n/a	661337	FrequentVariableSOA	1750	n/a	n/a	1
663.0870000000	n/a	663087	FrequentVariableSOA	1650	n/a	n/a	1
664.7370000000	n/a	664737	FrequentVariableSOA	1500	n/a	n/a	1
666.2370000000	n/a	666237	FrequentVariableSOA	1766	n/a	n/a	1
668.0040000000	n/a	668004	NovelVariableSOA	1666	n/a	n/a	1
669.6700000000	n/a	669670	FrequentVariableSOA	1633	n/a	n/a	1
671.3040000000	n/a	671304	GoVariableSOA	469	n/a	n/a	1
672.9870000000	n/a	672987	FrequentVariableSOA	1800	n/a	n/a	1
674.7870000000	n/a	674787	FrequentVariableSOA	1633	n/a	n/a	1
676.4200000000	n/a	676420	FrequentVariableSOA	1783	n/a	n/a	1
678.2040000000	n/a	678204	FrequentVariableSOA	1733	n/a	n/a	1
679.9370000000	n/a	679937	FrequentVariableSOA	1600	n/a	n/a	1
681.5370000000	n/a	681537	FrequentVariableSOA	1566	n/a	n/a	1
683.1040000000	n/a	683104	FrequentVariableSOA	1683	n/a	n/a	1
684.7870000000	n/a	684787	FrequentVariableSOA	1766	n/a	n/a	1
686.5540000000	n/a	686554	NovelVariableSOA	1766	n/a	n/a	1
688.3200000000	n/a	688320	FrequentVariableSOA	1633	n/a	n/a	1
689.9540000000	n/a	689954	FrequentVariableSOA	1683	n/a	n/a	1
691.6370000000	n/a	691637	GoFixedSOA	467	n/a	n/a	1
693.2700000000	n/a	693270	FrequentFixedSOA	1633	n/a	n/a	1
694.9040000000	n/a	694904	FrequentFixedSOA	1633	n/a	n/a	1
696.5370000000	n/a	696537	FrequentFixedSOA	1633	n/a	n/a	1
698.1700000000	n/a	698170	GoFixedSOA	650	n/a	n/a	1
699.8040000000	n/a	699804	FrequentFixedSOA	1633	n/a	n/a	1
701.4370000000	n/a	701437	FrequentFixedSOA	1633	n/a	n/a	1
703.0700000000	n/a	703070	FrequentFixedSOA	1633	n/a	n/a	1
704.7040000000	n/a	704704	FrequentFixedSOA	1633	n/a	n/a	1
706.3370000000	n/a	706337	GoFixedSOA	523	n/a	n/a	1
707.9700000000	n/a	707970	FrequentFixedSOA	1633	n/a	n/a	1
709.6040000000	n/a	709604	FrequentFixedSOA	1633	n/a	n/a	1
711.2370000000	n/a	711237	NovelFixedSOA	1633	n/a	n/a	1
712.8700000000	n/a	712870	FrequentFixedSOA	1633	n/a	n/a	1
714.5040000000	n/a	714504	FrequentFixedSOA	1633	n/a	n/a	1
716.1370000000	n/a	716137	GoFixedSOA	416	n/a	n/a	1
717.7700000000	n/a	717770	FrequentFixedSOA	1633	n/a	n/a	1
719.4040000000	n/a	719404	FrequentFixedSOA	1633	n/a	n/a	1
721.0370000000	n/a	721037	FrequentFixedSOA	1633	n/a	n/a	1
722.6700000000	n/a	722670	NovelFixedSOA	1633	n/a	n/a	1
724.3040000000	n/a	724304	FrequentFixedSOA	1633	n/a	n/a	1
725.9370000000	n/a	725937	NovelFixedSOA	1633	n/a	n/a	1
727.5700000000	n/a	727570	FrequentFixedSOA	1633	n/a	n/a	1
729.2040000000	n/a	729204	FrequentFixedSOA	1633	n/a	n/a	1
730.8370000000	n/a	730837	FrequentFixedSOA	1633	n/a	n/a	1
732.4700000000	n/a	732470	GoFixedSOA	503	n/a	n/a	1
734.1040000000	n/a	734104	FrequentFixedSOA	1633	n/a	n/a	1
735.7370000000	n/a	735737	FrequentFixedSOA	1633	n/a	n/a	1
737.3700000000	n/a	737370	FrequentFixedSOA	1633	n/a	n/a	1
739.0040000000	n/a	739004	GoFixedSOA	576	n/a	n/a	1
740.6370000000	n/a	740637	FrequentFixedSOA	1633	n/a	n/a	1
742.2700000000	n/a	742270	FrequentFixedSOA	1633	n/a	n/a	1
743.9040000000	n/a	743904	NovelFixedSOA	1633	n/a	n/a	1
745.5370000000	n/a	745537	FrequentFixedSOA	1633	n/a	n/a	1
747.1700000000	n/a	747170	GoFixedSOA	491	n/a	n/a	1
748.8040000000	n/a	748804	FrequentFixedSOA	1633	n/a	n/a	1
750.4370000000	n/a	750437	FrequentFixedSOA	1633	n/a	n/a	1
752.0700000000	n/a	752070	FrequentFixedSOA	1633	n/a	n/a	1
753.7040000000	n/a	753704	FrequentFixedSOA	1633	n/a	n/a	1
755.3370000000	n/a	755337	FrequentFixedSOA	1633	n/a	n/a	1
756.9700000000	n/a	756970	FrequentFixedSOA	1633	n/a	n/a	1
758.6040000000	n/a	758604	NovelFixedSOA	1633	n/a	n/a	1
760.2370000000	n/a	760237	FrequentFixedSOA	1633	n/a	n/a	1
761.8700000000	n/a	761870	FrequentFixedSOA	1633	n/a	n/a	1
763.5040000000	n/a	763504	FrequentFixedSOA	1633	n/a	n/a	1
765.1370000000	n/a	765137	GoFixedSOA	308	n/a	n/a	1
766.7700000000	n/a	766770	FrequentFixedSOA	1633	n/a	n/a	1
768.4040000000	n/a	768404	FrequentFixedSOA	1633	n/a	n/a	1
770.0370000000	n/a	770037	FrequentFixedSOA	1633	n/a	n/a	1
771.6700000000	n/a	771670	FrequentFixedSOA	1633	n/a	n/a	1
773.3040000000	n/a	773304	NovelFixedSOA	1633	n/a	n/a	1
774.9370000000	n/a	774937	FrequentFixedSOA	1633	n/a	n/a	1
776.5700000000	n/a	776570	FrequentFixedSOA	1633	n/a	n/a	1
778.2040000000	n/a	778204	NovelFixedSOA	1633	n/a	n/a	1
779.8370000000	n/a	779837	FrequentFixedSOA	1633	n/a	n/a	1
781.4700000000	n/a	781470	NovelFixedSOA	1633	n/a	n/a	1
783.1040000000	n/a	783104	FrequentFixedSOA	1633	n/a	n/a	1
784.7370000000	n/a	784737	FrequentFixedSOA	1633	n/a	n/a	1
786.3700000000	n/a	786370	FrequentFixedSOA	1633	n/a	n/a	1
788.0040000000	n/a	788004	FrequentFixedSOA	1633	n/a	n/a	1
789.6370000000	n/a	789637	FrequentFixedSOA	1633	n/a	n/a	1
791.2700000000	n/a	791270	FrequentFixedSOA	1633	n/a	n/a	1
792.9040000000	n/a	792904	FrequentFixedSOA	1633	n/a	n/a	1
794.5370000000	n/a	794537	GoFixedSOA	470	n/a	n/a	1
796.1700000000	n/a	796170	FrequentFixedSOA	1633	n/a	n/a	1
797.8040000000	n/a	797804	GoFixedSOA	658	n/a	n/a	1
799.4370000000	n/a	799437	FrequentFixedSOA	1633	n/a	n/a	1
801.0700000000	n/a	801070	FrequentFixedSOA	1633	n/a	n/a	1
802.7040000000	n/a	802704	NovelFixedSOA	1633	n/a	n/a	1
804.3370000000	n/a	804337	FrequentFixedSOA	1633	n/a	n/a	1
805.9700000000	n/a	805970	GoVariableSOA	1516	n/a	n/a	0
807.4870000000	n/a	807487	FrequentVariableSOA	1516	n/a	n/a	1
809.0040000000	n/a	809004	FrequentVariableSOA	1650	n/a	n/a	1
810.6540000000	n/a	810654	FrequentVariableSOA	1583	n/a	n/a	1
812.2370000000	n/a	812237	GoVariableSOA	569	n/a	n/a	1
814.0040000000	n/a	814004	FrequentVariableSOA	1500	n/a	n/a	1
815.5030000000	n/a	815503	FrequentVariableSOA	1683	n/a	n/a	1
817.1870000000	n/a	817187	FrequentVariableSOA	1600	n/a	n/a	1
818.7870000000	n/a	818787	FrequentVariableSOA	1533	n/a	n/a	1
820.3200000000	n/a	820320	GoVariableSOA	1650	n/a	n/a	0
821.9700000000	n/a	821970	FrequentVariableSOA	1716	n/a	n/a	1
823.6870000000	n/a	823687	FrequentVariableSOA	1616	n/a	n/a	1
825.3030000000	n/a	825303	NovelVariableSOA	1583	n/a	n/a	1
826.8870000000	n/a	826887	FrequentVariableSOA	1683	n/a	n/a	1
828.5700000000	n/a	828570	FrequentVariableSOA	1616	n/a	n/a	1
830.1870000000	n/a	830187	GoVariableSOA	485	n/a	n/a	1
831.8200000000	n/a	831820	FrequentVariableSOA	1783	n/a	n/a	1
833.6030000000	n/a	833603	FrequentVariableSOA	1683	n/a	n/a	1
835.2870000000	n/a	835287	FrequentVariableSOA	1600	n/a	n/a	1
836.8870000000	n/a	836887	NovelVariableSOA	1566	n/a	n/a	1
838.4530000000	n/a	838453	FrequentVariableSOA	1516	n/a	n/a	1
839.9700000000	n/a	839970	NovelVariableSOA	1650	n/a	n/a	1
841.6200000000	n/a	841620	FrequentVariableSOA	1666	n/a	n/a	1
843.2870000000	n/a	843287	FrequentVariableSOA	1766	n/a	n/a	1
845.0530000000	n/a	845053	FrequentVariableSOA	1500	n/a	n/a	1
846.5530000000	n/a	846553	GoVariableSOA	533	n/a	n/a	1
848.2870000000	n/a	848287	FrequentVariableSOA	1716	n/a	n/a	1
850.0030000000	n/a	850003	FrequentVariableSOA	1650	n/a	n/a	1
851.6530000000	n/a	851653	FrequentVariableSOA	1600	n/a	n/a	1
853.2530000000	n/a	853253	GoVariableSOA	509	n/a	n/a	1
854.9370000000	n/a	854937	FrequentVariableSOA	1666	n/a	n/a	1
856.6030000000	n/a	856603	FrequentVariableSOA	1600	n/a	n/a	1
858.2030000000	n/a	858203	NovelVariableSOA	1616	n/a	n/a	1
859.8200000000	n/a	859820	FrequentVariableSOA	1700	n/a	n/a	1
861.5200000000	n/a	861520	GoVariableSOA	491	n/a	n/a	1
863.2870000000	n/a	863287	FrequentVariableSOA	1766	n/a	n/a	1
865.0530000000	n/a	865053	FrequentVariableSOA	1533	n/a	n/a	1
866.5870000000	n/a	866587	FrequentVariableSOA	1766	n/a	n/a	1
868.3530000000	n/a	868353	FrequentVariableSOA	1550	n/a	n/a	1
869.9030000000	n/a	869903	FrequentVariableSOA	1716	n/a	n/a	1
871.6200000000	n/a	871620	FrequentVariableSOA	1766	n/a	n/a	1
873.3870000000	n/a	873387	NovelVariableSOA	1800	n/a	n/a	1
875.1870000000	n/a	875187	FrequentVariableSOA	1716	n/a	n/a	1
876.9030000000	n/a	876903	FrequentVariableSOA	1616	n/a	n/a	1
878.5200000000	n/a	878520	FrequentVariableSOA	1666	n/a	n/a	1
880.1870000000	n/a	880187	GoVariableSOA	564	n/a	n/a	1
881.9370000000	n/a	881937	FrequentVariableSOA	1600	n/a	n/a	1
883.5370000000	n/a	883537	FrequentVariableSOA	1666	n/a	n/a	1
885.2030000000	n/a	885203	FrequentVariableSOA	1616	n/a	n/a	1
886.8200000000	n/a	886820	FrequentVariableSOA	1616	n/a	n/a	1
888.4370000000	n/a	888437	NovelVariableSOA	1683	n/a	n/a	1
890.1200000000	n/a	890120	FrequentVariableSOA	1700	n/a	n/a	1
891.8200000000	n/a	891820	FrequentVariableSOA	1633	n/a	n/a	1
893.4530000000	n/a	893453	NovelVariableSOA	1733	n/a	n/a	1
895.1870000000	n/a	895187	FrequentVariableSOA	1516	n/a	n/a	1
896.7030000000	n/a	896703	NovelVariableSOA	1700	n/a	n/a	1
898.4030000000	n/a	898403	FrequentVariableSOA	1516	n/a	n/a	1
899.9200000000	n/a	899920	FrequentVariableSOA	1616	n/a	n/a	1
901.5370000000	n/a	901537	FrequentVariableSOA	1783	n/a	n/a	1
903.3200000000	n/a	903320	FrequentVariableSOA	1800	n/a	n/a	1
905.1200000000	n/a	905120	FrequentVariableSOA	1583	n/a	n/a	1
906.7030000000	n/a	906703	FrequentVariableSOA	1700	n/a	n/a	1
908.4030000000	n/a	908403	FrequentVariableSOA	1550	n/a	n/a	1
909.9530000000	n/a	909953	GoVariableSOA	389	n/a	n/a	1
911.7200000000	n/a	911720	FrequentVariableSOA	1550	n/a	n/a	1
913.2700000000	n/a	913270	GoVariableSOA	639	n/a	n/a	1
914.9870000000	n/a	914987	FrequentVariableSOA	1600	n/a	n/a	1
916.5870000000	n/a	916587	FrequentVariableSOA	1783	n/a	n/a	1
918.3700000000	n/a	918370	NovelVariableSOA	1716	n/a	n/a	1
920.0870000000	n/a	920087	FrequentVariableSOA	1650	n/a	n/a	1
