onset	duration	sample	trial_type	response_time	stim_file	value	correct
6.6380000000	n/a	6638	ignore	n/a	n/a	n/a	n/a
9.7380000000	n/a	9738	ignore	n/a	n/a	n/a	n/a
12.7540000000	n/a	12754	ignore	n/a	n/a	n/a	n/a
27.8710000000	n/a	27871	ignore	n/a	n/a	n/a	n/a
30.9710000000	n/a	30971	ignore	n/a	n/a	n/a	n/a
33.9580000000	n/a	33958	ignore	n/a	n/a	n/a	n/a
51.0210000000	n/a	51021	NeuStim	n/a	n/a	n/a	n/a
54.1210000000	n/a	54121	NeuNonAlcP1000	n/a	n/a	n/a	n/a
59.1080000000	n/a	59108	NeuNonAlcP1000	n/a	n/a	n/a	n/a
68.8880000000	n/a	68888	PosStim	n/a	n/a	n/a	n/a
71.9210000000	n/a	71921	PosAlcStimWithoutStartle	n/a	n/a	n/a	n/a
87.0550000000	n/a	87055	NeuStim	n/a	n/a	n/a	n/a
90.1550000000	n/a	90155	NeuAlcP2000	n/a	n/a	n/a	n/a
94.1420000000	n/a	94142	NeuAlcP2000	n/a	n/a	n/a	n/a
103.2210000000	n/a	103221	NegStim	n/a	n/a	n/a	n/a
106.3210000000	n/a	106321	NegNonAlcP2000	n/a	n/a	n/a	n/a
110.3080000000	n/a	110308	NegNonAlcP2000	n/a	n/a	n/a	n/a
123.3380000000	n/a	123338	NeuStim	n/a	n/a	n/a	n/a
126.3710000000	n/a	126371	NeuNonAlcStimWithoutStartle	n/a	n/a	n/a	n/a
139.6710000000	n/a	139671	PosStim	n/a	n/a	n/a	n/a
142.7710000000	n/a	142771	PosNonAlcP1000	n/a	n/a	n/a	n/a
147.7580000000	n/a	147758	PosNonAlcP1000	n/a	n/a	n/a	n/a
156.8550000000	n/a	156855	NeuStim	n/a	n/a	n/a	n/a
159.9550000000	n/a	159955	NeuAlcP1000	n/a	n/a	n/a	n/a
164.9420000000	n/a	164942	NeuAlcP1000	n/a	n/a	n/a	n/a
174.5050000000	n/a	174505	NegStim	n/a	n/a	n/a	n/a
177.5380000000	n/a	177538	NegNonAlcStimWithoutStartle	n/a	n/a	n/a	n/a
193.0380000000	n/a	193038	NeuStim	n/a	n/a	n/a	n/a
196.1380000000	n/a	196138	NeuNonAlcP1000	n/a	n/a	n/a	n/a
201.1250000000	n/a	201125	NeuNonAlcP1000	n/a	n/a	n/a	n/a
211.9210000000	n/a	211921	NegStim	n/a	n/a	n/a	n/a
215.0210000000	n/a	215021	NegNonAlcP3000	n/a	n/a	n/a	n/a
218.0080000000	n/a	218008	NegNonAlcP3000	n/a	n/a	n/a	n/a
232.0380000000	n/a	232038	PosStim	n/a	n/a	n/a	n/a
235.1380000000	n/a	235138	PosNonAlcP3000	n/a	n/a	n/a	n/a
238.1250000000	n/a	238125	PosNonAlcP3000	n/a	n/a	n/a	n/a
249.7040000000	n/a	249704	NeuStim	n/a	n/a	n/a	n/a
252.8040000000	n/a	252804	NeuAlcP1000	n/a	n/a	n/a	n/a
257.7910000000	n/a	257791	NeuAlcP1000	n/a	n/a	n/a	n/a
266.7540000000	n/a	266754	NegStim	n/a	n/a	n/a	n/a
269.7880000000	n/a	269788	NegAlcStimWithoutStartle	n/a	n/a	n/a	n/a
283.9540000000	n/a	283954	PosStim	n/a	n/a	n/a	n/a
286.9880000000	n/a	286988	PosNonAlcStimWithoutStartle	n/a	n/a	n/a	n/a
303.8210000000	n/a	303821	NegStim	n/a	n/a	n/a	n/a
306.9210000000	n/a	306921	NegAlcP3000	n/a	n/a	n/a	n/a
309.9080000000	n/a	309908	NegAlcP3000	n/a	n/a	n/a	n/a
320.2040000000	n/a	320204	NeuStim	n/a	n/a	n/a	n/a
323.2380000000	n/a	323238	NeuAlcStimWithoutStartle	n/a	n/a	n/a	n/a
336.4380000000	n/a	336438	PosStim	n/a	n/a	n/a	n/a
339.5380000000	n/a	339538	PosNonAlcP1000	n/a	n/a	n/a	n/a
344.5250000000	n/a	344525	PosNonAlcP1000	n/a	n/a	n/a	n/a
355.5380000000	n/a	355538	NegStim	n/a	n/a	n/a	n/a
358.6380000000	n/a	358638	NegAlcP3000	n/a	n/a	n/a	n/a
361.6250000000	n/a	361625	NegAlcP3000	n/a	n/a	n/a	n/a
373.5040000000	n/a	373504	NegStim	n/a	n/a	n/a	n/a
376.5380000000	n/a	376538	NegNonAlcStimWithoutStartle	n/a	n/a	n/a	n/a
390.3040000000	n/a	390304	PosStim	n/a	n/a	n/a	n/a
393.4040000000	n/a	393404	PosAlcP1000	n/a	n/a	n/a	n/a
398.3910000000	n/a	398391	PosAlcP1000	n/a	n/a	n/a	n/a
406.6540000000	n/a	406654	NeuStim	n/a	n/a	n/a	n/a
409.6870000000	n/a	409687	NeuAlcStimWithoutStartle	n/a	n/a	n/a	n/a
425.4710000000	n/a	425471	NegStim	n/a	n/a	n/a	n/a
428.5710000000	n/a	428571	NegNonAlcP1000	n/a	n/a	n/a	n/a
433.5580000000	n/a	433558	NegNonAlcP1000	n/a	n/a	n/a	n/a
442.7710000000	n/a	442771	PosStim	n/a	n/a	n/a	n/a
445.8710000000	n/a	445871	PosAlcP3000	n/a	n/a	n/a	n/a
448.8580000000	n/a	448858	PosAlcP3000	n/a	n/a	n/a	n/a
461.9870000000	n/a	461987	NeuStim	n/a	n/a	n/a	n/a
465.0870000000	n/a	465087	NeuAlcP3000	n/a	n/a	n/a	n/a
468.0740000000	n/a	468074	NeuAlcP3000	n/a	n/a	n/a	n/a
480.6040000000	n/a	480604	NegStim	n/a	n/a	n/a	n/a
483.6370000000	n/a	483637	NegAlcStimWithoutStartle	n/a	n/a	n/a	n/a
498.0210000000	n/a	498021	PosStim	n/a	n/a	n/a	n/a
501.1210000000	n/a	501121	PosNonAlcP2000	n/a	n/a	n/a	n/a
505.1080000000	n/a	505108	PosNonAlcP2000	n/a	n/a	n/a	n/a
516.0370000000	n/a	516037	NegStim	n/a	n/a	n/a	n/a
519.1370000000	n/a	519137	NegAlcP2000	n/a	n/a	n/a	n/a
523.1240000000	n/a	523124	NegAlcP2000	n/a	n/a	n/a	n/a
533.7540000000	n/a	533754	PosStim	n/a	n/a	n/a	n/a
536.8540000000	n/a	536854	PosAlcP2000	n/a	n/a	n/a	n/a
540.8410000000	n/a	540841	PosAlcP2000	n/a	n/a	n/a	n/a
552.3870000000	n/a	552387	NeuStim	n/a	n/a	n/a	n/a
555.4210000000	n/a	555421	NeuAlcStimWithoutStartle	n/a	n/a	n/a	n/a
571.0040000000	n/a	571004	NegStim	n/a	n/a	n/a	n/a
574.1040000000	n/a	574104	NegNonAlcP1000	n/a	n/a	n/a	n/a
579.0910000000	n/a	579091	NegNonAlcP1000	n/a	n/a	n/a	n/a
590.3370000000	n/a	590337	NeuStim	n/a	n/a	n/a	n/a
593.4370000000	n/a	593437	NeuNonAlcP1000	n/a	n/a	n/a	n/a
598.4240000000	n/a	598424	NeuNonAlcP1000	n/a	n/a	n/a	n/a
607.0210000000	n/a	607021	PosStim	n/a	n/a	n/a	n/a
610.1210000000	n/a	610121	PosNonAlcP3000	n/a	n/a	n/a	n/a
613.1080000000	n/a	613108	PosNonAlcP3000	n/a	n/a	n/a	n/a
626.4210000000	n/a	626421	NeuStim	n/a	n/a	n/a	n/a
629.4540000000	n/a	629454	NeuNonAlcStimWithoutStartle	n/a	n/a	n/a	n/a
646.1370000000	n/a	646137	NegStim	n/a	n/a	n/a	n/a
649.1700000000	n/a	649170	NegNonAlcStimWithoutStartle	n/a	n/a	n/a	n/a
662.8370000000	n/a	662837	NeuStim	n/a	n/a	n/a	n/a
665.9370000000	n/a	665937	NeuNonAlcP3000	n/a	n/a	n/a	n/a
668.9240000000	n/a	668924	NeuNonAlcP3000	n/a	n/a	n/a	n/a
680.5200000000	n/a	680520	PosStim	n/a	n/a	n/a	n/a
683.6200000000	n/a	683620	PosAlcP1000	n/a	n/a	n/a	n/a
688.6070000000	n/a	688607	PosAlcP1000	n/a	n/a	n/a	n/a
698.5700000000	n/a	698570	NegStim	n/a	n/a	n/a	n/a
701.6700000000	n/a	701670	NegNonAlcP1000	n/a	n/a	n/a	n/a
706.6570000000	n/a	706657	NegNonAlcP1000	n/a	n/a	n/a	n/a
716.3870000000	n/a	716387	PosStim	n/a	n/a	n/a	n/a
719.4200000000	n/a	719420	PosNonAlcStimWithoutStartle	n/a	n/a	n/a	n/a
735.9370000000	n/a	735937	NeuStim	n/a	n/a	n/a	n/a
739.0370000000	n/a	739037	NeuAlcP2000	n/a	n/a	n/a	n/a
743.0240000000	n/a	743024	NeuAlcP2000	n/a	n/a	n/a	n/a
753.3700000000	n/a	753370	PosStim	n/a	n/a	n/a	n/a
756.4700000000	n/a	756470	PosAlcP1000	n/a	n/a	n/a	n/a
761.4570000000	n/a	761457	PosAlcP1000	n/a	n/a	n/a	n/a
770.0370000000	n/a	770037	NegStim	n/a	n/a	n/a	n/a
773.0700000000	n/a	773070	NegNonAlcStimWithoutStartle	n/a	n/a	n/a	n/a
789.8870000000	n/a	789887	PosStim	n/a	n/a	n/a	n/a
792.9870000000	n/a	792987	PosNonAlcP2000	n/a	n/a	n/a	n/a
796.9740000000	n/a	796974	PosNonAlcP2000	n/a	n/a	n/a	n/a
806.4370000000	n/a	806437	NegStim	n/a	n/a	n/a	n/a
809.5370000000	n/a	809537	NegNonAlcP3000	n/a	n/a	n/a	n/a
812.5240000000	n/a	812524	NegNonAlcP3000	n/a	n/a	n/a	n/a
824.0200000000	n/a	824020	NeuStim	n/a	n/a	n/a	n/a
827.1200000000	n/a	827120	NeuNonAlcP2000	n/a	n/a	n/a	n/a
831.1070000000	n/a	831107	NeuNonAlcP2000	n/a	n/a	n/a	n/a
841.5540000000	n/a	841554	NegStim	n/a	n/a	n/a	n/a
844.5870000000	n/a	844587	NegAlcStimWithoutStartle	n/a	n/a	n/a	n/a
861.2700000000	n/a	861270	PosStim	n/a	n/a	n/a	n/a
864.3040000000	n/a	864304	PosAlcStimWithoutStartle	n/a	n/a	n/a	n/a
880.0540000000	n/a	880054	NeuStim	n/a	n/a	n/a	n/a
883.1530000000	n/a	883153	NeuAlcP3000	n/a	n/a	n/a	n/a
886.1410000000	n/a	886141	NeuAlcP3000	n/a	n/a	n/a	n/a
897.2530000000	n/a	897253	NegStim	n/a	n/a	n/a	n/a
900.3530000000	n/a	900353	NegNonAlcP1000	n/a	n/a	n/a	n/a
905.3400000000	n/a	905340	NegNonAlcP1000	n/a	n/a	n/a	n/a
915.0870000000	n/a	915087	NeuStim	n/a	n/a	n/a	n/a
918.1870000000	n/a	918187	NeuNonAlcP2000	n/a	n/a	n/a	n/a
922.1740000000	n/a	922174	NeuNonAlcP2000	n/a	n/a	n/a	n/a
931.2530000000	n/a	931253	PosStim	n/a	n/a	n/a	n/a
934.2870000000	n/a	934287	PosAlcStimWithoutStartle	n/a	n/a	n/a	n/a
948.4200000000	n/a	948420	NegStim	n/a	n/a	n/a	n/a
951.5200000000	n/a	951520	NegNonAlcP2000	n/a	n/a	n/a	n/a
955.5070000000	n/a	955507	NegNonAlcP2000	n/a	n/a	n/a	n/a
966.0370000000	n/a	966037	NeuStim	n/a	n/a	n/a	n/a
969.1370000000	n/a	969137	NeuAlcP1000	n/a	n/a	n/a	n/a
974.1240000000	n/a	974124	NeuAlcP1000	n/a	n/a	n/a	n/a
