onset	duration	sample	trial_type	response_time	stim_file	value	correct
3.1970000000	n/a	3197	FrequentFixedSOA	1633	n/a	n/a	1
4.8300000000	n/a	4830	FrequentFixedSOA	1633	n/a	n/a	1
6.4630000000	n/a	6463	FrequentFixedSOA	1633	n/a	n/a	1
8.0970000000	n/a	8097	FrequentFixedSOA	1633	n/a	n/a	1
9.7300000000	n/a	9730	FrequentFixedSOA	1633	n/a	n/a	1
11.3630000000	n/a	11363	FrequentFixedSOA	1633	n/a	n/a	1
12.9970000000	n/a	12997	FrequentFixedSOA	1633	n/a	n/a	1
14.6300000000	n/a	14630	FrequentFixedSOA	1633	n/a	n/a	1
16.2630000000	n/a	16263	FrequentFixedSOA	1633	n/a	n/a	1
17.8970000000	n/a	17897	FrequentFixedSOA	1633	n/a	n/a	1
19.5300000000	n/a	19530	NovelFixedSOA	1633	n/a	n/a	1
21.1630000000	n/a	21163	FrequentFixedSOA	1633	n/a	n/a	1
22.7970000000	n/a	22797	GoFixedSOA	441	n/a	n/a	1
24.4300000000	n/a	24430	FrequentFixedSOA	1633	n/a	n/a	1
26.0630000000	n/a	26063	FrequentFixedSOA	1633	n/a	n/a	1
27.6970000000	n/a	27697	FrequentFixedSOA	1633	n/a	n/a	1
29.3300000000	n/a	29330	GoFixedSOA	356	n/a	n/a	1
30.9630000000	n/a	30963	FrequentFixedSOA	1633	n/a	n/a	1
32.5970000000	n/a	32597	FrequentFixedSOA	1633	n/a	n/a	1
34.2300000000	n/a	34230	FrequentFixedSOA	1633	n/a	n/a	1
35.8630000000	n/a	35863	NovelFixedSOA	1633	n/a	n/a	1
37.4970000000	n/a	37497	FrequentFixedSOA	1633	n/a	n/a	1
39.1300000000	n/a	39130	FrequentFixedSOA	1633	n/a	n/a	1
40.7630000000	n/a	40763	FrequentFixedSOA	1633	n/a	n/a	1
42.3970000000	n/a	42397	GoFixedSOA	413	n/a	n/a	1
44.0300000000	n/a	44030	FrequentFixedSOA	1633	n/a	n/a	1
45.6630000000	n/a	45663	NovelFixedSOA	1633	n/a	n/a	1
47.2970000000	n/a	47297	FrequentFixedSOA	1633	n/a	n/a	1
48.9300000000	n/a	48930	FrequentFixedSOA	1633	n/a	n/a	1
50.5630000000	n/a	50563	FrequentFixedSOA	1633	n/a	n/a	1
52.1970000000	n/a	52197	GoFixedSOA	406	n/a	n/a	1
53.8300000000	n/a	53830	FrequentFixedSOA	1633	n/a	n/a	1
55.4630000000	n/a	55463	GoFixedSOA	485	n/a	n/a	1
57.0970000000	n/a	57097	FrequentFixedSOA	1633	n/a	n/a	1
58.7300000000	n/a	58730	FrequentFixedSOA	1633	n/a	n/a	1
60.3630000000	n/a	60363	GoFixedSOA	389	n/a	n/a	1
61.9970000000	n/a	61997	FrequentFixedSOA	1633	n/a	n/a	1
63.6300000000	n/a	63630	FrequentFixedSOA	1633	n/a	n/a	1
65.2630000000	n/a	65263	FrequentFixedSOA	1633	n/a	n/a	1
66.8970000000	n/a	66897	FrequentFixedSOA	1633	n/a	n/a	1
68.5300000000	n/a	68530	NovelFixedSOA	1633	n/a	n/a	1
70.1630000000	n/a	70163	FrequentFixedSOA	1633	n/a	n/a	1
71.7960000000	n/a	71796	NovelFixedSOA	1633	n/a	n/a	1
73.4300000000	n/a	73430	FrequentFixedSOA	1633	n/a	n/a	1
75.0630000000	n/a	75063	FrequentFixedSOA	1633	n/a	n/a	1
76.6960000000	n/a	76696	GoFixedSOA	480	n/a	n/a	1
78.3300000000	n/a	78330	FrequentFixedSOA	1633	n/a	n/a	1
79.9630000000	n/a	79963	FrequentFixedSOA	1633	n/a	n/a	1
81.5960000000	n/a	81596	FrequentFixedSOA	1633	n/a	n/a	1
83.2300000000	n/a	83230	FrequentFixedSOA	1633	n/a	n/a	1
84.8630000000	n/a	84863	NovelFixedSOA	1633	n/a	n/a	1
86.4960000000	n/a	86496	FrequentFixedSOA	1633	n/a	n/a	1
88.1300000000	n/a	88130	FrequentFixedSOA	1633	n/a	n/a	1
89.7630000000	n/a	89763	FrequentFixedSOA	1633	n/a	n/a	1
91.3960000000	n/a	91396	FrequentFixedSOA	1633	n/a	n/a	1
93.0300000000	n/a	93030	GoFixedSOA	432	n/a	n/a	1
94.6630000000	n/a	94663	FrequentFixedSOA	1633	n/a	n/a	1
96.2960000000	n/a	96296	FrequentFixedSOA	1633	n/a	n/a	1
97.9300000000	n/a	97930	NovelFixedSOA	1633	n/a	n/a	1
99.5630000000	n/a	99563	FrequentFixedSOA	1633	n/a	n/a	1
101.1960000000	n/a	101196	FrequentFixedSOA	1633	n/a	n/a	1
102.8300000000	n/a	102830	GoFixedSOA	412	n/a	n/a	1
104.4630000000	n/a	104463	FrequentFixedSOA	1633	n/a	n/a	1
106.0960000000	n/a	106096	FrequentFixedSOA	1633	n/a	n/a	1
107.7300000000	n/a	107730	FrequentFixedSOA	1633	n/a	n/a	1
109.3630000000	n/a	109363	FrequentFixedSOA	1633	n/a	n/a	1
110.9960000000	n/a	110996	NovelFixedSOA	1633	n/a	n/a	1
112.6300000000	n/a	112630	FrequentFixedSOA	1633	n/a	n/a	1
114.2630000000	n/a	114263	FrequentFixedSOA	1633	n/a	n/a	1
115.8960000000	n/a	115896	GoFixedSOA	382	n/a	n/a	1
117.5300000000	n/a	117530	FrequentVariableSOA	1750	n/a	n/a	1
119.2800000000	n/a	119280	FrequentVariableSOA	1783	n/a	n/a	1
121.0630000000	n/a	121063	FrequentVariableSOA	1750	n/a	n/a	1
122.8130000000	n/a	122813	FrequentVariableSOA	1600	n/a	n/a	1
124.4130000000	n/a	124413	FrequentVariableSOA	1650	n/a	n/a	1
126.0630000000	n/a	126063	FrequentVariableSOA	1700	n/a	n/a	1
127.7630000000	n/a	127763	FrequentVariableSOA	1516	n/a	n/a	1
129.2800000000	n/a	129280	FrequentVariableSOA	1750	n/a	n/a	1
131.0300000000	n/a	131030	FrequentVariableSOA	1683	n/a	n/a	1
132.7130000000	n/a	132713	FrequentVariableSOA	1733	n/a	n/a	1
134.4460000000	n/a	134446	NovelVariableSOA	1716	n/a	n/a	1
136.1630000000	n/a	136163	FrequentVariableSOA	1533	n/a	n/a	1
137.6960000000	n/a	137696	GoVariableSOA	453	n/a	n/a	1
139.3960000000	n/a	139396	FrequentVariableSOA	1633	n/a	n/a	1
141.0300000000	n/a	141030	FrequentVariableSOA	1766	n/a	n/a	1
142.7960000000	n/a	142796	FrequentVariableSOA	1566	n/a	n/a	1
144.3630000000	n/a	144363	GoVariableSOA	453	n/a	n/a	1
145.9630000000	n/a	145963	FrequentVariableSOA	1716	n/a	n/a	1
147.6800000000	n/a	147680	FrequentVariableSOA	1766	n/a	n/a	1
149.4460000000	n/a	149446	FrequentVariableSOA	1616	n/a	n/a	1
151.0630000000	n/a	151063	NovelVariableSOA	1600	n/a	n/a	1
152.6630000000	n/a	152663	FrequentVariableSOA	1700	n/a	n/a	1
154.3630000000	n/a	154363	FrequentVariableSOA	1583	n/a	n/a	1
155.9460000000	n/a	155946	FrequentVariableSOA	1583	n/a	n/a	1
157.5300000000	n/a	157530	GoVariableSOA	384	n/a	n/a	1
159.2300000000	n/a	159230	FrequentVariableSOA	1566	n/a	n/a	1
160.7960000000	n/a	160796	NovelVariableSOA	1766	n/a	n/a	1
162.5630000000	n/a	162563	FrequentVariableSOA	1700	n/a	n/a	1
164.2630000000	n/a	164263	FrequentVariableSOA	1716	n/a	n/a	1
165.9800000000	n/a	165980	FrequentVariableSOA	1766	n/a	n/a	1
167.7460000000	n/a	167746	GoVariableSOA	428	n/a	n/a	1
169.3630000000	n/a	169363	FrequentVariableSOA	1650	n/a	n/a	1
171.0130000000	n/a	171013	GoVariableSOA	415	n/a	n/a	1
172.6130000000	n/a	172613	FrequentVariableSOA	1533	n/a	n/a	1
174.1460000000	n/a	174146	FrequentVariableSOA	1566	n/a	n/a	1
175.7130000000	n/a	175713	GoVariableSOA	414	n/a	n/a	1
177.4130000000	n/a	177413	FrequentVariableSOA	1683	n/a	n/a	1
179.0960000000	n/a	179096	FrequentVariableSOA	1750	n/a	n/a	1
180.8460000000	n/a	180846	FrequentVariableSOA	1650	n/a	n/a	1
182.4960000000	n/a	182496	FrequentVariableSOA	1633	n/a	n/a	1
184.1300000000	n/a	184130	NovelVariableSOA	1600	n/a	n/a	1
185.7300000000	n/a	185730	FrequentVariableSOA	1783	n/a	n/a	1
187.5130000000	n/a	187513	NovelVariableSOA	1566	n/a	n/a	1
189.0800000000	n/a	189080	FrequentVariableSOA	1533	n/a	n/a	1
190.6130000000	n/a	190613	FrequentVariableSOA	1733	n/a	n/a	1
192.3460000000	n/a	192346	GoVariableSOA	423	n/a	n/a	1
194.1460000000	n/a	194146	FrequentVariableSOA	1750	n/a	n/a	1
195.8960000000	n/a	195896	FrequentVariableSOA	1650	n/a	n/a	1
197.5460000000	n/a	197546	FrequentVariableSOA	1750	n/a	n/a	1
199.2960000000	n/a	199296	FrequentVariableSOA	1700	n/a	n/a	1
200.9960000000	n/a	200996	NovelVariableSOA	1666	n/a	n/a	1
202.6630000000	n/a	202663	FrequentVariableSOA	1783	n/a	n/a	1
204.4460000000	n/a	204446	FrequentVariableSOA	1683	n/a	n/a	1
206.1300000000	n/a	206130	FrequentVariableSOA	1516	n/a	n/a	1
207.6460000000	n/a	207646	FrequentVariableSOA	1766	n/a	n/a	1
209.4130000000	n/a	209413	GoVariableSOA	352	n/a	n/a	1
211.0300000000	n/a	211030	FrequentVariableSOA	1666	n/a	n/a	1
212.6960000000	n/a	212696	FrequentVariableSOA	1733	n/a	n/a	1
214.4300000000	n/a	214430	NovelVariableSOA	1766	n/a	n/a	1
216.1960000000	n/a	216196	FrequentVariableSOA	1666	n/a	n/a	1
217.8630000000	n/a	217863	FrequentVariableSOA	1550	n/a	n/a	1
219.4130000000	n/a	219413	GoVariableSOA	402	n/a	n/a	1
221.1460000000	n/a	221146	FrequentVariableSOA	1750	n/a	n/a	1
222.8960000000	n/a	222896	FrequentVariableSOA	1566	n/a	n/a	1
224.4630000000	n/a	224463	FrequentVariableSOA	1800	n/a	n/a	1
226.2630000000	n/a	226263	FrequentVariableSOA	1633	n/a	n/a	1
227.8960000000	n/a	227896	NovelVariableSOA	1566	n/a	n/a	1
229.4630000000	n/a	229463	FrequentVariableSOA	1533	n/a	n/a	1
230.9960000000	n/a	230996	FrequentVariableSOA	1616	n/a	n/a	1
232.6130000000	n/a	232613	GoVariableSOA	424	n/a	n/a	1
234.1800000000	n/a	234180	FrequentFixedSOA	1633	n/a	n/a	1
235.8130000000	n/a	235813	FrequentFixedSOA	1633	n/a	n/a	1
237.4460000000	n/a	237446	FrequentFixedSOA	1633	n/a	n/a	1
239.0800000000	n/a	239080	GoFixedSOA	472	n/a	n/a	1
240.7130000000	n/a	240713	FrequentFixedSOA	1633	n/a	n/a	1
242.3460000000	n/a	242346	FrequentFixedSOA	1633	n/a	n/a	1
243.9800000000	n/a	243980	FrequentFixedSOA	1633	n/a	n/a	1
245.6130000000	n/a	245613	GoFixedSOA	455	n/a	n/a	1
247.2460000000	n/a	247246	FrequentFixedSOA	1633	n/a	n/a	1
248.8800000000	n/a	248880	FrequentFixedSOA	1633	n/a	n/a	1
250.5130000000	n/a	250513	FrequentFixedSOA	1633	n/a	n/a	1
252.1460000000	n/a	252146	NovelFixedSOA	1633	n/a	n/a	1
253.7800000000	n/a	253780	FrequentFixedSOA	1633	n/a	n/a	1
255.4130000000	n/a	255413	NovelFixedSOA	1633	n/a	n/a	1
257.0460000000	n/a	257046	FrequentFixedSOA	1633	n/a	n/a	1
258.6790000000	n/a	258679	FrequentFixedSOA	1633	n/a	n/a	1
260.3130000000	n/a	260313	NovelFixedSOA	1633	n/a	n/a	1
261.9460000000	n/a	261946	FrequentFixedSOA	1633	n/a	n/a	1
263.5790000000	n/a	263579	FrequentFixedSOA	1633	n/a	n/a	1
265.2130000000	n/a	265213	FrequentFixedSOA	1633	n/a	n/a	1
266.8460000000	n/a	266846	FrequentFixedSOA	1633	n/a	n/a	1
268.4790000000	n/a	268479	FrequentFixedSOA	1633	n/a	n/a	1
270.1130000000	n/a	270113	NovelFixedSOA	1633	n/a	n/a	1
271.7460000000	n/a	271746	FrequentFixedSOA	1633	n/a	n/a	1
273.3790000000	n/a	273379	FrequentFixedSOA	1633	n/a	n/a	1
275.0130000000	n/a	275013	FrequentFixedSOA	1633	n/a	n/a	1
276.6460000000	n/a	276646	FrequentFixedSOA	1633	n/a	n/a	1
278.2790000000	n/a	278279	FrequentFixedSOA	1633	n/a	n/a	1
279.9130000000	n/a	279913	GoFixedSOA	466	n/a	n/a	1
281.5460000000	n/a	281546	FrequentFixedSOA	1633	n/a	n/a	1
283.1790000000	n/a	283179	FrequentFixedSOA	1633	n/a	n/a	1
284.8130000000	n/a	284813	GoFixedSOA	388	n/a	n/a	1
286.4460000000	n/a	286446	FrequentFixedSOA	1633	n/a	n/a	1
288.0790000000	n/a	288079	NovelFixedSOA	1633	n/a	n/a	1
289.7130000000	n/a	289713	FrequentFixedSOA	1633	n/a	n/a	1
291.3460000000	n/a	291346	GoFixedSOA	400	n/a	n/a	1
292.9790000000	n/a	292979	FrequentFixedSOA	1633	n/a	n/a	1
294.6130000000	n/a	294613	GoFixedSOA	404	n/a	n/a	1
296.2460000000	n/a	296246	FrequentFixedSOA	1633	n/a	n/a	1
297.8790000000	n/a	297879	FrequentFixedSOA	1633	n/a	n/a	1
299.5130000000	n/a	299513	FrequentFixedSOA	1633	n/a	n/a	1
301.1460000000	n/a	301146	FrequentFixedSOA	1633	n/a	n/a	1
302.7790000000	n/a	302779	GoFixedSOA	486	n/a	n/a	1
304.4130000000	n/a	304413	FrequentFixedSOA	1633	n/a	n/a	1
306.0460000000	n/a	306046	FrequentFixedSOA	1633	n/a	n/a	1
307.6790000000	n/a	307679	FrequentFixedSOA	1633	n/a	n/a	1
309.3130000000	n/a	309313	NovelFixedSOA	1633	n/a	n/a	1
310.9460000000	n/a	310946	FrequentFixedSOA	1633	n/a	n/a	1
312.5790000000	n/a	312579	FrequentFixedSOA	1633	n/a	n/a	1
314.2130000000	n/a	314213	FrequentFixedSOA	1633	n/a	n/a	1
315.8460000000	n/a	315846	FrequentFixedSOA	1633	n/a	n/a	1
317.4790000000	n/a	317479	NovelFixedSOA	1633	n/a	n/a	1
319.1130000000	n/a	319113	FrequentFixedSOA	1633	n/a	n/a	1
320.7460000000	n/a	320746	FrequentFixedSOA	1633	n/a	n/a	1
322.3790000000	n/a	322379	FrequentFixedSOA	1633	n/a	n/a	1
324.0130000000	n/a	324013	FrequentFixedSOA	1633	n/a	n/a	1
325.6460000000	n/a	325646	NovelFixedSOA	1633	n/a	n/a	1
327.2790000000	n/a	327279	FrequentFixedSOA	1633	n/a	n/a	1
328.9130000000	n/a	328913	FrequentFixedSOA	1633	n/a	n/a	1
330.5460000000	n/a	330546	GoFixedSOA	402	n/a	n/a	1
332.1790000000	n/a	332179	FrequentFixedSOA	1633	n/a	n/a	1
333.8130000000	n/a	333813	FrequentFixedSOA	1633	n/a	n/a	1
335.4460000000	n/a	335446	FrequentFixedSOA	1633	n/a	n/a	1
337.0790000000	n/a	337079	FrequentFixedSOA	1633	n/a	n/a	1
338.7130000000	n/a	338713	NovelFixedSOA	1633	n/a	n/a	1
340.3460000000	n/a	340346	FrequentFixedSOA	1633	n/a	n/a	1
341.9790000000	n/a	341979	FrequentFixedSOA	1633	n/a	n/a	1
343.6130000000	n/a	343613	FrequentFixedSOA	1633	n/a	n/a	1
345.2460000000	n/a	345246	FrequentFixedSOA	1633	n/a	n/a	1
346.8790000000	n/a	346879	FrequentFixedSOA	1633	n/a	n/a	1
348.5130000000	n/a	348513	FrequentVariableSOA	1750	n/a	n/a	1
350.2630000000	n/a	350263	FrequentVariableSOA	1800	n/a	n/a	1
352.0630000000	n/a	352063	FrequentVariableSOA	1800	n/a	n/a	1
353.8630000000	n/a	353863	GoVariableSOA	637	n/a	n/a	1
355.3960000000	n/a	355396	FrequentVariableSOA	1750	n/a	n/a	1
357.1460000000	n/a	357146	FrequentVariableSOA	1500	n/a	n/a	1
358.6460000000	n/a	358646	FrequentVariableSOA	1633	n/a	n/a	1
360.2790000000	n/a	360279	GoVariableSOA	372	n/a	n/a	1
361.9130000000	n/a	361913	FrequentVariableSOA	1716	n/a	n/a	1
363.6290000000	n/a	363629	FrequentVariableSOA	710	n/a	n/a	0
365.1960000000	n/a	365196	FrequentVariableSOA	1583	n/a	n/a	1
366.7790000000	n/a	366779	NovelVariableSOA	1666	n/a	n/a	1
368.4460000000	n/a	368446	FrequentVariableSOA	1550	n/a	n/a	1
369.9960000000	n/a	369996	NovelVariableSOA	1700	n/a	n/a	1
371.6960000000	n/a	371696	FrequentVariableSOA	1783	n/a	n/a	1
373.4790000000	n/a	373479	FrequentVariableSOA	1683	n/a	n/a	1
375.1630000000	n/a	375163	NovelVariableSOA	1650	n/a	n/a	1
376.8130000000	n/a	376813	FrequentVariableSOA	1633	n/a	n/a	1
378.4460000000	n/a	378446	FrequentVariableSOA	1566	n/a	n/a	1
380.0130000000	n/a	380013	FrequentVariableSOA	1766	n/a	n/a	1
381.7790000000	n/a	381779	FrequentVariableSOA	1733	n/a	n/a	1
383.5130000000	n/a	383513	FrequentVariableSOA	1500	n/a	n/a	1
385.0130000000	n/a	385013	NovelVariableSOA	1700	n/a	n/a	1
386.7130000000	n/a	386713	FrequentVariableSOA	1500	n/a	n/a	1
388.2130000000	n/a	388213	FrequentVariableSOA	1600	n/a	n/a	1
389.8130000000	n/a	389813	FrequentVariableSOA	1550	n/a	n/a	1
391.3630000000	n/a	391363	FrequentVariableSOA	1666	n/a	n/a	1
393.0290000000	n/a	393029	FrequentVariableSOA	1733	n/a	n/a	1
394.7630000000	n/a	394763	GoVariableSOA	442	n/a	n/a	1
396.3960000000	n/a	396396	FrequentVariableSOA	1666	n/a	n/a	1
398.0630000000	n/a	398063	FrequentVariableSOA	1533	n/a	n/a	1
399.5960000000	n/a	399596	GoVariableSOA	399	n/a	n/a	1
401.2790000000	n/a	401279	FrequentVariableSOA	1633	n/a	n/a	1
402.9130000000	n/a	402913	NovelVariableSOA	1766	n/a	n/a	1
404.6790000000	n/a	404679	FrequentVariableSOA	1716	n/a	n/a	1
406.3960000000	n/a	406396	GoVariableSOA	444	n/a	n/a	1
408.1790000000	n/a	408179	FrequentVariableSOA	1633	n/a	n/a	1
409.8130000000	n/a	409813	GoVariableSOA	459	n/a	n/a	1
411.3960000000	n/a	411396	FrequentVariableSOA	1600	n/a	n/a	1
412.9960000000	n/a	412996	FrequentVariableSOA	1783	n/a	n/a	1
414.7790000000	n/a	414779	FrequentVariableSOA	1566	n/a	n/a	1
416.3460000000	n/a	416346	FrequentVariableSOA	1733	n/a	n/a	1
418.0790000000	n/a	418079	GoVariableSOA	403	n/a	n/a	1
419.6960000000	n/a	419696	FrequentVariableSOA	1600	n/a	n/a	1
421.2960000000	n/a	421296	FrequentVariableSOA	1500	n/a	n/a	1
422.7960000000	n/a	422796	FrequentVariableSOA	1716	n/a	n/a	1
424.5130000000	n/a	424513	NovelVariableSOA	1750	n/a	n/a	1
426.2630000000	n/a	426263	FrequentVariableSOA	1600	n/a	n/a	1
427.8630000000	n/a	427863	FrequentVariableSOA	1566	n/a	n/a	1
429.4290000000	n/a	429429	FrequentVariableSOA	1566	n/a	n/a	1
430.9960000000	n/a	430996	FrequentVariableSOA	1566	n/a	n/a	1
432.5630000000	n/a	432563	NovelVariableSOA	1766	n/a	n/a	1
434.3290000000	n/a	434329	FrequentVariableSOA	1683	n/a	n/a	1
436.0130000000	n/a	436013	FrequentVariableSOA	1600	n/a	n/a	1
437.6130000000	n/a	437613	FrequentVariableSOA	1700	n/a	n/a	1
439.3130000000	n/a	439313	FrequentVariableSOA	1716	n/a	n/a	1
441.0290000000	n/a	441029	NovelVariableSOA	1733	n/a	n/a	1
442.7630000000	n/a	442763	FrequentVariableSOA	1766	n/a	n/a	1
444.5290000000	n/a	444529	FrequentVariableSOA	1750	n/a	n/a	1
446.2790000000	n/a	446279	GoVariableSOA	394	n/a	n/a	1
447.8630000000	n/a	447863	FrequentVariableSOA	1783	n/a	n/a	1
449.6460000000	n/a	449646	FrequentVariableSOA	1700	n/a	n/a	1
451.3460000000	n/a	451346	FrequentVariableSOA	1600	n/a	n/a	1
452.9460000000	n/a	452946	FrequentVariableSOA	1600	n/a	n/a	1
454.5460000000	n/a	454546	NovelVariableSOA	1550	n/a	n/a	1
456.0960000000	n/a	456096	FrequentVariableSOA	1633	n/a	n/a	1
457.7290000000	n/a	457729	FrequentVariableSOA	1683	n/a	n/a	1
459.4120000000	n/a	459412	FrequentVariableSOA	1666	n/a	n/a	1
461.0790000000	n/a	461079	FrequentVariableSOA	1566	n/a	n/a	1
462.6460000000	n/a	462646	FrequentVariableSOA	1516	n/a	n/a	1
464.1620000000	n/a	464162	GoFixedSOA	1633	n/a	n/a	0
465.7960000000	n/a	465796	FrequentFixedSOA	1633	n/a	n/a	1
467.4290000000	n/a	467429	FrequentFixedSOA	1633	n/a	n/a	1
469.0620000000	n/a	469062	FrequentFixedSOA	1633	n/a	n/a	1
470.6960000000	n/a	470696	FrequentFixedSOA	1633	n/a	n/a	1
472.3290000000	n/a	472329	FrequentFixedSOA	1633	n/a	n/a	1
473.9620000000	n/a	473962	FrequentFixedSOA	1633	n/a	n/a	1
475.5960000000	n/a	475596	NovelFixedSOA	1633	n/a	n/a	1
477.2290000000	n/a	477229	FrequentFixedSOA	1633	n/a	n/a	1
478.8620000000	n/a	478862	FrequentFixedSOA	1633	n/a	n/a	1
480.4960000000	n/a	480496	FrequentFixedSOA	1633	n/a	n/a	1
482.1290000000	n/a	482129	NovelFixedSOA	1633	n/a	n/a	1
483.7620000000	n/a	483762	FrequentFixedSOA	1633	n/a	n/a	1
485.3960000000	n/a	485396	GoFixedSOA	417	n/a	n/a	1
487.0290000000	n/a	487029	FrequentFixedSOA	1633	n/a	n/a	1
488.6620000000	n/a	488662	FrequentFixedSOA	1633	n/a	n/a	1
490.2960000000	n/a	490296	GoFixedSOA	461	n/a	n/a	1
491.9290000000	n/a	491929	FrequentFixedSOA	1633	n/a	n/a	1
493.5620000000	n/a	493562	NovelFixedSOA	1633	n/a	n/a	1
495.1960000000	n/a	495196	FrequentFixedSOA	1633	n/a	n/a	1
496.8290000000	n/a	496829	FrequentFixedSOA	1633	n/a	n/a	1
498.4620000000	n/a	498462	FrequentFixedSOA	1633	n/a	n/a	1
500.0960000000	n/a	500096	FrequentFixedSOA	1633	n/a	n/a	1
501.7290000000	n/a	501729	FrequentFixedSOA	1633	n/a	n/a	1
503.3620000000	n/a	503362	GoFixedSOA	364	n/a	n/a	1
504.9960000000	n/a	504996	FrequentFixedSOA	1633	n/a	n/a	1
506.6290000000	n/a	506629	FrequentFixedSOA	1633	n/a	n/a	1
508.2620000000	n/a	508262	NovelFixedSOA	1633	n/a	n/a	1
509.8960000000	n/a	509896	FrequentFixedSOA	1633	n/a	n/a	1
511.5290000000	n/a	511529	FrequentFixedSOA	1633	n/a	n/a	1
513.1620000000	n/a	513162	FrequentFixedSOA	1633	n/a	n/a	1
514.7960000000	n/a	514796	FrequentFixedSOA	1633	n/a	n/a	1
516.4290000000	n/a	516429	FrequentFixedSOA	1633	n/a	n/a	1
518.0620000000	n/a	518062	NovelFixedSOA	1633	n/a	n/a	1
519.6960000000	n/a	519696	FrequentFixedSOA	1633	n/a	n/a	1
521.3290000000	n/a	521329	FrequentFixedSOA	1633	n/a	n/a	1
522.9620000000	n/a	522962	FrequentFixedSOA	1633	n/a	n/a	1
524.5960000000	n/a	524596	FrequentFixedSOA	1633	n/a	n/a	1
526.2290000000	n/a	526229	GoFixedSOA	449	n/a	n/a	1
527.8620000000	n/a	527862	FrequentFixedSOA	1633	n/a	n/a	1
529.4960000000	n/a	529496	FrequentFixedSOA	1633	n/a	n/a	1
531.1290000000	n/a	531129	NovelFixedSOA	1633	n/a	n/a	1
532.7620000000	n/a	532762	FrequentFixedSOA	1633	n/a	n/a	1
534.3960000000	n/a	534396	FrequentFixedSOA	1633	n/a	n/a	1
536.0290000000	n/a	536029	NovelFixedSOA	1633	n/a	n/a	1
537.6620000000	n/a	537662	FrequentFixedSOA	1633	n/a	n/a	1
539.2960000000	n/a	539296	FrequentFixedSOA	1633	n/a	n/a	1
540.9290000000	n/a	540929	FrequentFixedSOA	1633	n/a	n/a	1
542.5620000000	n/a	542562	FrequentFixedSOA	1633	n/a	n/a	1
544.1960000000	n/a	544196	FrequentFixedSOA	1633	n/a	n/a	1
545.8290000000	n/a	545829	GoFixedSOA	403	n/a	n/a	1
547.4620000000	n/a	547462	FrequentFixedSOA	1633	n/a	n/a	1
549.0960000000	n/a	549096	FrequentFixedSOA	1633	n/a	n/a	1
550.7290000000	n/a	550729	FrequentFixedSOA	1633	n/a	n/a	1
552.3620000000	n/a	552362	FrequentFixedSOA	1633	n/a	n/a	1
553.9960000000	n/a	553996	FrequentFixedSOA	1633	n/a	n/a	1
555.6290000000	n/a	555629	NovelFixedSOA	1633	n/a	n/a	1
557.2620000000	n/a	557262	FrequentFixedSOA	1633	n/a	n/a	1
558.8960000000	n/a	558896	GoFixedSOA	395	n/a	n/a	1
560.5290000000	n/a	560529	FrequentFixedSOA	1633	n/a	n/a	1
562.1620000000	n/a	562162	FrequentFixedSOA	1633	n/a	n/a	1
563.7960000000	n/a	563796	FrequentFixedSOA	1633	n/a	n/a	1
565.4290000000	n/a	565429	FrequentFixedSOA	1633	n/a	n/a	1
567.0620000000	n/a	567062	FrequentFixedSOA	1633	n/a	n/a	1
568.6960000000	n/a	568696	FrequentFixedSOA	1633	n/a	n/a	1
570.3290000000	n/a	570329	FrequentFixedSOA	1633	n/a	n/a	1
571.9620000000	n/a	571962	FrequentFixedSOA	1633	n/a	n/a	1
573.5960000000	n/a	573596	NovelFixedSOA	1633	n/a	n/a	1
575.2290000000	n/a	575229	FrequentFixedSOA	1633	n/a	n/a	1
576.8620000000	n/a	576862	FrequentFixedSOA	1633	n/a	n/a	1
578.4960000000	n/a	578496	GoVariableSOA	420	n/a	n/a	1
580.1620000000	n/a	580162	FrequentVariableSOA	1666	n/a	n/a	1
581.8290000000	n/a	581829	FrequentVariableSOA	1633	n/a	n/a	1
583.4620000000	n/a	583462	FrequentVariableSOA	1716	n/a	n/a	1
585.1790000000	n/a	585179	FrequentVariableSOA	1766	n/a	n/a	1
586.9460000000	n/a	586946	FrequentVariableSOA	1600	n/a	n/a	1
588.5460000000	n/a	588546	FrequentVariableSOA	1666	n/a	n/a	1
590.2120000000	n/a	590212	NovelVariableSOA	1516	n/a	n/a	1
591.7290000000	n/a	591729	FrequentVariableSOA	1533	n/a	n/a	1
593.2620000000	n/a	593262	FrequentVariableSOA	1516	n/a	n/a	1
594.7790000000	n/a	594779	FrequentVariableSOA	1750	n/a	n/a	1
596.5290000000	n/a	596529	NovelVariableSOA	1683	n/a	n/a	1
598.2120000000	n/a	598212	FrequentVariableSOA	1550	n/a	n/a	1
599.7620000000	n/a	599762	GoVariableSOA	462	n/a	n/a	1
601.4460000000	n/a	601446	FrequentVariableSOA	1666	n/a	n/a	1
603.1120000000	n/a	603112	FrequentVariableSOA	1600	n/a	n/a	1
604.7120000000	n/a	604712	GoVariableSOA	384	n/a	n/a	1
606.4790000000	n/a	606479	FrequentVariableSOA	1766	n/a	n/a	1
608.2460000000	n/a	608246	NovelVariableSOA	1733	n/a	n/a	1
609.9790000000	n/a	609979	FrequentVariableSOA	1783	n/a	n/a	1
611.7620000000	n/a	611762	FrequentVariableSOA	1616	n/a	n/a	1
613.3790000000	n/a	613379	FrequentVariableSOA	1583	n/a	n/a	1
614.9620000000	n/a	614962	FrequentVariableSOA	1700	n/a	n/a	1
616.6620000000	n/a	616662	FrequentVariableSOA	1633	n/a	n/a	1
618.2960000000	n/a	618296	GoVariableSOA	428	n/a	n/a	1
619.8290000000	n/a	619829	FrequentVariableSOA	1683	n/a	n/a	1
621.5120000000	n/a	621512	FrequentVariableSOA	1716	n/a	n/a	1
623.2290000000	n/a	623229	NovelVariableSOA	1550	n/a	n/a	1
624.7790000000	n/a	624779	FrequentVariableSOA	1683	n/a	n/a	1
626.4620000000	n/a	626462	FrequentVariableSOA	1583	n/a	n/a	1
628.0460000000	n/a	628046	FrequentVariableSOA	1600	n/a	n/a	1
629.6460000000	n/a	629646	FrequentVariableSOA	1750	n/a	n/a	1
631.3960000000	n/a	631396	FrequentVariableSOA	1650	n/a	n/a	1
633.0460000000	n/a	633046	NovelVariableSOA	1516	n/a	n/a	1
634.5620000000	n/a	634562	FrequentVariableSOA	1633	n/a	n/a	1
636.1960000000	n/a	636196	FrequentVariableSOA	1700	n/a	n/a	1
637.8960000000	n/a	637896	FrequentVariableSOA	1600	n/a	n/a	1
639.4950000000	n/a	639495	FrequentVariableSOA	1800	n/a	n/a	1
641.2950000000	n/a	641295	GoVariableSOA	422	n/a	n/a	1
642.9290000000	n/a	642929	FrequentVariableSOA	1766	n/a	n/a	1
644.6950000000	n/a	644695	FrequentVariableSOA	1783	n/a	n/a	1
646.4790000000	n/a	646479	NovelVariableSOA	1600	n/a	n/a	1
648.0790000000	n/a	648079	FrequentVariableSOA	1750	n/a	n/a	1
649.8290000000	n/a	649829	FrequentVariableSOA	1700	n/a	n/a	1
651.5290000000	n/a	651529	NovelVariableSOA	1616	n/a	n/a	1
653.1450000000	n/a	653145	FrequentVariableSOA	1783	n/a	n/a	1
654.9290000000	n/a	654929	FrequentVariableSOA	1750	n/a	n/a	1
656.6790000000	n/a	656679	FrequentVariableSOA	1616	n/a	n/a	1
658.2950000000	n/a	658295	FrequentVariableSOA	1650	n/a	n/a	1
659.9450000000	n/a	659945	FrequentVariableSOA	1516	n/a	n/a	1
661.4620000000	n/a	661462	GoVariableSOA	402	n/a	n/a	1
663.1290000000	n/a	663129	FrequentVariableSOA	1766	n/a	n/a	1
664.8950000000	n/a	664895	FrequentVariableSOA	1733	n/a	n/a	1
666.6290000000	n/a	666629	FrequentVariableSOA	1666	n/a	n/a	1
668.2950000000	n/a	668295	FrequentVariableSOA	1750	n/a	n/a	1
670.0450000000	n/a	670045	FrequentVariableSOA	1666	n/a	n/a	1
671.7120000000	n/a	671712	NovelVariableSOA	1750	n/a	n/a	1
673.4620000000	n/a	673462	FrequentVariableSOA	1633	n/a	n/a	1
675.0950000000	n/a	675095	GoVariableSOA	398	n/a	n/a	1
676.6950000000	n/a	676695	FrequentVariableSOA	1650	n/a	n/a	1
678.3450000000	n/a	678345	FrequentVariableSOA	1683	n/a	n/a	1
680.0290000000	n/a	680029	FrequentVariableSOA	1716	n/a	n/a	1
681.7450000000	n/a	681745	FrequentVariableSOA	1533	n/a	n/a	1
683.2790000000	n/a	683279	FrequentVariableSOA	1733	n/a	n/a	1
685.0120000000	n/a	685012	FrequentVariableSOA	1550	n/a	n/a	1
686.5620000000	n/a	686562	FrequentVariableSOA	1783	n/a	n/a	1
688.3450000000	n/a	688345	FrequentVariableSOA	1700	n/a	n/a	1
690.0450000000	n/a	690045	NovelVariableSOA	1550	n/a	n/a	1
691.5950000000	n/a	691595	FrequentVariableSOA	1550	n/a	n/a	1
693.1450000000	n/a	693145	FrequentVariableSOA	1550	n/a	n/a	1
694.6950000000	n/a	694695	GoFixedSOA	378	n/a	n/a	1
696.3290000000	n/a	696329	FrequentFixedSOA	1633	n/a	n/a	1
697.9620000000	n/a	697962	FrequentFixedSOA	1633	n/a	n/a	1
699.5950000000	n/a	699595	FrequentFixedSOA	1633	n/a	n/a	1
701.2290000000	n/a	701229	GoFixedSOA	443	n/a	n/a	1
702.8620000000	n/a	702862	FrequentFixedSOA	1633	n/a	n/a	1
704.4950000000	n/a	704495	FrequentFixedSOA	1633	n/a	n/a	1
706.1290000000	n/a	706129	FrequentFixedSOA	1633	n/a	n/a	1
707.7620000000	n/a	707762	FrequentFixedSOA	1633	n/a	n/a	1
709.3950000000	n/a	709395	GoFixedSOA	383	n/a	n/a	1
711.0290000000	n/a	711029	FrequentFixedSOA	1633	n/a	n/a	1
712.6620000000	n/a	712662	FrequentFixedSOA	1633	n/a	n/a	1
714.2950000000	n/a	714295	NovelFixedSOA	1633	n/a	n/a	1
715.9290000000	n/a	715929	FrequentFixedSOA	1633	n/a	n/a	1
717.5620000000	n/a	717562	FrequentFixedSOA	1633	n/a	n/a	1
719.1950000000	n/a	719195	GoFixedSOA	408	n/a	n/a	1
720.8290000000	n/a	720829	FrequentFixedSOA	1633	n/a	n/a	1
722.4620000000	n/a	722462	FrequentFixedSOA	1633	n/a	n/a	1
724.0950000000	n/a	724095	FrequentFixedSOA	1633	n/a	n/a	1
725.7290000000	n/a	725729	NovelFixedSOA	1633	n/a	n/a	1
727.3620000000	n/a	727362	FrequentFixedSOA	1633	n/a	n/a	1
728.9950000000	n/a	728995	NovelFixedSOA	1633	n/a	n/a	1
730.6290000000	n/a	730629	FrequentFixedSOA	1633	n/a	n/a	1
732.2620000000	n/a	732262	FrequentFixedSOA	1633	n/a	n/a	1
733.8950000000	n/a	733895	FrequentFixedSOA	1633	n/a	n/a	1
735.5290000000	n/a	735529	GoFixedSOA	463	n/a	n/a	1
737.1620000000	n/a	737162	FrequentFixedSOA	1633	n/a	n/a	1
738.7950000000	n/a	738795	FrequentFixedSOA	1633	n/a	n/a	1
740.4290000000	n/a	740429	FrequentFixedSOA	1633	n/a	n/a	1
742.0620000000	n/a	742062	GoFixedSOA	424	n/a	n/a	1
743.6950000000	n/a	743695	FrequentFixedSOA	1633	n/a	n/a	1
745.3290000000	n/a	745329	FrequentFixedSOA	1633	n/a	n/a	1
746.9620000000	n/a	746962	NovelFixedSOA	1633	n/a	n/a	1
748.5950000000	n/a	748595	FrequentFixedSOA	1633	n/a	n/a	1
750.2290000000	n/a	750229	GoFixedSOA	400	n/a	n/a	1
751.8620000000	n/a	751862	FrequentFixedSOA	1633	n/a	n/a	1
753.4950000000	n/a	753495	FrequentFixedSOA	1633	n/a	n/a	1
755.1290000000	n/a	755129	FrequentFixedSOA	1633	n/a	n/a	1
756.7620000000	n/a	756762	FrequentFixedSOA	1633	n/a	n/a	1
758.3950000000	n/a	758395	FrequentFixedSOA	1633	n/a	n/a	1
760.0290000000	n/a	760029	FrequentFixedSOA	1633	n/a	n/a	1
761.6620000000	n/a	761662	NovelFixedSOA	1633	n/a	n/a	1
763.2950000000	n/a	763295	FrequentFixedSOA	1633	n/a	n/a	1
764.9290000000	n/a	764929	FrequentFixedSOA	1633	n/a	n/a	1
766.5620000000	n/a	766562	FrequentFixedSOA	1633	n/a	n/a	1
768.1950000000	n/a	768195	GoFixedSOA	457	n/a	n/a	1
769.8290000000	n/a	769829	FrequentFixedSOA	1633	n/a	n/a	1
771.4620000000	n/a	771462	FrequentFixedSOA	1633	n/a	n/a	1
773.0950000000	n/a	773095	FrequentFixedSOA	1633	n/a	n/a	1
774.7290000000	n/a	774729	FrequentFixedSOA	1633	n/a	n/a	1
776.3620000000	n/a	776362	NovelFixedSOA	1633	n/a	n/a	1
777.9950000000	n/a	777995	FrequentFixedSOA	1633	n/a	n/a	1
779.6290000000	n/a	779629	FrequentFixedSOA	1633	n/a	n/a	1
781.2620000000	n/a	781262	NovelFixedSOA	1633	n/a	n/a	1
782.8950000000	n/a	782895	FrequentFixedSOA	1633	n/a	n/a	1
784.5290000000	n/a	784529	NovelFixedSOA	1633	n/a	n/a	1
786.1620000000	n/a	786162	FrequentFixedSOA	1633	n/a	n/a	1
787.7950000000	n/a	787795	FrequentFixedSOA	1633	n/a	n/a	1
789.4290000000	n/a	789429	FrequentFixedSOA	1633	n/a	n/a	1
791.0620000000	n/a	791062	FrequentFixedSOA	1633	n/a	n/a	1
792.6950000000	n/a	792695	FrequentFixedSOA	1633	n/a	n/a	1
794.3290000000	n/a	794329	FrequentFixedSOA	1633	n/a	n/a	1
795.9620000000	n/a	795962	FrequentFixedSOA	1633	n/a	n/a	1
797.5950000000	n/a	797595	GoFixedSOA	431	n/a	n/a	1
799.2290000000	n/a	799229	FrequentFixedSOA	1633	n/a	n/a	1
800.8620000000	n/a	800862	GoFixedSOA	416	n/a	n/a	1
802.4950000000	n/a	802495	FrequentFixedSOA	1633	n/a	n/a	1
804.1290000000	n/a	804129	FrequentFixedSOA	1633	n/a	n/a	1
805.7620000000	n/a	805762	NovelFixedSOA	1633	n/a	n/a	1
807.3950000000	n/a	807395	FrequentFixedSOA	1633	n/a	n/a	1
809.0290000000	n/a	809029	GoVariableSOA	412	n/a	n/a	1
810.6790000000	n/a	810679	FrequentVariableSOA	1566	n/a	n/a	1
812.2450000000	n/a	812245	FrequentVariableSOA	1783	n/a	n/a	1
814.0290000000	n/a	814029	FrequentVariableSOA	1683	n/a	n/a	1
815.7120000000	n/a	815712	GoVariableSOA	405	n/a	n/a	1
817.2790000000	n/a	817279	FrequentVariableSOA	1600	n/a	n/a	1
818.8790000000	n/a	818879	FrequentVariableSOA	1566	n/a	n/a	1
820.4450000000	n/a	820445	FrequentVariableSOA	1550	n/a	n/a	1
821.9950000000	n/a	821995	FrequentVariableSOA	1783	n/a	n/a	1
823.7790000000	n/a	823779	GoVariableSOA	374	n/a	n/a	1
825.3790000000	n/a	825379	FrequentVariableSOA	1566	n/a	n/a	1
826.9450000000	n/a	826945	FrequentVariableSOA	1716	n/a	n/a	1
828.6620000000	n/a	828662	NovelVariableSOA	1783	n/a	n/a	1
830.4450000000	n/a	830445	FrequentVariableSOA	1583	n/a	n/a	1
832.0290000000	n/a	832029	FrequentVariableSOA	1616	n/a	n/a	1
833.6450000000	n/a	833645	GoVariableSOA	428	n/a	n/a	1
835.4290000000	n/a	835429	FrequentVariableSOA	1766	n/a	n/a	1
837.1950000000	n/a	837195	FrequentVariableSOA	1516	n/a	n/a	1
838.7120000000	n/a	838712	FrequentVariableSOA	1600	n/a	n/a	1
840.3120000000	n/a	840312	NovelVariableSOA	1700	n/a	n/a	1
842.0120000000	n/a	842012	FrequentVariableSOA	1766	n/a	n/a	1
843.7780000000	n/a	843778	NovelVariableSOA	1766	n/a	n/a	1
845.5450000000	n/a	845545	FrequentVariableSOA	1600	n/a	n/a	1
847.1450000000	n/a	847145	FrequentVariableSOA	1750	n/a	n/a	1
848.8950000000	n/a	848895	FrequentVariableSOA	1550	n/a	n/a	1
850.4450000000	n/a	850445	GoVariableSOA	400	n/a	n/a	1
852.1120000000	n/a	852112	FrequentVariableSOA	1750	n/a	n/a	1
853.8620000000	n/a	853862	FrequentVariableSOA	1700	n/a	n/a	1
855.5620000000	n/a	855562	FrequentVariableSOA	1600	n/a	n/a	1
857.1620000000	n/a	857162	GoVariableSOA	375	n/a	n/a	1
858.9120000000	n/a	858912	FrequentVariableSOA	1750	n/a	n/a	1
860.6620000000	n/a	860662	FrequentVariableSOA	1516	n/a	n/a	1
862.1780000000	n/a	862178	NovelVariableSOA	1683	n/a	n/a	1
863.8620000000	n/a	863862	FrequentVariableSOA	1600	n/a	n/a	1
865.4620000000	n/a	865462	GoVariableSOA	421	n/a	n/a	1
867.0120000000	n/a	867012	FrequentVariableSOA	1516	n/a	n/a	1
868.5280000000	n/a	868528	FrequentVariableSOA	1733	n/a	n/a	1
870.2620000000	n/a	870262	FrequentVariableSOA	1666	n/a	n/a	1
871.9280000000	n/a	871928	FrequentVariableSOA	1800	n/a	n/a	1
873.7280000000	n/a	873728	FrequentVariableSOA	1766	n/a	n/a	1
875.4950000000	n/a	875495	FrequentVariableSOA	1650	n/a	n/a	1
877.1450000000	n/a	877145	NovelVariableSOA	1700	n/a	n/a	1
878.8450000000	n/a	878845	FrequentVariableSOA	1766	n/a	n/a	1
880.6120000000	n/a	880612	FrequentVariableSOA	1550	n/a	n/a	1
882.1620000000	n/a	882162	FrequentVariableSOA	1666	n/a	n/a	1
883.8280000000	n/a	883828	GoVariableSOA	1750	n/a	n/a	0
885.5780000000	n/a	885578	FrequentVariableSOA	1666	n/a	n/a	1
887.2450000000	n/a	887245	FrequentVariableSOA	1716	n/a	n/a	1
888.9620000000	n/a	888962	FrequentVariableSOA	1583	n/a	n/a	1
890.5450000000	n/a	890545	FrequentVariableSOA	1716	n/a	n/a	1
892.2620000000	n/a	892262	NovelVariableSOA	1733	n/a	n/a	1
893.9950000000	n/a	893995	FrequentVariableSOA	1716	n/a	n/a	1
895.7120000000	n/a	895712	FrequentVariableSOA	1500	n/a	n/a	1
897.2120000000	n/a	897212	NovelVariableSOA	1766	n/a	n/a	1
898.9780000000	n/a	898978	FrequentVariableSOA	1666	n/a	n/a	1
900.6450000000	n/a	900645	NovelVariableSOA	1733	n/a	n/a	1
902.3780000000	n/a	902378	FrequentVariableSOA	1533	n/a	n/a	1
903.9120000000	n/a	903912	FrequentVariableSOA	1600	n/a	n/a	1
905.5120000000	n/a	905512	FrequentVariableSOA	1550	n/a	n/a	1
907.0620000000	n/a	907062	FrequentVariableSOA	1583	n/a	n/a	1
908.6450000000	n/a	908645	FrequentVariableSOA	1600	n/a	n/a	1
910.2450000000	n/a	910245	FrequentVariableSOA	1600	n/a	n/a	1
911.8450000000	n/a	911845	FrequentVariableSOA	1666	n/a	n/a	1
913.5120000000	n/a	913512	GoVariableSOA	462	n/a	n/a	1
915.2780000000	n/a	915278	FrequentVariableSOA	1766	n/a	n/a	1
917.0450000000	n/a	917045	GoVariableSOA	462	n/a	n/a	1
918.6280000000	n/a	918628	FrequentVariableSOA	1500	n/a	n/a	1
920.1280000000	n/a	920128	FrequentVariableSOA	1683	n/a	n/a	1
921.8120000000	n/a	921812	NovelVariableSOA	1783	n/a	n/a	1
923.5950000000	n/a	923595	FrequentVariableSOA	1616	n/a	n/a	1
