onset	duration	sample	trial_type	response_time	stim_file	value	correct
6.2980000000	n/a	6298	ignore	7846	n/a	n/a	0
15.2150000000	n/a	15215	ignore	1000	n/a	n/a	1
17.2150000000	n/a	17215	ignore	1700	n/a	n/a	1
18.9150000000	n/a	18915	ignore	1067	n/a	n/a	0
21.0480000000	n/a	21048	ignore	1000	n/a	n/a	1
23.0480000000	n/a	23048	ignore	1700	n/a	n/a	1
24.7480000000	n/a	24748	ignore	2785	n/a	n/a	0
28.5980000000	n/a	28598	ignore	1000	n/a	n/a	1
30.5980000000	n/a	30598	ignore	1700	n/a	n/a	1
32.2980000000	n/a	32298	ignore	1293	n/a	n/a	1
34.6650000000	n/a	34665	ignore	1000	n/a	n/a	1
36.6650000000	n/a	36665	ignore	1700	n/a	n/a	1
38.3650000000	n/a	38365	ignore	3346	n/a	n/a	0
42.7810000000	n/a	42781	ignore	1000	n/a	n/a	1
44.7810000000	n/a	44781	ignore	1700	n/a	n/a	1
46.4810000000	n/a	46481	ignore	3548	n/a	n/a	1
51.0980000000	n/a	51098	ignore	1000	n/a	n/a	1
53.0980000000	n/a	53098	ignore	1700	n/a	n/a	1
54.7980000000	n/a	54798	ignore	6555	n/a	n/a	0
62.4310000000	n/a	62431	ignore	1000	n/a	n/a	1
64.4310000000	n/a	64431	ignore	1700	n/a	n/a	1
66.1310000000	n/a	66131	ignore	3847	n/a	n/a	0
71.0480000000	n/a	71048	ignore	1000	n/a	n/a	1
73.0480000000	n/a	73048	ignore	1700	n/a	n/a	1
74.7480000000	n/a	74748	ignore	5220	n/a	n/a	0
80.0310000000	n/a	80031	STATUS	2000	n/a	n/a	1
89.5650000000	n/a	89565	ignore	1000	n/a	n/a	1
91.5650000000	n/a	91565	ignore	1700	n/a	n/a	1
93.2650000000	n/a	93265	ignore	1324	n/a	n/a	1
95.6650000000	n/a	95665	ignore	1000	n/a	n/a	1
97.6650000000	n/a	97665	ignore	1700	n/a	n/a	1
99.3650000000	n/a	99365	ignore	2628	n/a	n/a	1
103.0650000000	n/a	103065	ignore	1000	n/a	n/a	1
105.0650000000	n/a	105065	ignore	1700	n/a	n/a	1
106.7650000000	n/a	106765	ignore	5249	n/a	n/a	1
113.0810000000	n/a	113081	ignore	1000	n/a	n/a	1
115.0810000000	n/a	115081	ignore	1700	n/a	n/a	1
116.7810000000	n/a	116781	ignore	1521	n/a	n/a	1
119.3650000000	n/a	119365	ignore	1000	n/a	n/a	1
121.3650000000	n/a	121365	ignore	1700	n/a	n/a	1
123.0650000000	n/a	123065	ignore	628	n/a	n/a	0
124.7650000000	n/a	124765	ignore	1000	n/a	n/a	1
126.7650000000	n/a	126765	ignore	1700	n/a	n/a	1
128.4650000000	n/a	128465	ignore	6263	n/a	n/a	1
135.7980000000	n/a	135798	ignore	1000	n/a	n/a	1
137.7980000000	n/a	137798	ignore	1700	n/a	n/a	1
139.4980000000	n/a	139498	ignore	2207	n/a	n/a	1
142.7810000000	n/a	142781	ignore	1000	n/a	n/a	1
144.7810000000	n/a	144781	ignore	1700	n/a	n/a	1
146.4810000000	n/a	146481	ignore	4350	n/a	n/a	1
150.8980000000	n/a	150898	ignore 	2000	n/a	n/a	1
189.5140000000	n/a	189514	PenaltyB1	2628	n/a	n/a	0
193.2140000000	n/a	193214	PunIncorrB1	1000	n/a	n/a	1
195.2150000000	n/a	195215	ignore	1700	n/a	n/a	1
196.9140000000	n/a	196914	PenaltyB1	2379	n/a	n/a	1
200.3640000000	n/a	200364	NeuCorrB1	1000	n/a	n/a	1
202.3650000000	n/a	202365	ignore	1700	n/a	n/a	1
204.0640000000	n/a	204064	PenaltyB1	1302	n/a	n/a	1
206.4310000000	n/a	206431	NeuCorrB1	1000	n/a	n/a	1
208.4310000000	n/a	208431	ignore	1700	n/a	n/a	1
210.1310000000	n/a	210131	RewardB1	2424	n/a	n/a	1
213.6310000000	n/a	213631	RewardCorrB1	1000	n/a	n/a	1
215.6310000000	n/a	215631	ignore	1700	n/a	n/a	1
217.3310000000	n/a	217331	RewardB1	1361	n/a	n/a	0
219.7640000000	n/a	219764	NeuIncorrB1	1000	n/a	n/a	1
221.7640000000	n/a	221764	ignore	1700	n/a	n/a	1
223.4640000000	n/a	223464	PenaltyB1	2114	n/a	n/a	1
226.6480000000	n/a	226648	NeuCorrB1	1000	n/a	n/a	1
228.6480000000	n/a	228648	ignore	1700	n/a	n/a	1
230.3480000000	n/a	230348	PenaltyB1	2354	n/a	n/a	1
233.7640000000	n/a	233764	NeuCorrB1	1000	n/a	n/a	1
235.7640000000	n/a	235764	ignore	1700	n/a	n/a	1
237.4640000000	n/a	237464	PenaltyB1	1615	n/a	n/a	0
240.1480000000	n/a	240148	PunIncorrB1	1000	n/a	n/a	1
242.1480000000	n/a	242148	ignore	1700	n/a	n/a	1
243.8480000000	n/a	243848	PenaltyB1	1391	n/a	n/a	1
246.3140000000	n/a	246314	PunCorrB1	1000	n/a	n/a	1
248.3140000000	n/a	248314	STATUS	1700	n/a	n/a	1
250.0140000000	n/a	250014	RewardB1	1016	n/a	n/a	0
252.0980000000	n/a	252098	NeuIncorrB1	1000	n/a	n/a	1
254.0980000000	n/a	254098	STATUS	1700	n/a	n/a	1
255.7980000000	n/a	255798	PenaltyB1	1332	n/a	n/a	1
258.1980000000	n/a	258198	NeuCorrB1	1000	n/a	n/a	1
260.1980000000	n/a	260198	STATUS	1700	n/a	n/a	1
261.8980000000	n/a	261898	RewardB1	2538	n/a	n/a	1
265.5140000000	n/a	265514	NeuCorrB1	1000	n/a	n/a	1
267.5140000000	n/a	267514	STATUS	1700	n/a	n/a	1
269.2140000000	n/a	269214	PenaltyB1	1104	n/a	n/a	1
271.3810000000	n/a	271381	NeuCorrB1	1000	n/a	n/a	1
273.3810000000	n/a	273381	STATUS	1700	n/a	n/a	1
275.0810000000	n/a	275081	RewardB1	947	n/a	n/a	1
277.0980000000	n/a	277098	RewardCorrB1	1000	n/a	n/a	1
279.0980000000	n/a	279098	ignore	1700	n/a	n/a	1
280.7980000000	n/a	280798	PenaltyB1	650	n/a	n/a	1
282.5140000000	n/a	282514	NeuCorrB1	1000	n/a	n/a	1
284.5140000000	n/a	284514	ignore	1700	n/a	n/a	1
286.2140000000	n/a	286214	PenaltyB1	1663	n/a	n/a	1
288.9480000000	n/a	288948	NeuCorrB1	1000	n/a	n/a	1
290.9480000000	n/a	290948	ignore	1700	n/a	n/a	1
292.6480000000	n/a	292648	RewardB1	1015	n/a	n/a	1
294.7310000000	n/a	294731	NeuCorrB1	1000	n/a	n/a	1
296.7310000000	n/a	296731	ignore	1700	n/a	n/a	1
298.4310000000	n/a	298431	PenaltyB1	869	n/a	n/a	1
300.3640000000	n/a	300364	NeuCorrB1	1000	n/a	n/a	1
302.3640000000	n/a	302364	ignore	1700	n/a	n/a	1
304.0640000000	n/a	304064	RewardB1	783	n/a	n/a	1
305.9140000000	n/a	305914	RewardCorrB1	1000	n/a	n/a	1
307.9140000000	n/a	307914	ignore	1700	n/a	n/a	1
309.6140000000	n/a	309614	RewardB1	505	n/a	n/a	1
311.1810000000	n/a	311181	RewardCorrB1	1000	n/a	n/a	1
313.1810000000	n/a	313181	ignore	1700	n/a	n/a	1
314.8810000000	n/a	314881	RewardB1	3596	n/a	n/a	1
319.5480000000	n/a	319548	NeuCorrB1	1000	n/a	n/a	1
321.5480000000	n/a	321548	ignore	1700	n/a	n/a	1
323.2480000000	n/a	323248	RewardB1	1261	n/a	n/a	0
325.5810000000	n/a	325581	NeuIncorrB1	1000	n/a	n/a	1
327.5810000000	n/a	327581	ignore	1700	n/a	n/a	1
329.2810000000	n/a	329281	RewardB1	549	n/a	n/a	1
330.8980000000	n/a	330898	RewardCorrB1	1000	n/a	n/a	1
332.8980000000	n/a	332898	ignore	1700	n/a	n/a	1
334.5980000000	n/a	334598	PenaltyB1	931	n/a	n/a	1
336.5980000000	n/a	336598	NeuCorrB1	1000	n/a	n/a	1
338.5980000000	n/a	338598	ignore	1700	n/a	n/a	1
340.2980000000	n/a	340298	RewardB1	1231	n/a	n/a	0
342.5980000000	n/a	342598	NeuIncorrB1	1000	n/a	n/a	1
344.5980000000	n/a	344598	ignore	1700	n/a	n/a	1
346.2980000000	n/a	346298	PenaltyB1	1146	n/a	n/a	1
348.5140000000	n/a	348514	PunCorrB1	1000	n/a	n/a	1
350.5140000000	n/a	350514	ignore	1700	n/a	n/a	1
352.2140000000	n/a	352214	RewardB1	1663	n/a	n/a	0
354.9470000000	n/a	354947	NeuIncorrB1	1000	n/a	n/a	1
356.9480000000	n/a	356948	ignore	1700	n/a	n/a	1
358.6470000000	n/a	358647	RewardB1	626	n/a	n/a	1
360.3470000000	n/a	360347	RewardCorrB1	1000	n/a	n/a	1
362.3480000000	n/a	362348	ignore	1700	n/a	n/a	1
364.0470000000	n/a	364047	RewardB1	728	n/a	n/a	1
365.8470000000	n/a	365847	RewardCorrB1	1000	n/a	n/a	1
367.8480000000	n/a	367848	ignore	1700	n/a	n/a	1
369.5470000000	n/a	369547	PenaltyB1	834	n/a	n/a	0
371.4470000000	n/a	371447	PunIncorrB1	1000	n/a	n/a	1
373.4480000000	n/a	373448	ignore	1700	n/a	n/a	1
375.1470000000	n/a	375147	RewardB1	1089	n/a	n/a	1
377.3140000000	n/a	377314	NeuCorrB1	1000	n/a	n/a	1
379.3140000000	n/a	379314	ignore	1700	n/a	n/a	1
381.0140000000	n/a	381014	PenaltyB1	582	n/a	n/a	1
382.6640000000	n/a	382664	NeuCorrB1	1000	n/a	n/a	1
384.6640000000	n/a	384664	ignore	1700	n/a	n/a	1
386.3640000000	n/a	386364	RewardB1	419	n/a	n/a	1
387.8470000000	n/a	387847	RewardCorrB1	1000	n/a	n/a	1
389.8470000000	n/a	389847	ignore	1700	n/a	n/a	1
391.5470000000	n/a	391547	PenaltyB1	2679	n/a	n/a	0
395.2970000000	n/a	395297	NeuIncorrB1	1000	n/a	n/a	1
397.2970000000	n/a	397297	ignore	1700	n/a	n/a	1
398.9970000000	n/a	398997	RewardB1	1568	n/a	n/a	1
401.6310000000	n/a	401631	RewardCorrB1	1000	n/a	n/a	1
403.6310000000	n/a	403631	ignore	1700	n/a	n/a	1
405.3310000000	n/a	405331	PenaltyB1	770	n/a	n/a	0
407.1640000000	n/a	407164	PunIncorrB1	1000	n/a	n/a	1
409.1640000000	n/a	409164	ignore	1700	n/a	n/a	1
410.8640000000	n/a	410864	PenaltyB1	626	n/a	n/a	1
412.5640000000	n/a	412564	NeuCorrB1	1000	n/a	n/a	1
414.5640000000	n/a	414564	ignore	1700	n/a	n/a	1
416.2640000000	n/a	416264	RewardB1	1035	n/a	n/a	1
418.3640000000	n/a	418364	RewardCorrB1	1000	n/a	n/a	1
420.3640000000	n/a	420364	ignore	1700	n/a	n/a	1
422.0640000000	n/a	422064	PenaltyB1	686	n/a	n/a	1
423.8140000000	n/a	423814	PunCorrB1	1000	n/a	n/a	1
425.8140000000	n/a	425814	ignore	1700	n/a	n/a	1
427.5140000000	n/a	427514	RewardB1	766	n/a	n/a	1
429.3470000000	n/a	429347	RewardCorrB1	1000	n/a	n/a	1
431.3470000000	n/a	431347	ignore	1700	n/a	n/a	1
434.3640000000	n/a	434364	RewardB2	849	n/a	n/a	1
436.2810000000	n/a	436281	RewardCorrB2	1000	n/a	n/a	1
438.2810000000	n/a	438281	ignore	1700	n/a	n/a	1
439.9810000000	n/a	439981	PenaltyB2	3267	n/a	n/a	1
444.3140000000	n/a	444314	NeuCorrB2	1000	n/a	n/a	1
446.3140000000	n/a	446314	ignore	1700	n/a	n/a	1
448.0140000000	n/a	448014	RewardB2	489	n/a	n/a	1
449.5810000000	n/a	449581	RewardCorrB2	1000	n/a	n/a	1
451.5810000000	n/a	451581	ignore	1700	n/a	n/a	1
453.2810000000	n/a	453281	RewardB2	1026	n/a	n/a	1
455.3810000000	n/a	455381	NeuCorrB2	1000	n/a	n/a	1
457.3810000000	n/a	457381	ignore	1700	n/a	n/a	1
459.0810000000	n/a	459081	PenaltyB2	715	n/a	n/a	1
460.8640000000	n/a	460864	NeuCorrB2	1000	n/a	n/a	1
462.8640000000	n/a	462864	ignore	1700	n/a	n/a	1
464.5640000000	n/a	464564	RewardB2	1232	n/a	n/a	1
466.8640000000	n/a	466864	RewardCorrB2	1000	n/a	n/a	1
468.8640000000	n/a	468864	ignore	1700	n/a	n/a	1
470.5640000000	n/a	470564	PenaltyB2	1056	n/a	n/a	1
472.6970000000	n/a	472697	NeuCorrB2	1000	n/a	n/a	1
474.6970000000	n/a	474697	ignore	1700	n/a	n/a	1
476.3970000000	n/a	476397	RewardB2	764	n/a	n/a	1
478.2310000000	n/a	478231	RewardCorrB2	1000	n/a	n/a	1
480.2310000000	n/a	480231	STATUS	1700	n/a	n/a	1
481.9310000000	n/a	481931	PenaltyB2	561	n/a	n/a	1
483.5640000000	n/a	483564	NeuCorrB2	1000	n/a	n/a	1
485.5640000000	n/a	485564	STATUS	1700	n/a	n/a	1
487.2640000000	n/a	487264	RewardB2	515	n/a	n/a	1
488.8470000000	n/a	488847	RewardCorrB2	1000	n/a	n/a	1
490.8470000000	n/a	490847	STATUS	1700	n/a	n/a	1
492.5470000000	n/a	492547	PenaltyB2	502	n/a	n/a	1
494.1140000000	n/a	494114	PunCorrB2	1000	n/a	n/a	1
496.1140000000	n/a	496114	STATUS	1700	n/a	n/a	1
497.8140000000	n/a	497814	RewardB2	433	n/a	n/a	1
499.3140000000	n/a	499314	RewardCorrB2	1000	n/a	n/a	1
501.3140000000	n/a	501314	STATUS	1700	n/a	n/a	1
503.0140000000	n/a	503014	PenaltyB2	537	n/a	n/a	1
504.6140000000	n/a	504614	NeuCorrB2	1000	n/a	n/a	1
506.6140000000	n/a	506614	STATUS	1700	n/a	n/a	1
508.3140000000	n/a	508314	RewardB2	557	n/a	n/a	1
509.9470000000	n/a	509947	RewardCorrB2	1000	n/a	n/a	1
511.9470000000	n/a	511947	STATUS	1700	n/a	n/a	1
513.6470000000	n/a	513647	PenaltyB2	558	n/a	n/a	1
515.2810000000	n/a	515281	NeuCorrB2	1000	n/a	n/a	1
517.2810000000	n/a	517281	STATUS	1700	n/a	n/a	1
518.9810000000	n/a	518981	RewardB2	627	n/a	n/a	1
520.6810000000	n/a	520681	NeuCorrB2	1000	n/a	n/a	1
522.6810000000	n/a	522681	STATUS	1700	n/a	n/a	1
524.3810000000	n/a	524381	PenaltyB2	2428	n/a	n/a	1
527.8800000000	n/a	527880	NeuCorrB2	1000	n/a	n/a	1
529.8810000000	n/a	529881	STATUS	1700	n/a	n/a	1
531.5800000000	n/a	531580	RewardB2	1489	n/a	n/a	1
534.1470000000	n/a	534147	RewardCorrB2	1000	n/a	n/a	1
536.1470000000	n/a	536147	STATUS	1700	n/a	n/a	1
537.8470000000	n/a	537847	PenaltyB2	462	n/a	n/a	1
539.3800000000	n/a	539380	NeuCorrB2	1000	n/a	n/a	1
541.3810000000	n/a	541381	STATUS	1700	n/a	n/a	1
543.0800000000	n/a	543080	RewardB2	380	n/a	n/a	1
544.5300000000	n/a	544530	RewardCorrB2	1000	n/a	n/a	1
546.5310000000	n/a	546531	STATUS	1700	n/a	n/a	1
548.2300000000	n/a	548230	PenaltyB2	718	n/a	n/a	1
550.0140000000	n/a	550014	PunCorrB2	1000	n/a	n/a	1
552.0140000000	n/a	552014	STATUS	1700	n/a	n/a	1
553.7140000000	n/a	553714	PenaltyB2	500	n/a	n/a	1
555.2800000000	n/a	555280	NeuCorrB2	1000	n/a	n/a	1
557.2810000000	n/a	557281	STATUS	1700	n/a	n/a	1
558.9800000000	n/a	558980	PenaltyB2	1395	n/a	n/a	1
561.4470000000	n/a	561447	NeuCorrB2	1000	n/a	n/a	1
563.4470000000	n/a	563447	STATUS	1700	n/a	n/a	1
565.1470000000	n/a	565147	RewardB2	573	n/a	n/a	1
566.7970000000	n/a	566797	RewardCorrB2	1000	n/a	n/a	1
568.7970000000	n/a	568797	STATUS	1700	n/a	n/a	1
570.4970000000	n/a	570497	RewardB2	564	n/a	n/a	1
572.1300000000	n/a	572130	NeuCorrB2	1000	n/a	n/a	1
574.1300000000	n/a	574130	STATUS	1700	n/a	n/a	1
575.8300000000	n/a	575830	RewardB2	529	n/a	n/a	1
577.4300000000	n/a	577430	RewardCorrB2	1000	n/a	n/a	1
579.4300000000	n/a	579430	STATUS	1700	n/a	n/a	1
581.1300000000	n/a	581130	PenaltyB2	456	n/a	n/a	1
582.6640000000	n/a	582664	NeuCorrB2	1000	n/a	n/a	1
584.6640000000	n/a	584664	STATUS	1700	n/a	n/a	1
586.3640000000	n/a	586364	PenaltyB2	610	n/a	n/a	1
588.0470000000	n/a	588047	NeuCorrB2	1000	n/a	n/a	1
590.0470000000	n/a	590047	STATUS	1700	n/a	n/a	1
591.7470000000	n/a	591747	RewardB2	1492	n/a	n/a	1
594.3140000000	n/a	594314	RewardCorrB2	1000	n/a	n/a	1
596.3140000000	n/a	596314	STATUS	1700	n/a	n/a	1
598.0140000000	n/a	598014	PenaltyB2	657	n/a	n/a	1
599.7470000000	n/a	599747	NeuCorrB2	1000	n/a	n/a	1
601.7470000000	n/a	601747	STATUS	1700	n/a	n/a	1
603.4470000000	n/a	603447	RewardB2	1436	n/a	n/a	0
605.9470000000	n/a	605947	RewIncorrB2	1000	n/a	n/a	1
607.9470000000	n/a	607947	STATUS	1700	n/a	n/a	1
609.6470000000	n/a	609647	PenaltyB2	1082	n/a	n/a	1
611.7970000000	n/a	611797	NeuCorrB2	1000	n/a	n/a	1
613.7970000000	n/a	613797	STATUS	1700	n/a	n/a	1
615.4970000000	n/a	615497	RewardB2	773	n/a	n/a	1
617.3470000000	n/a	617347	RewardCorrB2	1000	n/a	n/a	1
619.3470000000	n/a	619347	STATUS	1700	n/a	n/a	1
621.0470000000	n/a	621047	PenaltyB2	845	n/a	n/a	1
622.9640000000	n/a	622964	NeuCorrB2	1000	n/a	n/a	1
624.9640000000	n/a	624964	STATUS	1700	n/a	n/a	1
626.6640000000	n/a	626664	PenaltyB2	635	n/a	n/a	1
628.3640000000	n/a	628364	PunCorrB2	1000	n/a	n/a	1
630.3640000000	n/a	630364	STATUS	1700	n/a	n/a	1
632.0640000000	n/a	632064	RewardB2	813	n/a	n/a	1
633.9470000000	n/a	633947	RewardCorrB2	1000	n/a	n/a	1
635.9470000000	n/a	635947	STATUS	1700	n/a	n/a	1
637.6470000000	n/a	637647	PenaltyB2	702	n/a	n/a	1
639.4140000000	n/a	639414	NeuCorrB2	1000	n/a	n/a	1
641.4140000000	n/a	641414	STATUS	1700	n/a	n/a	1
643.1140000000	n/a	643114	RewardB2	634	n/a	n/a	1
644.8140000000	n/a	644814	RewardCorrB2	1000	n/a	n/a	1
646.8140000000	n/a	646814	STATUS	1700	n/a	n/a	1
648.5140000000	n/a	648514	PenaltyB2	1590	n/a	n/a	0
651.1800000000	n/a	651180	NeuIncorrB2	1000	n/a	n/a	1
653.1800000000	n/a	653180	STATUS	1700	n/a	n/a	1
654.8800000000	n/a	654880	RewardB2	886	n/a	n/a	1
656.8300000000	n/a	656830	RewardCorrB2	1000	n/a	n/a	1
658.8300000000	n/a	658830	STATUS	1700	n/a	n/a	1
662.1970000000	n/a	662197	RewardB3	844	n/a	n/a	1
664.1140000000	n/a	664114	RewardCorrB3	1000	n/a	n/a	1
666.1140000000	n/a	666114	STATUS	1700	n/a	n/a	1
667.8140000000	n/a	667814	PenaltyB3	1138	n/a	n/a	1
670.0300000000	n/a	670030	PunCorrB3	1000	n/a	n/a	1
672.0300000000	n/a	672030	STATUS	1700	n/a	n/a	1
673.7300000000	n/a	673730	RewardB3	1491	n/a	n/a	1
676.2970000000	n/a	676297	RewardCorrB3	1000	n/a	n/a	1
678.2970000000	n/a	678297	STATUS	1700	n/a	n/a	1
679.9970000000	n/a	679997	PenaltyB3	1150	n/a	n/a	1
682.2140000000	n/a	682214	NeuCorrB3	1000	n/a	n/a	1
684.2140000000	n/a	684214	STATUS	1700	n/a	n/a	1
685.9140000000	n/a	685914	PenaltyB3	1572	n/a	n/a	1
688.5640000000	n/a	688564	NeuCorrB3	1000	n/a	n/a	1
690.5640000000	n/a	690564	STATUS	1700	n/a	n/a	1
692.2640000000	n/a	692264	RewardB3	1787	n/a	n/a	1
695.1140000000	n/a	695114	RewardCorrB3	1000	n/a	n/a	1
697.1140000000	n/a	697114	STATUS	1700	n/a	n/a	1
698.8140000000	n/a	698814	PenaltyB3	1139	n/a	n/a	0
701.0300000000	n/a	701030	NeuIncorrB3	1000	n/a	n/a	1
703.0300000000	n/a	703030	STATUS	1700	n/a	n/a	1
704.7300000000	n/a	704730	RewardB3	1779	n/a	n/a	1
707.5800000000	n/a	707580	RewardCorrB3	1000	n/a	n/a	1
709.5800000000	n/a	709580	STATUS	1700	n/a	n/a	1
711.2800000000	n/a	711280	PenaltyB3	588	n/a	n/a	1
712.9300000000	n/a	712930	NeuCorrB3	1000	n/a	n/a	1
714.9300000000	n/a	714930	STATUS	1700	n/a	n/a	1
716.6300000000	n/a	716630	RewardB3	986	n/a	n/a	1
718.6800000000	n/a	718680	NeuCorrB3	1000	n/a	n/a	1
720.6800000000	n/a	720680	STATUS	1700	n/a	n/a	1
722.3800000000	n/a	722380	PenaltyB3	1897	n/a	n/a	1
725.3470000000	n/a	725347	NeuCorrB3	1000	n/a	n/a	1
727.3470000000	n/a	727347	STATUS	1700	n/a	n/a	1
729.0470000000	n/a	729047	RewardB3	1032	n/a	n/a	1
731.1470000000	n/a	731147	RewardCorrB3	1000	n/a	n/a	1
733.1470000000	n/a	733147	STATUS	1700	n/a	n/a	1
734.8470000000	n/a	734847	RewardB3	853	n/a	n/a	1
736.7630000000	n/a	736763	RewardCorrB3	1000	n/a	n/a	1
738.7630000000	n/a	738763	STATUS	1700	n/a	n/a	1
740.4630000000	n/a	740463	RewardB3	808	n/a	n/a	1
742.3470000000	n/a	742347	RewardCorrB3	1000	n/a	n/a	1
744.3470000000	n/a	744347	STATUS	1700	n/a	n/a	1
746.0470000000	n/a	746047	PenaltyB3	1178	n/a	n/a	1
748.2970000000	n/a	748297	PunCorrB3	1000	n/a	n/a	1
750.2970000000	n/a	750297	STATUS	1700	n/a	n/a	1
751.9970000000	n/a	751997	RewardB3	1505	n/a	n/a	1
754.5800000000	n/a	754580	RewardCorrB3	1000	n/a	n/a	1
756.5800000000	n/a	756580	STATUS	1700	n/a	n/a	1
758.2800000000	n/a	758280	PenaltyB3	588	n/a	n/a	1
759.9300000000	n/a	759930	NeuCorrB3	1000	n/a	n/a	1
761.9300000000	n/a	761930	STATUS	1700	n/a	n/a	1
763.6300000000	n/a	763630	RewardB3	870	n/a	n/a	1
765.5630000000	n/a	765563	RewardCorrB3	1000	n/a	n/a	1
767.5630000000	n/a	767563	STATUS	1700	n/a	n/a	1
769.2630000000	n/a	769263	RewardB3	2686	n/a	n/a	1
773.0130000000	n/a	773013	RewardCorrB3	1000	n/a	n/a	1
775.0130000000	n/a	775013	STATUS	1700	n/a	n/a	1
776.7130000000	n/a	776713	RewardB3	695	n/a	n/a	1
778.4800000000	n/a	778480	NeuCorrB3	1000	n/a	n/a	1
780.4800000000	n/a	780480	STATUS	1700	n/a	n/a	1
782.1800000000	n/a	782180	RewardB3	755	n/a	n/a	1
784.0130000000	n/a	784013	RewardCorrB3	1000	n/a	n/a	1
786.0130000000	n/a	786013	STATUS	1700	n/a	n/a	1
787.7130000000	n/a	787713	RewardB3	2470	n/a	n/a	1
791.2470000000	n/a	791247	RewardCorrB3	1000	n/a	n/a	1
793.2470000000	n/a	793247	STATUS	1700	n/a	n/a	1
794.9470000000	n/a	794947	PenaltyB3	743	n/a	n/a	1
796.7630000000	n/a	796763	NeuCorrB3	1000	n/a	n/a	1
798.7630000000	n/a	798763	STATUS	1700	n/a	n/a	1
800.4630000000	n/a	800463	RewardB3	467	n/a	n/a	1
801.9970000000	n/a	801997	NeuCorrB3	1000	n/a	n/a	1
803.9970000000	n/a	803997	STATUS	1700	n/a	n/a	1
805.6970000000	n/a	805697	PenaltyB3	739	n/a	n/a	1
807.5130000000	n/a	807513	NeuCorrB3	1000	n/a	n/a	1
809.5130000000	n/a	809513	STATUS	1700	n/a	n/a	1
811.2130000000	n/a	811213	PenaltyB3	2295	n/a	n/a	1
814.5800000000	n/a	814580	NeuCorrB3	1000	n/a	n/a	1
816.5800000000	n/a	816580	STATUS	1700	n/a	n/a	1
818.2800000000	n/a	818280	RewardB3	405	n/a	n/a	1
819.7630000000	n/a	819763	RewardCorrB3	1000	n/a	n/a	1
821.7630000000	n/a	821763	STATUS	1700	n/a	n/a	1
823.4630000000	n/a	823463	PenaltyB3	335	n/a	n/a	1
824.8630000000	n/a	824863	NeuCorrB3	1000	n/a	n/a	1
826.8630000000	n/a	826863	STATUS	1700	n/a	n/a	1
828.5630000000	n/a	828563	RewardB3	389	n/a	n/a	1
830.0300000000	n/a	830030	NeuCorrB3	1000	n/a	n/a	1
832.0300000000	n/a	832030	STATUS	1700	n/a	n/a	1
833.7300000000	n/a	833730	PenaltyB3	693	n/a	n/a	1
835.4970000000	n/a	835497	NeuCorrB3	1000	n/a	n/a	1
837.4970000000	n/a	837497	STATUS	1700	n/a	n/a	1
839.1970000000	n/a	839197	RewardB3	365	n/a	n/a	1
840.6300000000	n/a	840630	RewardCorrB3	1000	n/a	n/a	1
842.6300000000	n/a	842630	STATUS	1700	n/a	n/a	1
844.3300000000	n/a	844330	PenaltyB3	629	n/a	n/a	1
846.0300000000	n/a	846030	PunCorrB3	1000	n/a	n/a	1
848.0300000000	n/a	848030	STATUS	1700	n/a	n/a	1
849.7300000000	n/a	849730	PenaltyB3	812	n/a	n/a	1
851.6130000000	n/a	851613	NeuCorrB3	1000	n/a	n/a	1
853.6130000000	n/a	853613	STATUS	1700	n/a	n/a	1
855.3130000000	n/a	855313	PenaltyB3	566	n/a	n/a	1
856.9470000000	n/a	856947	NeuCorrB3	1000	n/a	n/a	1
858.9470000000	n/a	858947	STATUS	1700	n/a	n/a	1
860.6470000000	n/a	860647	PenaltyB3	1533	n/a	n/a	1
863.2470000000	n/a	863247	NeuCorrB3	1000	n/a	n/a	1
865.2470000000	n/a	865247	STATUS	1700	n/a	n/a	1
866.9470000000	n/a	866947	RewardB3	703	n/a	n/a	1
868.7130000000	n/a	868713	RewardCorrB3	1000	n/a	n/a	1
870.7130000000	n/a	870713	STATUS	1700	n/a	n/a	1
872.4130000000	n/a	872413	RewardB3	357	n/a	n/a	1
873.8470000000	n/a	873847	RewardCorrB3	1000	n/a	n/a	1
875.8470000000	n/a	875847	STATUS	1700	n/a	n/a	1
877.5460000000	n/a	877546	PenaltyB3	498	n/a	n/a	1
879.1130000000	n/a	879113	NeuCorrB3	1000	n/a	n/a	1
881.1130000000	n/a	881113	STATUS	1700	n/a	n/a	1
882.8130000000	n/a	882813	PenaltyB3	693	n/a	n/a	1
884.5800000000	n/a	884580	NeuCorrB3	1000	n/a	n/a	1
886.5800000000	n/a	886580	STATUS	1700	n/a	n/a	1
888.2800000000	n/a	888280	PenaltyB3	675	n/a	n/a	1
890.0300000000	n/a	890030	NeuCorrB3	1000	n/a	n/a	1
892.0300000000	n/a	892030	STATUS	1700	n/a	n/a	1
895.7630000000	n/a	895763	RewardB4	592	n/a	n/a	1
897.4300000000	n/a	897430	RewardCorrB4	1000	n/a	n/a	1
899.4300000000	n/a	899430	STATUS	1700	n/a	n/a	1
901.1300000000	n/a	901130	PenaltyB4	713	n/a	n/a	0
902.9130000000	n/a	902913	NeuIncorrB4	1000	n/a	n/a	1
904.9130000000	n/a	904913	STATUS	1700	n/a	n/a	1
906.6130000000	n/a	906613	RewardB4	579	n/a	n/a	1
908.2630000000	n/a	908263	RewardCorrB4	1000	n/a	n/a	1
910.2630000000	n/a	910263	STATUS	1700	n/a	n/a	1
911.9630000000	n/a	911963	PenaltyB4	1438	n/a	n/a	0
914.4630000000	n/a	914463	PunIncorrB4	1000	n/a	n/a	1
916.4630000000	n/a	916463	STATUS	1700	n/a	n/a	1
918.1630000000	n/a	918163	RewardB4	497	n/a	n/a	1
919.7300000000	n/a	919730	RewardCorrB4	1000	n/a	n/a	1
921.7300000000	n/a	921730	STATUS	1700	n/a	n/a	1
923.4300000000	n/a	923430	PenaltyB4	906	n/a	n/a	1
925.4130000000	n/a	925413	PunCorrB4	1000	n/a	n/a	1
927.4130000000	n/a	927413	STATUS	1700	n/a	n/a	1
929.1130000000	n/a	929113	PenaltyB4	1324	n/a	n/a	0
931.5130000000	n/a	931513	PunIncorrB4	1000	n/a	n/a	1
933.5130000000	n/a	933513	STATUS	1700	n/a	n/a	1
935.2130000000	n/a	935213	RewardB4	637	n/a	n/a	1
936.9130000000	n/a	936913	RewardCorrB4	1000	n/a	n/a	1
938.9130000000	n/a	938913	STATUS	1700	n/a	n/a	1
940.6130000000	n/a	940613	PenaltyB4	1041	n/a	n/a	1
942.7300000000	n/a	942730	NeuCorrB4	1000	n/a	n/a	1
944.7300000000	n/a	944730	STATUS	1700	n/a	n/a	1
946.4300000000	n/a	946430	RewardB4	627	n/a	n/a	1
948.1300000000	n/a	948130	NeuCorrB4	1000	n/a	n/a	1
950.1300000000	n/a	950130	STATUS	1700	n/a	n/a	1
951.8300000000	n/a	951830	PenaltyB4	860	n/a	n/a	1
953.7630000000	n/a	953763	NeuCorrB4	1000	n/a	n/a	1
955.7630000000	n/a	955763	STATUS	1700	n/a	n/a	1
957.4630000000	n/a	957463	RewardB4	1635	n/a	n/a	1
960.1630000000	n/a	960163	RewardCorrB4	1000	n/a	n/a	1
962.1630000000	n/a	962163	STATUS	1700	n/a	n/a	1
963.8630000000	n/a	963863	PenaltyB4	2066	n/a	n/a	0
966.9960000000	n/a	966996	PunIncorrB4	1000	n/a	n/a	1
968.9960000000	n/a	968996	STATUS	1700	n/a	n/a	1
970.6960000000	n/a	970696	PenaltyB4	573	n/a	n/a	1
972.3460000000	n/a	972346	NeuCorrB4	1000	n/a	n/a	1
974.3460000000	n/a	974346	STATUS	1700	n/a	n/a	1
976.0460000000	n/a	976046	RewardB4	473	n/a	n/a	1
977.5960000000	n/a	977596	RewardCorrB4	1000	n/a	n/a	1
979.5960000000	n/a	979596	STATUS	1700	n/a	n/a	1
981.2960000000	n/a	981296	RewardB4	412	n/a	n/a	1
982.7800000000	n/a	982780	NeuCorrB4	1000	n/a	n/a	1
984.7800000000	n/a	984780	STATUS	1700	n/a	n/a	1
986.4800000000	n/a	986480	RewardB4	505	n/a	n/a	1
988.0630000000	n/a	988063	RewardCorrB4	1000	n/a	n/a	1
990.0630000000	n/a	990063	STATUS	1700	n/a	n/a	1
991.7630000000	n/a	991763	PenaltyB4	1102	n/a	n/a	1
993.9300000000	n/a	993930	NeuCorrB4	1000	n/a	n/a	1
995.9300000000	n/a	995930	STATUS	1700	n/a	n/a	1
997.6300000000	n/a	997630	PenaltyB4	619	n/a	n/a	1
999.3130000000	n/a	999313	NeuCorrB4	1000	n/a	n/a	1
1001.3130000000	n/a	1001313	STATUS	1700	n/a	n/a	1
1003.0130000000	n/a	1003013	PenaltyB4	1321	n/a	n/a	1
1005.3960000000	n/a	1005396	PunCorrB4	1000	n/a	n/a	1
1007.3960000000	n/a	1007396	STATUS	1700	n/a	n/a	1
1009.0960000000	n/a	1009096	RewardB4	524	n/a	n/a	1
1010.6960000000	n/a	1010696	RewardCorrB4	1000	n/a	n/a	1
1012.6960000000	n/a	1012696	STATUS	1700	n/a	n/a	1
1014.3960000000	n/a	1014396	PenaltyB4	634	n/a	n/a	1
1016.0960000000	n/a	1016096	NeuCorrB4	1000	n/a	n/a	1
1018.0960000000	n/a	1018096	STATUS	1700	n/a	n/a	1
1019.7960000000	n/a	1019796	RewardB4	517	n/a	n/a	1
1021.3800000000	n/a	1021380	RewardCorrB4	1000	n/a	n/a	1
1023.3800000000	n/a	1023380	STATUS	1700	n/a	n/a	1
1025.0800000000	n/a	1025080	PenaltyB4	1338	n/a	n/a	0
1027.4800000000	n/a	1027480	PunIncorrB4	1000	n/a	n/a	1
1029.4800000000	n/a	1029480	STATUS	1700	n/a	n/a	1
1031.1800000000	n/a	1031180	RewardB4	500	n/a	n/a	1
1032.7460000000	n/a	1032746	NeuCorrB4	1000	n/a	n/a	1
1034.7460000000	n/a	1034746	STATUS	1700	n/a	n/a	1
1036.4460000000	n/a	1036446	PenaltyB4	299	n/a	n/a	1
1037.8130000000	n/a	1037813	NeuCorrB4	1000	n/a	n/a	1
1039.8130000000	n/a	1039813	STATUS	1700	n/a	n/a	1
1041.5130000000	n/a	1041513	RewardB4	579	n/a	n/a	1
1043.1630000000	n/a	1043163	RewardCorrB4	1000	n/a	n/a	1
1045.1630000000	n/a	1045163	STATUS	1700	n/a	n/a	1
1046.8630000000	n/a	1046863	PenaltyB4	1104	n/a	n/a	1
1049.0300000000	n/a	1049030	NeuCorrB4	1000	n/a	n/a	1
1051.0300000000	n/a	1051030	STATUS	1700	n/a	n/a	1
1052.7290000000	n/a	1052729	RewardB4	456	n/a	n/a	1
1054.2630000000	n/a	1054263	RewardCorrB4	1000	n/a	n/a	1
1056.2630000000	n/a	1056263	STATUS	1700	n/a	n/a	1
1057.9630000000	n/a	1057963	PenaltyB4	566	n/a	n/a	1
1059.5960000000	n/a	1059596	PunCorrB4	1000	n/a	n/a	1
1061.5960000000	n/a	1061596	STATUS	1700	n/a	n/a	1
1063.2960000000	n/a	1063296	RewardB4	485	n/a	n/a	1
1064.8460000000	n/a	1064846	RewardCorrB4	1000	n/a	n/a	1
1066.8460000000	n/a	1066846	STATUS	1700	n/a	n/a	1
1068.5460000000	n/a	1068546	PenaltyB4	774	n/a	n/a	1
1070.3960000000	n/a	1070396	NeuCorrB4	1000	n/a	n/a	1
1072.3960000000	n/a	1072396	STATUS	1700	n/a	n/a	1
1074.0960000000	n/a	1074096	RewardB4	581	n/a	n/a	1
1075.7460000000	n/a	1075746	RewardCorrB4	1000	n/a	n/a	1
1077.7460000000	n/a	1077746	STATUS	1700	n/a	n/a	1
1079.4460000000	n/a	1079446	PenaltyB4	1685	n/a	n/a	1
1082.1960000000	n/a	1082196	NeuCorrB4	1000	n/a	n/a	1
1084.1960000000	n/a	1084196	STATUS	1700	n/a	n/a	1
1085.8960000000	n/a	1085896	RewardB4	553	n/a	n/a	1
1087.5130000000	n/a	1087513	RewardCorrB4	1000	n/a	n/a	1
1089.5130000000	n/a	1089513	STATUS	1700	n/a	n/a	1
1091.2130000000	n/a	1091213	PenaltyB4	578	n/a	n/a	1
1092.8630000000	n/a	1092863	NeuCorrB4	1000	n/a	n/a	1
1094.8630000000	n/a	1094863	STATUS	1700	n/a	n/a	1
1096.5630000000	n/a	1096563	RewardB4	535	n/a	n/a	1
1098.1630000000	n/a	1098163	NeuCorrB4	1000	n/a	n/a	1
1100.1630000000	n/a	1100163	STATUS	1700	n/a	n/a	1
1101.8630000000	n/a	1101863	RewardB4	525	n/a	n/a	1
1103.4630000000	n/a	1103463	RewardCorrB4	1000	n/a	n/a	1
1105.4630000000	n/a	1105463	STATUS	1700	n/a	n/a	1
1107.1630000000	n/a	1107163	PenaltyB4	1955	n/a	n/a	0
1110.1960000000	n/a	1110196	PunIncorrB4	1000	n/a	n/a	1
1112.1960000000	n/a	1112196	STATUS	1700	n/a	n/a	1
1113.8960000000	n/a	1113896	RewardB4	491	n/a	n/a	1
1115.4630000000	n/a	1115463	RewardCorrB4	1000	n/a	n/a	1
1117.4630000000	n/a	1117463	STATUS	1700	n/a	n/a	1
1121.6630000000	n/a	1121663	STATUS	1700	n/a	n/a	1
