onset	duration	sample	trial_type	response_time	stim_file	value	correct
6.8840000000	n/a	6884	ignore	n/a	n/a	n/a	n/a
9.9840000000	n/a	9984	ignore	n/a	n/a	n/a	n/a
12.9950000000	n/a	12995	ignore	n/a	n/a	n/a	n/a
28.9180000000	n/a	28918	ignore	n/a	n/a	n/a	n/a
32.0180000000	n/a	32018	ignore	n/a	n/a	n/a	n/a
35.0050000000	n/a	35005	ignore	n/a	n/a	n/a	n/a
52.6180000000	n/a	52618	NeuStim	n/a	n/a	n/a	n/a
55.7180000000	n/a	55718	NeuNonAlcP1000	n/a	n/a	n/a	n/a
60.7050000000	n/a	60705	NeuNonAlcP1000	n/a	n/a	n/a	n/a
72.5680000000	n/a	72568	PosStim	n/a	n/a	n/a	n/a
75.6010000000	n/a	75601	PosAlcStimWithoutStartle	n/a	n/a	n/a	n/a
91.6680000000	n/a	91668	NeuStim	n/a	n/a	n/a	n/a
94.7680000000	n/a	94768	NeuAlcP2000	n/a	n/a	n/a	n/a
98.7550000000	n/a	98755	NeuAlcP2000	n/a	n/a	n/a	n/a
111.6680000000	n/a	111668	NegStim	n/a	n/a	n/a	n/a
114.7680000000	n/a	114768	NegNonAlcP2000	n/a	n/a	n/a	n/a
118.7550000000	n/a	118755	NegNonAlcP2000	n/a	n/a	n/a	n/a
128.1840000000	n/a	128184	NeuStim	n/a	n/a	n/a	n/a
131.2180000000	n/a	131218	NeuNonAlcStimWithoutStartle	n/a	n/a	n/a	n/a
148.2010000000	n/a	148201	PosStim	n/a	n/a	n/a	n/a
151.3010000000	n/a	151301	PosNonAlcP1000	n/a	n/a	n/a	n/a
156.2880000000	n/a	156288	PosNonAlcP1000	n/a	n/a	n/a	n/a
165.7340000000	n/a	165734	NeuStim	n/a	n/a	n/a	n/a
168.8340000000	n/a	168834	NeuAlcP1000	n/a	n/a	n/a	n/a
173.8210000000	n/a	173821	NeuAlcP1000	n/a	n/a	n/a	n/a
181.8840000000	n/a	181884	NegStim	n/a	n/a	n/a	n/a
184.9180000000	n/a	184918	NegNonAlcStimWithoutStartle	n/a	n/a	n/a	n/a
201.1840000000	n/a	201184	NeuStim	n/a	n/a	n/a	n/a
204.2840000000	n/a	204284	NeuNonAlcP1000	n/a	n/a	n/a	n/a
209.2710000000	n/a	209271	NeuNonAlcP1000	n/a	n/a	n/a	n/a
220.1170000000	n/a	220117	NegStim	n/a	n/a	n/a	n/a
223.2170000000	n/a	223217	NegNonAlcP3000	n/a	n/a	n/a	n/a
226.2040000000	n/a	226204	NegNonAlcP3000	n/a	n/a	n/a	n/a
239.2510000000	n/a	239251	PosStim	n/a	n/a	n/a	n/a
242.3510000000	n/a	242351	PosNonAlcP3000	n/a	n/a	n/a	n/a
245.3380000000	n/a	245338	PosNonAlcP3000	n/a	n/a	n/a	n/a
255.7340000000	n/a	255734	NeuStim	n/a	n/a	n/a	n/a
258.8340000000	n/a	258834	NeuAlcP1000	n/a	n/a	n/a	n/a
263.8210000000	n/a	263821	NeuAlcP1000	n/a	n/a	n/a	n/a
272.8170000000	n/a	272817	NegStim	n/a	n/a	n/a	n/a
275.8510000000	n/a	275851	NegAlcStimWithoutStartle	n/a	n/a	n/a	n/a
292.3170000000	n/a	292317	PosStim	n/a	n/a	n/a	n/a
295.3510000000	n/a	295351	PosNonAlcStimWithoutStartle	n/a	n/a	n/a	n/a
310.3840000000	n/a	310384	NegStim	n/a	n/a	n/a	n/a
313.4840000000	n/a	313484	NegAlcP3000	n/a	n/a	n/a	n/a
316.4710000000	n/a	316471	NegAlcP3000	n/a	n/a	n/a	n/a
327.7340000000	n/a	327734	NeuStim	n/a	n/a	n/a	n/a
330.7670000000	n/a	330767	NeuAlcStimWithoutStartle	n/a	n/a	n/a	n/a
345.4670000000	n/a	345467	PosStim	n/a	n/a	n/a	n/a
348.5670000000	n/a	348567	PosNonAlcP1000	n/a	n/a	n/a	n/a
353.5540000000	n/a	353554	PosNonAlcP1000	n/a	n/a	n/a	n/a
365.4340000000	n/a	365434	NegStim	n/a	n/a	n/a	n/a
368.5340000000	n/a	368534	NegAlcP3000	n/a	n/a	n/a	n/a
371.5210000000	n/a	371521	NegAlcP3000	n/a	n/a	n/a	n/a
385.2340000000	n/a	385234	NegStim	n/a	n/a	n/a	n/a
388.2670000000	n/a	388267	NegNonAlcStimWithoutStartle	n/a	n/a	n/a	n/a
401.8170000000	n/a	401817	PosStim	n/a	n/a	n/a	n/a
404.9170000000	n/a	404917	PosAlcP1000	n/a	n/a	n/a	n/a
409.9040000000	n/a	409904	PosAlcP1000	n/a	n/a	n/a	n/a
419.1840000000	n/a	419184	NeuStim	n/a	n/a	n/a	n/a
422.2170000000	n/a	422217	NeuAlcStimWithoutStartle	n/a	n/a	n/a	n/a
436.9170000000	n/a	436917	NegStim	n/a	n/a	n/a	n/a
440.0170000000	n/a	440017	NegNonAlcP1000	n/a	n/a	n/a	n/a
445.0040000000	n/a	445004	NegNonAlcP1000	n/a	n/a	n/a	n/a
454.1840000000	n/a	454184	PosStim	n/a	n/a	n/a	n/a
457.2840000000	n/a	457284	PosAlcP3000	n/a	n/a	n/a	n/a
460.2710000000	n/a	460271	PosAlcP3000	n/a	n/a	n/a	n/a
471.4840000000	n/a	471484	NeuStim	n/a	n/a	n/a	n/a
474.5840000000	n/a	474584	NeuAlcP3000	n/a	n/a	n/a	n/a
477.5710000000	n/a	477571	NeuAlcP3000	n/a	n/a	n/a	n/a
489.2500000000	n/a	489250	NegStim	n/a	n/a	n/a	n/a
492.2840000000	n/a	492284	NegAlcStimWithoutStartle	n/a	n/a	n/a	n/a
506.7000000000	n/a	506700	PosStim	n/a	n/a	n/a	n/a
509.8000000000	n/a	509800	PosNonAlcP2000	n/a	n/a	n/a	n/a
513.7870000000	n/a	513787	PosNonAlcP2000	n/a	n/a	n/a	n/a
526.8000000000	n/a	526800	NegStim	n/a	n/a	n/a	n/a
529.9000000000	n/a	529900	NegAlcP2000	n/a	n/a	n/a	n/a
533.8870000000	n/a	533887	NegAlcP2000	n/a	n/a	n/a	n/a
543.4670000000	n/a	543467	PosStim	n/a	n/a	n/a	n/a
546.5670000000	n/a	546567	PosAlcP2000	n/a	n/a	n/a	n/a
550.5540000000	n/a	550554	PosAlcP2000	n/a	n/a	n/a	n/a
562.0670000000	n/a	562067	NeuStim	n/a	n/a	n/a	n/a
565.1000000000	n/a	565100	NeuAlcStimWithoutStartle	n/a	n/a	n/a	n/a
580.5670000000	n/a	580567	NegStim	n/a	n/a	n/a	n/a
583.6670000000	n/a	583667	NegNonAlcP1000	n/a	n/a	n/a	n/a
588.6540000000	n/a	588654	NegNonAlcP1000	n/a	n/a	n/a	n/a
597.7670000000	n/a	597767	NeuStim	n/a	n/a	n/a	n/a
600.8670000000	n/a	600867	NeuNonAlcP1000	n/a	n/a	n/a	n/a
605.8540000000	n/a	605854	NeuNonAlcP1000	n/a	n/a	n/a	n/a
617.8670000000	n/a	617867	PosStim	n/a	n/a	n/a	n/a
620.9670000000	n/a	620967	PosNonAlcP3000	n/a	n/a	n/a	n/a
623.9540000000	n/a	623954	PosNonAlcP3000	n/a	n/a	n/a	n/a
635.6000000000	n/a	635600	NeuStim	n/a	n/a	n/a	n/a
638.6340000000	n/a	638634	NeuNonAlcStimWithoutStartle	n/a	n/a	n/a	n/a
655.3500000000	n/a	655350	NegStim	n/a	n/a	n/a	n/a
658.3830000000	n/a	658383	NegNonAlcStimWithoutStartle	n/a	n/a	n/a	n/a
671.6670000000	n/a	671667	NeuStim	n/a	n/a	n/a	n/a
674.7670000000	n/a	674767	NeuNonAlcP3000	n/a	n/a	n/a	n/a
677.7540000000	n/a	677754	NeuNonAlcP3000	n/a	n/a	n/a	n/a
688.3830000000	n/a	688383	PosStim	n/a	n/a	n/a	n/a
691.4830000000	n/a	691483	PosAlcP1000	n/a	n/a	n/a	n/a
696.4700000000	n/a	696470	PosAlcP1000	n/a	n/a	n/a	n/a
708.4670000000	n/a	708467	NegStim	n/a	n/a	n/a	n/a
711.5670000000	n/a	711567	NegNonAlcP1000	n/a	n/a	n/a	n/a
716.5540000000	n/a	716554	NegNonAlcP1000	n/a	n/a	n/a	n/a
728.3670000000	n/a	728367	PosStim	n/a	n/a	n/a	n/a
731.4000000000	n/a	731400	PosNonAlcStimWithoutStartle	n/a	n/a	n/a	n/a
748.3170000000	n/a	748317	NeuStim	n/a	n/a	n/a	n/a
751.4170000000	n/a	751417	NeuAlcP2000	n/a	n/a	n/a	n/a
755.4040000000	n/a	755404	NeuAlcP2000	n/a	n/a	n/a	n/a
767.4330000000	n/a	767433	PosStim	n/a	n/a	n/a	n/a
770.5330000000	n/a	770533	PosAlcP1000	n/a	n/a	n/a	n/a
775.5200000000	n/a	775520	PosAlcP1000	n/a	n/a	n/a	n/a
786.3670000000	n/a	786367	NegStim	n/a	n/a	n/a	n/a
789.4000000000	n/a	789400	NegNonAlcStimWithoutStartle	n/a	n/a	n/a	n/a
805.7500000000	n/a	805750	PosStim	n/a	n/a	n/a	n/a
808.8500000000	n/a	808850	PosNonAlcP2000	n/a	n/a	n/a	n/a
812.8370000000	n/a	812837	PosNonAlcP2000	n/a	n/a	n/a	n/a
823.9670000000	n/a	823967	NegStim	n/a	n/a	n/a	n/a
827.0670000000	n/a	827067	NegNonAlcP3000	n/a	n/a	n/a	n/a
830.0540000000	n/a	830054	NegNonAlcP3000	n/a	n/a	n/a	n/a
842.0330000000	n/a	842033	NeuStim	n/a	n/a	n/a	n/a
845.1330000000	n/a	845133	NeuNonAlcP2000	n/a	n/a	n/a	n/a
849.1200000000	n/a	849120	NeuNonAlcP2000	n/a	n/a	n/a	n/a
858.5830000000	n/a	858583	NegStim	n/a	n/a	n/a	n/a
861.6170000000	n/a	861617	NegAlcStimWithoutStartle	n/a	n/a	n/a	n/a
876.5500000000	n/a	876550	PosStim	n/a	n/a	n/a	n/a
879.5830000000	n/a	879583	PosAlcStimWithoutStartle	n/a	n/a	n/a	n/a
895.9830000000	n/a	895983	NeuStim	n/a	n/a	n/a	n/a
899.0830000000	n/a	899083	NeuAlcP3000	n/a	n/a	n/a	n/a
902.0700000000	n/a	902070	NeuAlcP3000	n/a	n/a	n/a	n/a
913.1000000000	n/a	913100	NegStim	n/a	n/a	n/a	n/a
916.2000000000	n/a	916200	NegNonAlcP1000	n/a	n/a	n/a	n/a
921.1870000000	n/a	921187	NegNonAlcP1000	n/a	n/a	n/a	n/a
929.8830000000	n/a	929883	NeuStim	n/a	n/a	n/a	n/a
932.9830000000	n/a	932983	NeuNonAlcP2000	n/a	n/a	n/a	n/a
936.9700000000	n/a	936970	NeuNonAlcP2000	n/a	n/a	n/a	n/a
948.6830000000	n/a	948683	PosStim	n/a	n/a	n/a	n/a
951.7160000000	n/a	951716	PosAlcStimWithoutStartle	n/a	n/a	n/a	n/a
965.0330000000	n/a	965033	NegStim	n/a	n/a	n/a	n/a
968.1330000000	n/a	968133	NegNonAlcP2000	n/a	n/a	n/a	n/a
972.1200000000	n/a	972120	NegNonAlcP2000	n/a	n/a	n/a	n/a
983.4500000000	n/a	983450	NeuStim	n/a	n/a	n/a	n/a
986.5500000000	n/a	986550	NeuAlcP1000	n/a	n/a	n/a	n/a
991.5370000000	n/a	991537	NeuAlcP1000	n/a	n/a	n/a	n/a
