onset	duration	sample	trial_type	response_time	stim_file	value	correct
8.9590000000	n/a	8959	ignore	1515	n/a	n/a	1
11.5430000000	n/a	11543	ignore	1000	n/a	n/a	1
13.5430000000	n/a	13543	ignore	1700	n/a	n/a	1
15.2430000000	n/a	15243	ignore	1239	n/a	n/a	1
17.5590000000	n/a	17559	ignore	1000	n/a	n/a	1
19.5590000000	n/a	19559	ignore	1700	n/a	n/a	1
21.2590000000	n/a	21259	ignore	771	n/a	n/a	1
23.0930000000	n/a	23093	ignore	1000	n/a	n/a	1
25.0930000000	n/a	25093	ignore	1700	n/a	n/a	1
26.7920000000	n/a	26792	ignore	1538	n/a	n/a	1
29.4090000000	n/a	29409	ignore	1000	n/a	n/a	1
31.4090000000	n/a	31409	ignore	1700	n/a	n/a	1
33.1090000000	n/a	33109	ignore	868	n/a	n/a	1
35.0420000000	n/a	35042	ignore	1000	n/a	n/a	1
37.0430000000	n/a	37043	ignore	1700	n/a	n/a	1
38.7420000000	n/a	38742	ignore	818	n/a	n/a	1
40.6260000000	n/a	40626	ignore	1000	n/a	n/a	1
42.6260000000	n/a	42626	STATUS	1700	n/a	n/a	1
44.3260000000	n/a	44326	ignore	728	n/a	n/a	1
46.1260000000	n/a	46126	ignore	1000	n/a	n/a	1
48.1260000000	n/a	48126	STATUS	1700	n/a	n/a	1
49.8260000000	n/a	49826	ignore	595	n/a	n/a	1
51.4920000000	n/a	51492	ignore	1000	n/a	n/a	1
53.4930000000	n/a	53493	STATUS	1700	n/a	n/a	1
55.1920000000	n/a	55192	ignore	4042	n/a	n/a	1
59.3090000000	n/a	59309	ignore 	2000	n/a	n/a	1
68.9420000000	n/a	68942	ignore	1000	n/a	n/a	1
70.9430000000	n/a	70943	STATUS	1700	n/a	n/a	1
72.6420000000	n/a	72642	ignore	835	n/a	n/a	1
74.5420000000	n/a	74542	ignore	1000	n/a	n/a	1
76.5420000000	n/a	76542	STATUS	1700	n/a	n/a	1
78.2420000000	n/a	78242	ignore	519	n/a	n/a	1
79.8260000000	n/a	79826	ignore	1000	n/a	n/a	1
81.8260000000	n/a	81826	STATUS	1700	n/a	n/a	1
83.5260000000	n/a	83526	ignore	546	n/a	n/a	1
85.1420000000	n/a	85142	ignore	1000	n/a	n/a	1
87.1420000000	n/a	87142	ignore	1700	n/a	n/a	1
88.8420000000	n/a	88842	ignore	1637	n/a	n/a	1
91.5420000000	n/a	91542	ignore	1000	n/a	n/a	1
93.5420000000	n/a	93542	ignore	1700	n/a	n/a	1
95.2420000000	n/a	95242	ignore	649	n/a	n/a	1
96.9590000000	n/a	96959	ignore	1000	n/a	n/a	1
98.9590000000	n/a	98959	ignore	1700	n/a	n/a	1
100.6590000000	n/a	100659	ignore	870	n/a	n/a	1
102.5920000000	n/a	102592	ignore	1000	n/a	n/a	1
104.5920000000	n/a	104592	ignore	1700	n/a	n/a	1
106.2920000000	n/a	106292	ignore	741	n/a	n/a	0
108.1090000000	n/a	108109	ignore	1000	n/a	n/a	1
110.1090000000	n/a	110109	ignore	1700	n/a	n/a	1
111.8090000000	n/a	111809	ignore	2886	n/a	n/a	1
114.7590000000	n/a	114759	ignore 	2000	n/a	n/a	1
126.1420000000	n/a	126142	PenaltyB1	1691	n/a	n/a	0
128.9090000000	n/a	128909	PunIncorrB1	1000	n/a	n/a	1
130.9090000000	n/a	130909	ignore	1700	n/a	n/a	1
132.6090000000	n/a	132609	PenaltyB1	1908	n/a	n/a	1
135.5920000000	n/a	135592	NeuCorrB1	1000	n/a	n/a	1
137.5920000000	n/a	137592	ignore	1700	n/a	n/a	1
139.2920000000	n/a	139292	PenaltyB1	697	n/a	n/a	1
141.0590000000	n/a	141059	NeuCorrB1	1000	n/a	n/a	1
143.0590000000	n/a	143059	ignore	1700	n/a	n/a	1
144.7590000000	n/a	144759	RewardB1	1057	n/a	n/a	0
146.8920000000	n/a	146892	NeuIncorrB1	1000	n/a	n/a	1
148.8920000000	n/a	148892	ignore	1700	n/a	n/a	1
150.5920000000	n/a	150592	RewardB1	890	n/a	n/a	0
152.5590000000	n/a	152559	NeuIncorrB1	1000	n/a	n/a	1
154.5590000000	n/a	154559	ignore	1700	n/a	n/a	1
156.2590000000	n/a	156259	PenaltyB1	892	n/a	n/a	1
158.2260000000	n/a	158226	NeuCorrB1	1000	n/a	n/a	1
160.2260000000	n/a	160226	ignore	1700	n/a	n/a	1
161.9260000000	n/a	161926	PenaltyB1	2435	n/a	n/a	0
165.4260000000	n/a	165426	PunIncorrB1	1000	n/a	n/a	1
167.4260000000	n/a	167426	STATUS	1700	n/a	n/a	1
169.1260000000	n/a	169126	PenaltyB1	497	n/a	n/a	1
170.6920000000	n/a	170692	NeuCorrB1	1000	n/a	n/a	1
172.6920000000	n/a	172692	STATUS	1700	n/a	n/a	1
174.3920000000	n/a	174392	PenaltyB1	913	n/a	n/a	1
176.3760000000	n/a	176376	PunCorrB1	1000	n/a	n/a	1
178.3760000000	n/a	178376	STATUS	1700	n/a	n/a	1
180.0760000000	n/a	180076	RewardB1	1441	n/a	n/a	1
182.5920000000	n/a	182592	RewardCorrB1	1000	n/a	n/a	1
184.5920000000	n/a	184592	STATUS	1700	n/a	n/a	1
186.2920000000	n/a	186292	PenaltyB1	2275	n/a	n/a	1
189.6420000000	n/a	189642	NeuCorrB1	1000	n/a	n/a	1
191.6420000000	n/a	191642	STATUS	1700	n/a	n/a	1
193.3420000000	n/a	193342	RewardB1	692	n/a	n/a	0
195.1090000000	n/a	195109	RewIncorrB1	1000	n/a	n/a	1
197.1090000000	n/a	197109	ignore	1700	n/a	n/a	1
198.8090000000	n/a	198809	PenaltyB1	912	n/a	n/a	0
200.7920000000	n/a	200792	PunIncorrB1	1000	n/a	n/a	1
202.7920000000	n/a	202792	STATUS	1700	n/a	n/a	1
204.4920000000	n/a	204492	RewardB1	604	n/a	n/a	0
206.1590000000	n/a	206159	NeuIncorrB1	1000	n/a	n/a	1
208.1590000000	n/a	208159	STATUS	1700	n/a	n/a	1
209.8590000000	n/a	209859	PenaltyB1	954	n/a	n/a	1
211.8760000000	n/a	211876	NeuCorrB1	1000	n/a	n/a	1
213.8760000000	n/a	213876	STATUS	1700	n/a	n/a	1
215.5760000000	n/a	215576	PenaltyB1	1193	n/a	n/a	1
217.8420000000	n/a	217842	NeuCorrB1	1000	n/a	n/a	1
219.8420000000	n/a	219842	STATUS	1700	n/a	n/a	1
221.5420000000	n/a	221542	RewardB1	525	n/a	n/a	0
223.1420000000	n/a	223142	RewIncorrB1	1000	n/a	n/a	1
225.1420000000	n/a	225142	ignore	1700	n/a	n/a	1
226.8420000000	n/a	226842	PenaltyB1	932	n/a	n/a	1
228.8420000000	n/a	228842	NeuCorrB1	1000	n/a	n/a	1
230.8420000000	n/a	230842	ignore	1700	n/a	n/a	1
232.5420000000	n/a	232542	RewardB1	1129	n/a	n/a	0
234.7420000000	n/a	234742	NeuIncorrB1	1000	n/a	n/a	1
236.7420000000	n/a	236742	ignore	1700	n/a	n/a	1
238.4420000000	n/a	238442	RewardB1	569	n/a	n/a	0
240.0760000000	n/a	240076	NeuIncorrB1	1000	n/a	n/a	1
242.0760000000	n/a	242076	ignore	1700	n/a	n/a	1
243.7760000000	n/a	243776	RewardB1	1288	n/a	n/a	1
246.1250000000	n/a	246125	NeuCorrB1	1000	n/a	n/a	1
248.1260000000	n/a	248126	ignore	1700	n/a	n/a	1
249.8250000000	n/a	249825	RewardB1	739	n/a	n/a	1
251.6420000000	n/a	251642	RewardCorrB1	1000	n/a	n/a	1
253.6420000000	n/a	253642	ignore	1700	n/a	n/a	1
255.3420000000	n/a	255342	RewardB1	616	n/a	n/a	0
257.0250000000	n/a	257025	NeuIncorrB1	1000	n/a	n/a	1
259.0260000000	n/a	259026	ignore	1700	n/a	n/a	1
260.7250000000	n/a	260725	PenaltyB1	1620	n/a	n/a	1
263.4090000000	n/a	263409	NeuCorrB1	1000	n/a	n/a	1
265.4090000000	n/a	265409	ignore	1700	n/a	n/a	1
267.1090000000	n/a	267109	RewardB1	621	n/a	n/a	1
268.7920000000	n/a	268792	RewardCorrB1	1000	n/a	n/a	1
270.7920000000	n/a	270792	ignore	1700	n/a	n/a	1
272.4920000000	n/a	272492	PenaltyB1	811	n/a	n/a	1
274.3750000000	n/a	274375	PunCorrB1	1000	n/a	n/a	1
276.3760000000	n/a	276376	ignore	1700	n/a	n/a	1
278.0750000000	n/a	278075	RewardB1	463	n/a	n/a	1
279.6090000000	n/a	279609	RewardCorrB1	1000	n/a	n/a	1
281.6090000000	n/a	281609	ignore	1700	n/a	n/a	1
283.3090000000	n/a	283309	RewardB1	669	n/a	n/a	0
285.0420000000	n/a	285042	NeuIncorrB1	1000	n/a	n/a	1
287.0420000000	n/a	287042	ignore	1700	n/a	n/a	1
288.7420000000	n/a	288742	RewardB1	599	n/a	n/a	1
290.4090000000	n/a	290409	RewardCorrB1	1000	n/a	n/a	1
292.4090000000	n/a	292409	ignore	1700	n/a	n/a	1
294.1090000000	n/a	294109	PenaltyB1	694	n/a	n/a	1
295.8750000000	n/a	295875	NeuCorrB1	1000	n/a	n/a	1
297.8750000000	n/a	297875	ignore	1700	n/a	n/a	1
299.5750000000	n/a	299575	RewardB1	627	n/a	n/a	1
301.2750000000	n/a	301275	NeuCorrB1	1000	n/a	n/a	1
303.2750000000	n/a	303275	ignore	1700	n/a	n/a	1
304.9750000000	n/a	304975	PenaltyB1	1045	n/a	n/a	1
307.0920000000	n/a	307092	NeuCorrB1	1000	n/a	n/a	1
309.0920000000	n/a	309092	ignore	1700	n/a	n/a	1
310.7920000000	n/a	310792	RewardB1	685	n/a	n/a	0
312.5420000000	n/a	312542	NeuIncorrB1	1000	n/a	n/a	1
314.5420000000	n/a	314542	ignore	1700	n/a	n/a	1
316.2420000000	n/a	316242	PenaltyB1	762	n/a	n/a	1
318.0750000000	n/a	318075	PunCorrB1	1000	n/a	n/a	1
320.0750000000	n/a	320075	ignore	1700	n/a	n/a	1
321.7750000000	n/a	321775	RewardB1	745	n/a	n/a	1
323.5920000000	n/a	323592	RewardCorrB1	1000	n/a	n/a	1
325.5920000000	n/a	325592	ignore	1700	n/a	n/a	1
327.2920000000	n/a	327292	PenaltyB1	713	n/a	n/a	0
329.0750000000	n/a	329075	PunIncorrB1	1000	n/a	n/a	1
331.0750000000	n/a	331075	ignore	1700	n/a	n/a	1
332.7750000000	n/a	332775	PenaltyB1	790	n/a	n/a	1
334.6420000000	n/a	334642	NeuCorrB1	1000	n/a	n/a	1
336.6420000000	n/a	336642	ignore	1700	n/a	n/a	1
338.3420000000	n/a	338342	RewardB1	559	n/a	n/a	1
339.9750000000	n/a	339975	RewardCorrB1	1000	n/a	n/a	1
341.9750000000	n/a	341975	ignore	1700	n/a	n/a	1
343.6750000000	n/a	343675	PenaltyB1	823	n/a	n/a	0
345.5750000000	n/a	345575	NeuIncorrB1	1000	n/a	n/a	1
347.5750000000	n/a	347575	ignore	1700	n/a	n/a	1
349.2750000000	n/a	349275	RewardB1	641	n/a	n/a	0
350.9920000000	n/a	350992	NeuIncorrB1	1000	n/a	n/a	1
352.9920000000	n/a	352992	ignore	1700	n/a	n/a	1
357.1250000000	n/a	357125	RewardB2	696	n/a	n/a	0
358.8920000000	n/a	358892	NeuIncorrB2	1000	n/a	n/a	1
360.8920000000	n/a	360892	ignore	1700	n/a	n/a	1
362.5920000000	n/a	362592	PenaltyB2	1516	n/a	n/a	1
365.1750000000	n/a	365175	NeuCorrB2	1000	n/a	n/a	1
367.1750000000	n/a	367175	ignore	1700	n/a	n/a	1
368.8750000000	n/a	368875	RewardB2	474	n/a	n/a	0
370.4250000000	n/a	370425	NeuIncorrB2	1000	n/a	n/a	1
372.4250000000	n/a	372425	ignore	1700	n/a	n/a	1
374.1250000000	n/a	374125	RewardB2	436	n/a	n/a	1
375.6250000000	n/a	375625	NeuCorrB2	1000	n/a	n/a	1
377.6250000000	n/a	377625	ignore	1700	n/a	n/a	1
379.3250000000	n/a	379325	PenaltyB2	1599	n/a	n/a	1
381.9920000000	n/a	381992	NeuCorrB2	1000	n/a	n/a	1
383.9920000000	n/a	383992	ignore	1700	n/a	n/a	1
385.6920000000	n/a	385692	RewardB2	596	n/a	n/a	1
387.3590000000	n/a	387359	RewardCorrB2	1000	n/a	n/a	1
389.3590000000	n/a	389359	ignore	1700	n/a	n/a	1
391.0590000000	n/a	391059	PenaltyB2	908	n/a	n/a	1
393.0420000000	n/a	393042	NeuCorrB2	1000	n/a	n/a	1
395.0420000000	n/a	395042	ignore	1700	n/a	n/a	1
396.7420000000	n/a	396742	RewardB2	1211	n/a	n/a	1
399.0250000000	n/a	399025	RewardCorrB2	1000	n/a	n/a	1
401.0250000000	n/a	401025	ignore	1700	n/a	n/a	1
402.7250000000	n/a	402725	PenaltyB2	1013	n/a	n/a	0
404.8090000000	n/a	404809	PunIncorrB2	1000	n/a	n/a	1
406.8090000000	n/a	406809	ignore	1700	n/a	n/a	1
408.5090000000	n/a	408509	RewardB2	635	n/a	n/a	0
410.2090000000	n/a	410209	NeuIncorrB2	1000	n/a	n/a	1
412.2090000000	n/a	412209	ignore	1700	n/a	n/a	1
413.9090000000	n/a	413909	PenaltyB2	888	n/a	n/a	1
415.8590000000	n/a	415859	PunCorrB2	1000	n/a	n/a	1
417.8590000000	n/a	417859	ignore	1700	n/a	n/a	1
419.5590000000	n/a	419559	RewardB2	580	n/a	n/a	0
421.2090000000	n/a	421209	NeuIncorrB2	1000	n/a	n/a	1
423.2090000000	n/a	423209	ignore	1700	n/a	n/a	1
424.9090000000	n/a	424909	PenaltyB2	1144	n/a	n/a	1
427.1250000000	n/a	427125	NeuCorrB2	1000	n/a	n/a	1
429.1250000000	n/a	429125	ignore	1700	n/a	n/a	1
430.8250000000	n/a	430825	RewardB2	662	n/a	n/a	1
432.5590000000	n/a	432559	RewardCorrB2	1000	n/a	n/a	1
434.5590000000	n/a	434559	ignore	1700	n/a	n/a	1
436.2590000000	n/a	436259	PenaltyB2	1262	n/a	n/a	1
438.5920000000	n/a	438592	NeuCorrB2	1000	n/a	n/a	1
440.5920000000	n/a	440592	ignore	1700	n/a	n/a	1
442.2920000000	n/a	442292	RewardB2	524	n/a	n/a	1
443.8920000000	n/a	443892	NeuCorrB2	1000	n/a	n/a	1
445.8920000000	n/a	445892	ignore	1700	n/a	n/a	1
447.5920000000	n/a	447592	PenaltyB2	831	n/a	n/a	1
449.4920000000	n/a	449492	NeuCorrB2	1000	n/a	n/a	1
451.4920000000	n/a	451492	ignore	1700	n/a	n/a	1
453.1920000000	n/a	453192	RewardB2	659	n/a	n/a	1
454.9250000000	n/a	454925	RewardCorrB2	1000	n/a	n/a	1
456.9250000000	n/a	456925	ignore	1700	n/a	n/a	1
458.6250000000	n/a	458625	PenaltyB2	1164	n/a	n/a	1
460.8590000000	n/a	460859	NeuCorrB2	1000	n/a	n/a	1
462.8590000000	n/a	462859	ignore	1700	n/a	n/a	1
464.5580000000	n/a	464558	RewardB2	665	n/a	n/a	0
466.2920000000	n/a	466292	NeuIncorrB2	1000	n/a	n/a	1
468.2920000000	n/a	468292	ignore	1700	n/a	n/a	1
469.9920000000	n/a	469992	PenaltyB2	679	n/a	n/a	1
471.7420000000	n/a	471742	PunCorrB2	1000	n/a	n/a	1
473.7420000000	n/a	473742	ignore	1700	n/a	n/a	1
475.4420000000	n/a	475442	PenaltyB2	789	n/a	n/a	1
477.3080000000	n/a	477308	NeuCorrB2	1000	n/a	n/a	1
479.3090000000	n/a	479309	ignore	1700	n/a	n/a	1
481.0080000000	n/a	481008	PenaltyB2	755	n/a	n/a	1
482.8420000000	n/a	482842	NeuCorrB2	1000	n/a	n/a	1
484.8420000000	n/a	484842	ignore	1700	n/a	n/a	1
486.5420000000	n/a	486542	RewardB2	783	n/a	n/a	1
488.3920000000	n/a	488392	RewardCorrB2	1000	n/a	n/a	1
490.3920000000	n/a	490392	ignore	1700	n/a	n/a	1
492.0920000000	n/a	492092	RewardB2	1103	n/a	n/a	0
494.2580000000	n/a	494258	RewIncorrB2	1000	n/a	n/a	1
496.2590000000	n/a	496259	ignore	1700	n/a	n/a	1
497.9580000000	n/a	497958	RewardB2	837	n/a	n/a	0
499.8580000000	n/a	499858	NeuIncorrB2	1000	n/a	n/a	1
501.8590000000	n/a	501859	ignore	1700	n/a	n/a	1
503.5580000000	n/a	503558	PenaltyB2	1029	n/a	n/a	1
505.6580000000	n/a	505658	NeuCorrB2	1000	n/a	n/a	1
507.6580000000	n/a	507658	ignore	1700	n/a	n/a	1
509.3580000000	n/a	509358	PenaltyB2	928	n/a	n/a	1
511.3580000000	n/a	511358	NeuCorrB2	1000	n/a	n/a	1
513.3580000000	n/a	513358	ignore	1700	n/a	n/a	1
515.0580000000	n/a	515058	RewardB2	576	n/a	n/a	1
516.7080000000	n/a	516708	RewardCorrB2	1000	n/a	n/a	1
518.7080000000	n/a	518708	ignore	1700	n/a	n/a	1
520.4080000000	n/a	520408	PenaltyB2	701	n/a	n/a	1
522.1750000000	n/a	522175	NeuCorrB2	1000	n/a	n/a	1
524.1750000000	n/a	524175	ignore	1700	n/a	n/a	1
525.8750000000	n/a	525875	RewardB2	740	n/a	n/a	0
527.6920000000	n/a	527692	RewIncorrB2	1000	n/a	n/a	1
529.6920000000	n/a	529692	ignore	1700	n/a	n/a	1
531.3920000000	n/a	531392	PenaltyB2	1234	n/a	n/a	1
533.6920000000	n/a	533692	NeuCorrB2	1000	n/a	n/a	1
535.6920000000	n/a	535692	ignore	1700	n/a	n/a	1
537.3920000000	n/a	537392	RewardB2	779	n/a	n/a	1
539.2420000000	n/a	539242	RewardCorrB2	1000	n/a	n/a	1
541.2420000000	n/a	541242	STATUS	1700	n/a	n/a	1
542.9420000000	n/a	542942	PenaltyB2	818	n/a	n/a	1
544.8250000000	n/a	544825	NeuCorrB2	1000	n/a	n/a	1
546.8250000000	n/a	546825	STATUS	1700	n/a	n/a	1
548.5250000000	n/a	548525	PenaltyB2	961	n/a	n/a	1
550.5580000000	n/a	550558	PunCorrB2	1000	n/a	n/a	1
552.5580000000	n/a	552558	ignore	1700	n/a	n/a	1
554.2580000000	n/a	554258	RewardB2	620	n/a	n/a	0
555.9420000000	n/a	555942	NeuIncorrB2	1000	n/a	n/a	1
557.9420000000	n/a	557942	ignore	1700	n/a	n/a	1
559.6420000000	n/a	559642	PenaltyB2	734	n/a	n/a	1
561.4420000000	n/a	561442	NeuCorrB2	1000	n/a	n/a	1
563.4420000000	n/a	563442	ignore	1700	n/a	n/a	1
565.1420000000	n/a	565142	RewardB2	490	n/a	n/a	1
566.7080000000	n/a	566708	RewardCorrB2	1000	n/a	n/a	1
568.7080000000	n/a	568708	STATUS	1700	n/a	n/a	1
570.4080000000	n/a	570408	PenaltyB2	950	n/a	n/a	1
572.4250000000	n/a	572425	PunCorrB2	1000	n/a	n/a	1
574.4250000000	n/a	574425	ignore	1700	n/a	n/a	1
576.1250000000	n/a	576125	RewardB2	607	n/a	n/a	0
577.8080000000	n/a	577808	NeuIncorrB2	1000	n/a	n/a	1
579.8080000000	n/a	579808	ignore	1700	n/a	n/a	1
595.7920000000	n/a	595792	RewardB3	983	n/a	n/a	0
597.8420000000	n/a	597842	NeuIncorrB3	1000	n/a	n/a	1
599.8420000000	n/a	599842	ignore	1700	n/a	n/a	1
601.5420000000	n/a	601542	PenaltyB3	788	n/a	n/a	1
603.3920000000	n/a	603392	PunCorrB3	1000	n/a	n/a	1
605.3920000000	n/a	605392	ignore	1700	n/a	n/a	1
607.0920000000	n/a	607092	RewardB3	430	n/a	n/a	1
608.5920000000	n/a	608592	RewardCorrB3	1000	n/a	n/a	1
610.5920000000	n/a	610592	ignore	1700	n/a	n/a	1
612.2920000000	n/a	612292	PenaltyB3	846	n/a	n/a	0
614.2080000000	n/a	614208	PunIncorrB3	1000	n/a	n/a	1
616.2080000000	n/a	616208	ignore	1700	n/a	n/a	1
617.9080000000	n/a	617908	PenaltyB3	611	n/a	n/a	1
619.5920000000	n/a	619592	NeuCorrB3	1000	n/a	n/a	1
621.5920000000	n/a	621592	ignore	1700	n/a	n/a	1
623.2920000000	n/a	623292	RewardB3	412	n/a	n/a	1
624.7750000000	n/a	624775	RewardCorrB3	1000	n/a	n/a	1
626.7750000000	n/a	626775	ignore	1700	n/a	n/a	1
628.4750000000	n/a	628475	PenaltyB3	933	n/a	n/a	1
630.4750000000	n/a	630475	PunCorrB3	1000	n/a	n/a	1
632.4750000000	n/a	632475	ignore	1700	n/a	n/a	1
634.1750000000	n/a	634175	RewardB3	532	n/a	n/a	0
635.7750000000	n/a	635775	NeuIncorrB3	1000	n/a	n/a	1
637.7750000000	n/a	637775	ignore	1700	n/a	n/a	1
639.4750000000	n/a	639475	PenaltyB3	799	n/a	n/a	1
641.3420000000	n/a	641342	NeuCorrB3	1000	n/a	n/a	1
643.3420000000	n/a	643342	ignore	1700	n/a	n/a	1
645.0420000000	n/a	645042	RewardB3	487	n/a	n/a	1
646.5920000000	n/a	646592	NeuCorrB3	1000	n/a	n/a	1
648.5920000000	n/a	648592	ignore	1700	n/a	n/a	1
650.2920000000	n/a	650292	PenaltyB3	659	n/a	n/a	1
652.0250000000	n/a	652025	NeuCorrB3	1000	n/a	n/a	1
654.0250000000	n/a	654025	ignore	1700	n/a	n/a	1
655.7250000000	n/a	655725	RewardB3	664	n/a	n/a	1
657.4580000000	n/a	657458	RewardCorrB3	1000	n/a	n/a	1
659.4580000000	n/a	659458	ignore	1700	n/a	n/a	1
661.1580000000	n/a	661158	RewardB3	1322	n/a	n/a	0
663.5580000000	n/a	663558	NeuIncorrB3	1000	n/a	n/a	1
665.5580000000	n/a	665558	ignore	1700	n/a	n/a	1
667.2580000000	n/a	667258	RewardB3	662	n/a	n/a	1
668.9920000000	n/a	668992	RewardCorrB3	1000	n/a	n/a	1
670.9920000000	n/a	670992	STATUS	1700	n/a	n/a	1
672.6920000000	n/a	672692	PenaltyB3	827	n/a	n/a	1
674.5920000000	n/a	674592	PunCorrB3	1000	n/a	n/a	1
676.5920000000	n/a	676592	ignore	1700	n/a	n/a	1
678.2920000000	n/a	678292	RewardB3	587	n/a	n/a	1
679.9420000000	n/a	679942	RewardCorrB3	1000	n/a	n/a	1
681.9420000000	n/a	681942	STATUS	1700	n/a	n/a	1
683.6410000000	n/a	683641	PenaltyB3	1357	n/a	n/a	1
686.0750000000	n/a	686075	NeuCorrB3	1000	n/a	n/a	1
688.0750000000	n/a	688075	STATUS	1700	n/a	n/a	1
689.7750000000	n/a	689775	RewardB3	563	n/a	n/a	0
691.4080000000	n/a	691408	NeuIncorrB3	1000	n/a	n/a	1
693.4080000000	n/a	693408	STATUS	1700	n/a	n/a	1
695.1080000000	n/a	695108	RewardB3	757	n/a	n/a	1
696.9410000000	n/a	696941	RewardCorrB3	1000	n/a	n/a	1
698.9420000000	n/a	698942	STATUS	1700	n/a	n/a	1
700.6410000000	n/a	700641	RewardB3	586	n/a	n/a	1
702.2910000000	n/a	702291	NeuCorrB3	1000	n/a	n/a	1
704.2920000000	n/a	704292	STATUS	1700	n/a	n/a	1
705.9910000000	n/a	705991	RewardB3	593	n/a	n/a	0
707.6580000000	n/a	707658	NeuIncorrB3	1000	n/a	n/a	1
709.6580000000	n/a	709658	STATUS	1700	n/a	n/a	1
711.3580000000	n/a	711358	RewardB3	486	n/a	n/a	0
712.9080000000	n/a	712908	NeuIncorrB3	1000	n/a	n/a	1
714.9080000000	n/a	714908	STATUS	1700	n/a	n/a	1
716.6080000000	n/a	716608	PenaltyB3	832	n/a	n/a	1
718.5080000000	n/a	718508	NeuCorrB3	1000	n/a	n/a	1
720.5080000000	n/a	720508	STATUS	1700	n/a	n/a	1
722.2080000000	n/a	722208	RewardB3	1816	n/a	n/a	0
725.0910000000	n/a	725091	RewIncorrB3	1000	n/a	n/a	1
727.0910000000	n/a	727091	STATUS	1700	n/a	n/a	1
728.7910000000	n/a	728791	PenaltyB3	525	n/a	n/a	1
730.3910000000	n/a	730391	NeuCorrB3	1000	n/a	n/a	1
732.3910000000	n/a	732391	STATUS	1700	n/a	n/a	1
734.0910000000	n/a	734091	PenaltyB3	866	n/a	n/a	1
736.0250000000	n/a	736025	NeuCorrB3	1000	n/a	n/a	1
738.0250000000	n/a	738025	STATUS	1700	n/a	n/a	1
739.7250000000	n/a	739725	RewardB3	638	n/a	n/a	0
741.4250000000	n/a	741425	NeuIncorrB3	1000	n/a	n/a	1
743.4250000000	n/a	743425	STATUS	1700	n/a	n/a	1
745.1250000000	n/a	745125	PenaltyB3	748	n/a	n/a	1
746.9410000000	n/a	746941	NeuCorrB3	1000	n/a	n/a	1
748.9410000000	n/a	748941	STATUS	1700	n/a	n/a	1
750.6410000000	n/a	750641	RewardB3	1580	n/a	n/a	0
753.2910000000	n/a	753291	RewIncorrB3	1000	n/a	n/a	1
755.2910000000	n/a	755291	STATUS	1700	n/a	n/a	1
756.9910000000	n/a	756991	PenaltyB3	1103	n/a	n/a	1
759.1580000000	n/a	759158	NeuCorrB3	1000	n/a	n/a	1
761.1580000000	n/a	761158	STATUS	1700	n/a	n/a	1
762.8580000000	n/a	762858	RewardB3	1812	n/a	n/a	1
765.7410000000	n/a	765741	RewardCorrB3	1000	n/a	n/a	1
767.7410000000	n/a	767741	STATUS	1700	n/a	n/a	1
769.4410000000	n/a	769441	PenaltyB3	1009	n/a	n/a	1
771.5250000000	n/a	771525	PunCorrB3	1000	n/a	n/a	1
773.5250000000	n/a	773525	STATUS	1700	n/a	n/a	1
775.2250000000	n/a	775225	PenaltyB3	1395	n/a	n/a	0
777.6910000000	n/a	777691	PunIncorrB3	1000	n/a	n/a	1
779.6910000000	n/a	779691	STATUS	1700	n/a	n/a	1
781.3910000000	n/a	781391	PenaltyB3	918	n/a	n/a	1
783.3750000000	n/a	783375	NeuCorrB3	1000	n/a	n/a	1
785.3750000000	n/a	785375	STATUS	1700	n/a	n/a	1
787.0750000000	n/a	787075	PenaltyB3	671	n/a	n/a	1
788.8080000000	n/a	788808	NeuCorrB3	1000	n/a	n/a	1
790.8080000000	n/a	790808	STATUS	1700	n/a	n/a	1
792.5080000000	n/a	792508	RewardB3	579	n/a	n/a	1
794.1580000000	n/a	794158	RewardCorrB3	1000	n/a	n/a	1
796.1580000000	n/a	796158	STATUS	1700	n/a	n/a	1
797.8580000000	n/a	797858	RewardB3	970	n/a	n/a	0
799.8910000000	n/a	799891	NeuIncorrB3	1000	n/a	n/a	1
801.8910000000	n/a	801891	STATUS	1700	n/a	n/a	1
803.5910000000	n/a	803591	PenaltyB3	1724	n/a	n/a	1
806.3910000000	n/a	806391	NeuCorrB3	1000	n/a	n/a	1
808.3910000000	n/a	808391	STATUS	1700	n/a	n/a	1
810.0910000000	n/a	810091	PenaltyB3	700	n/a	n/a	1
811.8580000000	n/a	811858	NeuCorrB3	1000	n/a	n/a	1
813.8580000000	n/a	813858	STATUS	1700	n/a	n/a	1
815.5580000000	n/a	815558	PenaltyB3	1818	n/a	n/a	1
818.4410000000	n/a	818441	NeuCorrB3	1000	n/a	n/a	1
820.4410000000	n/a	820441	STATUS	1700	n/a	n/a	1
826.1250000000	n/a	826125	RewardB4	1043	n/a	n/a	0
828.2410000000	n/a	828241	NeuIncorrB4	1000	n/a	n/a	1
830.2410000000	n/a	830241	STATUS	1700	n/a	n/a	1
831.9410000000	n/a	831941	PenaltyB4	858	n/a	n/a	1
833.8750000000	n/a	833875	PunCorrB4	1000	n/a	n/a	1
835.8750000000	n/a	835875	STATUS	1700	n/a	n/a	1
837.5750000000	n/a	837575	RewardB4	672	n/a	n/a	1
839.3250000000	n/a	839325	RewardCorrB4	1000	n/a	n/a	1
841.3250000000	n/a	841325	STATUS	1700	n/a	n/a	1
843.0250000000	n/a	843025	PenaltyB4	627	n/a	n/a	1
844.7250000000	n/a	844725	NeuCorrB4	1000	n/a	n/a	1
846.7250000000	n/a	846725	STATUS	1700	n/a	n/a	1
848.4250000000	n/a	848425	RewardB4	632	n/a	n/a	0
850.1250000000	n/a	850125	NeuIncorrB4	1000	n/a	n/a	1
852.1250000000	n/a	852125	STATUS	1700	n/a	n/a	1
853.8250000000	n/a	853825	PenaltyB4	1658	n/a	n/a	1
856.5580000000	n/a	856558	PunCorrB4	1000	n/a	n/a	1
858.5580000000	n/a	858558	STATUS	1700	n/a	n/a	1
860.2580000000	n/a	860258	PenaltyB4	596	n/a	n/a	1
861.9250000000	n/a	861925	NeuCorrB4	1000	n/a	n/a	1
863.9250000000	n/a	863925	STATUS	1700	n/a	n/a	1
865.6250000000	n/a	865625	RewardB4	672	n/a	n/a	1
867.3750000000	n/a	867375	RewardCorrB4	1000	n/a	n/a	1
869.3750000000	n/a	869375	STATUS	1700	n/a	n/a	1
871.0750000000	n/a	871075	PenaltyB4	927	n/a	n/a	1
873.0750000000	n/a	873075	NeuCorrB4	1000	n/a	n/a	1
875.0750000000	n/a	875075	STATUS	1700	n/a	n/a	1
876.7750000000	n/a	876775	RewardB4	735	n/a	n/a	0
878.5750000000	n/a	878575	RewIncorrB4	1000	n/a	n/a	1
880.5750000000	n/a	880575	STATUS	1700	n/a	n/a	1
882.2750000000	n/a	882275	PenaltyB4	586	n/a	n/a	1
883.9250000000	n/a	883925	NeuCorrB4	1000	n/a	n/a	1
885.9250000000	n/a	885925	STATUS	1700	n/a	n/a	1
887.6250000000	n/a	887625	RewardB4	962	n/a	n/a	1
889.6580000000	n/a	889658	RewardCorrB4	1000	n/a	n/a	1
891.6580000000	n/a	891658	STATUS	1700	n/a	n/a	1
893.3580000000	n/a	893358	PenaltyB4	810	n/a	n/a	1
895.2410000000	n/a	895241	NeuCorrB4	1000	n/a	n/a	1
897.2410000000	n/a	897241	STATUS	1700	n/a	n/a	1
898.9410000000	n/a	898941	PenaltyB4	961	n/a	n/a	1
900.9750000000	n/a	900975	NeuCorrB4	1000	n/a	n/a	1
902.9750000000	n/a	902975	STATUS	1700	n/a	n/a	1
904.6740000000	n/a	904674	RewardB4	1214	n/a	n/a	0
906.9580000000	n/a	906958	NeuIncorrB4	1000	n/a	n/a	1
908.9580000000	n/a	908958	STATUS	1700	n/a	n/a	1
910.6580000000	n/a	910658	RewardB4	1199	n/a	n/a	0
912.9240000000	n/a	912924	RewIncorrB4	1000	n/a	n/a	1
914.9250000000	n/a	914925	STATUS	1700	n/a	n/a	1
916.6240000000	n/a	916624	RewardB4	654	n/a	n/a	1
918.3410000000	n/a	918341	RewardCorrB4	1000	n/a	n/a	1
920.3410000000	n/a	920341	STATUS	1700	n/a	n/a	1
922.0410000000	n/a	922041	PenaltyB4	819	n/a	n/a	1
923.9240000000	n/a	923924	NeuCorrB4	1000	n/a	n/a	1
925.9250000000	n/a	925925	STATUS	1700	n/a	n/a	1
927.6240000000	n/a	927624	PenaltyB4	1573	n/a	n/a	1
930.2740000000	n/a	930274	NeuCorrB4	1000	n/a	n/a	1
932.2750000000	n/a	932275	STATUS	1700	n/a	n/a	1
933.9740000000	n/a	933974	PenaltyB4	1290	n/a	n/a	1
936.3410000000	n/a	936341	PunCorrB4	1000	n/a	n/a	1
938.3410000000	n/a	938341	STATUS	1700	n/a	n/a	1
940.0410000000	n/a	940041	RewardB4	714	n/a	n/a	0
941.8240000000	n/a	941824	NeuIncorrB4	1000	n/a	n/a	1
943.8240000000	n/a	943824	STATUS	1700	n/a	n/a	1
945.5240000000	n/a	945524	PenaltyB4	580	n/a	n/a	1
947.1740000000	n/a	947174	NeuCorrB4	1000	n/a	n/a	1
949.1740000000	n/a	949174	STATUS	1700	n/a	n/a	1
950.8740000000	n/a	950874	RewardB4	644	n/a	n/a	1
952.5910000000	n/a	952591	RewardCorrB4	1000	n/a	n/a	1
954.5910000000	n/a	954591	STATUS	1700	n/a	n/a	1
956.2910000000	n/a	956291	PenaltyB4	732	n/a	n/a	1
958.0910000000	n/a	958091	NeuCorrB4	1000	n/a	n/a	1
960.0910000000	n/a	960091	STATUS	1700	n/a	n/a	1
961.7910000000	n/a	961791	RewardB4	1203	n/a	n/a	1
964.0580000000	n/a	964058	NeuCorrB4	1000	n/a	n/a	1
966.0580000000	n/a	966058	STATUS	1700	n/a	n/a	1
967.7580000000	n/a	967758	PenaltyB4	956	n/a	n/a	1
969.7910000000	n/a	969791	NeuCorrB4	1000	n/a	n/a	1
971.7910000000	n/a	971791	STATUS	1700	n/a	n/a	1
973.4910000000	n/a	973491	RewardB4	542	n/a	n/a	1
975.1080000000	n/a	975108	RewardCorrB4	1000	n/a	n/a	1
977.1080000000	n/a	977108	STATUS	1700	n/a	n/a	1
978.8080000000	n/a	978808	PenaltyB4	984	n/a	n/a	1
980.8580000000	n/a	980858	NeuCorrB4	1000	n/a	n/a	1
982.8580000000	n/a	982858	STATUS	1700	n/a	n/a	1
984.5580000000	n/a	984558	RewardB4	875	n/a	n/a	0
986.5080000000	n/a	986508	NeuIncorrB4	1000	n/a	n/a	1
988.5080000000	n/a	988508	STATUS	1700	n/a	n/a	1
990.2080000000	n/a	990208	PenaltyB4	571	n/a	n/a	1
991.8410000000	n/a	991841	PunCorrB4	1000	n/a	n/a	1
993.8410000000	n/a	993841	STATUS	1700	n/a	n/a	1
995.5410000000	n/a	995541	RewardB4	1207	n/a	n/a	0
997.8240000000	n/a	997824	NeuIncorrB4	1000	n/a	n/a	1
999.8240000000	n/a	999824	STATUS	1700	n/a	n/a	1
1001.5240000000	n/a	1001524	PenaltyB4	596	n/a	n/a	1
1003.1910000000	n/a	1003191	NeuCorrB4	1000	n/a	n/a	1
1005.1910000000	n/a	1005191	STATUS	1700	n/a	n/a	1
1006.8910000000	n/a	1006891	RewardB4	500	n/a	n/a	1
1008.4580000000	n/a	1008458	RewardCorrB4	1000	n/a	n/a	1
1010.4580000000	n/a	1010458	STATUS	1700	n/a	n/a	1
1012.1580000000	n/a	1012158	PenaltyB4	679	n/a	n/a	1
1013.9080000000	n/a	1013908	NeuCorrB4	1000	n/a	n/a	1
1015.9080000000	n/a	1015908	STATUS	1700	n/a	n/a	1
1017.6080000000	n/a	1017608	RewardB4	807	n/a	n/a	1
1019.4910000000	n/a	1019491	RewardCorrB4	1000	n/a	n/a	1
1021.4910000000	n/a	1021491	STATUS	1700	n/a	n/a	1
1023.1910000000	n/a	1023191	PenaltyB4	1183	n/a	n/a	1
1025.4410000000	n/a	1025441	NeuCorrB4	1000	n/a	n/a	1
1027.4410000000	n/a	1027441	STATUS	1700	n/a	n/a	1
1029.1410000000	n/a	1029141	RewardB4	1668	n/a	n/a	1
1031.8740000000	n/a	1031874	NeuCorrB4	1000	n/a	n/a	1
1033.8740000000	n/a	1033874	STATUS	1700	n/a	n/a	1
1035.5740000000	n/a	1035574	RewardB4	683	n/a	n/a	0
1037.3240000000	n/a	1037324	NeuIncorrB4	1000	n/a	n/a	1
1039.3240000000	n/a	1039324	STATUS	1700	n/a	n/a	1
1041.0240000000	n/a	1041024	PenaltyB4	582	n/a	n/a	1
1042.6740000000	n/a	1042674	NeuCorrB4	1000	n/a	n/a	1
1044.6740000000	n/a	1044674	STATUS	1700	n/a	n/a	1
1046.3740000000	n/a	1046374	RewardB4	1168	n/a	n/a	0
1048.6080000000	n/a	1048608	NeuIncorrB4	1000	n/a	n/a	1
1050.6080000000	n/a	1050608	STATUS	1700	n/a	n/a	1
