onset	duration	sample	trial_type	response_time	stim_file	value	correct
4.2950000000	n/a	4295	FrequentFixedSOA	1633	n/a	n/a	1
5.9280000000	n/a	5928	FrequentFixedSOA	1633	n/a	n/a	1
7.5610000000	n/a	7561	FrequentFixedSOA	1633	n/a	n/a	1
9.1950000000	n/a	9195	FrequentFixedSOA	1633	n/a	n/a	1
10.8280000000	n/a	10828	FrequentFixedSOA	1633	n/a	n/a	1
12.4610000000	n/a	12461	FrequentFixedSOA	1633	n/a	n/a	1
14.0950000000	n/a	14095	FrequentFixedSOA	1633	n/a	n/a	1
15.7280000000	n/a	15728	FrequentFixedSOA	1633	n/a	n/a	1
17.3610000000	n/a	17361	FrequentFixedSOA	1633	n/a	n/a	1
18.9950000000	n/a	18995	FrequentFixedSOA	1633	n/a	n/a	1
20.6280000000	n/a	20628	NovelFixedSOA	1633	n/a	n/a	1
22.2610000000	n/a	22261	FrequentFixedSOA	1633	n/a	n/a	1
23.8950000000	n/a	23895	GoFixedSOA	843	n/a	n/a	1
25.5280000000	n/a	25528	FrequentFixedSOA	1633	n/a	n/a	1
27.1610000000	n/a	27161	FrequentFixedSOA	1633	n/a	n/a	1
28.7950000000	n/a	28795	FrequentFixedSOA	1633	n/a	n/a	1
30.4280000000	n/a	30428	GoFixedSOA	510	n/a	n/a	1
32.0610000000	n/a	32061	FrequentFixedSOA	1633	n/a	n/a	1
33.6950000000	n/a	33695	FrequentFixedSOA	1633	n/a	n/a	1
35.3280000000	n/a	35328	FrequentFixedSOA	1633	n/a	n/a	1
36.9610000000	n/a	36961	NovelFixedSOA	1633	n/a	n/a	1
38.5950000000	n/a	38595	FrequentFixedSOA	1633	n/a	n/a	1
40.2280000000	n/a	40228	FrequentFixedSOA	1633	n/a	n/a	1
41.8610000000	n/a	41861	FrequentFixedSOA	1633	n/a	n/a	1
43.4950000000	n/a	43495	GoFixedSOA	509	n/a	n/a	1
45.1280000000	n/a	45128	FrequentFixedSOA	1633	n/a	n/a	1
46.7610000000	n/a	46761	NovelFixedSOA	1633	n/a	n/a	1
48.3950000000	n/a	48395	FrequentFixedSOA	1633	n/a	n/a	1
50.0280000000	n/a	50028	FrequentFixedSOA	1633	n/a	n/a	1
51.6610000000	n/a	51661	FrequentFixedSOA	1633	n/a	n/a	1
53.2950000000	n/a	53295	GoFixedSOA	489	n/a	n/a	1
54.9280000000	n/a	54928	FrequentFixedSOA	1633	n/a	n/a	1
56.5610000000	n/a	56561	GoFixedSOA	484	n/a	n/a	1
58.1950000000	n/a	58195	FrequentFixedSOA	1633	n/a	n/a	1
59.8280000000	n/a	59828	FrequentFixedSOA	1633	n/a	n/a	1
61.4610000000	n/a	61461	GoFixedSOA	437	n/a	n/a	1
63.0950000000	n/a	63095	FrequentFixedSOA	1633	n/a	n/a	1
64.7280000000	n/a	64728	FrequentFixedSOA	1633	n/a	n/a	1
66.3610000000	n/a	66361	FrequentFixedSOA	1633	n/a	n/a	1
67.9950000000	n/a	67995	FrequentFixedSOA	1633	n/a	n/a	1
69.6280000000	n/a	69628	NovelFixedSOA	1633	n/a	n/a	1
71.2610000000	n/a	71261	FrequentFixedSOA	1633	n/a	n/a	1
72.8950000000	n/a	72895	NovelFixedSOA	1633	n/a	n/a	1
74.5280000000	n/a	74528	FrequentFixedSOA	1633	n/a	n/a	1
76.1610000000	n/a	76161	FrequentFixedSOA	1633	n/a	n/a	1
77.7950000000	n/a	77795	GoFixedSOA	482	n/a	n/a	1
79.4280000000	n/a	79428	FrequentFixedSOA	1633	n/a	n/a	1
81.0610000000	n/a	81061	FrequentFixedSOA	1633	n/a	n/a	1
82.6950000000	n/a	82695	FrequentFixedSOA	1633	n/a	n/a	1
84.3280000000	n/a	84328	FrequentFixedSOA	1633	n/a	n/a	1
85.9610000000	n/a	85961	NovelFixedSOA	1633	n/a	n/a	1
87.5950000000	n/a	87595	FrequentFixedSOA	1633	n/a	n/a	1
89.2280000000	n/a	89228	FrequentFixedSOA	1633	n/a	n/a	1
90.8610000000	n/a	90861	FrequentFixedSOA	1633	n/a	n/a	1
92.4950000000	n/a	92495	FrequentFixedSOA	1633	n/a	n/a	1
94.1280000000	n/a	94128	GoFixedSOA	359	n/a	n/a	1
95.7610000000	n/a	95761	FrequentFixedSOA	1633	n/a	n/a	1
97.3950000000	n/a	97395	FrequentFixedSOA	1633	n/a	n/a	1
99.0280000000	n/a	99028	NovelFixedSOA	1633	n/a	n/a	1
100.6610000000	n/a	100661	FrequentFixedSOA	1633	n/a	n/a	1
102.2940000000	n/a	102294	FrequentFixedSOA	1633	n/a	n/a	1
103.9280000000	n/a	103928	GoFixedSOA	494	n/a	n/a	1
105.5610000000	n/a	105561	FrequentFixedSOA	1633	n/a	n/a	1
107.1940000000	n/a	107194	FrequentFixedSOA	1633	n/a	n/a	1
108.8280000000	n/a	108828	FrequentFixedSOA	1633	n/a	n/a	1
110.4610000000	n/a	110461	FrequentFixedSOA	1633	n/a	n/a	1
112.0940000000	n/a	112094	NovelFixedSOA	1633	n/a	n/a	1
113.7280000000	n/a	113728	FrequentFixedSOA	1633	n/a	n/a	1
115.3610000000	n/a	115361	FrequentFixedSOA	1633	n/a	n/a	1
116.9940000000	n/a	116994	GoFixedSOA	556	n/a	n/a	1
118.6280000000	n/a	118628	FrequentVariableSOA	1733	n/a	n/a	1
120.3610000000	n/a	120361	FrequentVariableSOA	1783	n/a	n/a	1
122.1440000000	n/a	122144	FrequentVariableSOA	1550	n/a	n/a	1
123.6940000000	n/a	123694	FrequentVariableSOA	1566	n/a	n/a	1
125.2610000000	n/a	125261	FrequentVariableSOA	1516	n/a	n/a	1
126.7780000000	n/a	126778	FrequentVariableSOA	1650	n/a	n/a	1
128.4280000000	n/a	128428	FrequentVariableSOA	1666	n/a	n/a	1
130.0940000000	n/a	130094	FrequentVariableSOA	1616	n/a	n/a	1
131.7110000000	n/a	131711	FrequentVariableSOA	1716	n/a	n/a	1
133.4280000000	n/a	133428	FrequentVariableSOA	1666	n/a	n/a	1
135.0940000000	n/a	135094	NovelVariableSOA	1550	n/a	n/a	1
136.6440000000	n/a	136644	FrequentVariableSOA	1650	n/a	n/a	1
138.2940000000	n/a	138294	GoVariableSOA	496	n/a	n/a	1
139.8440000000	n/a	139844	FrequentVariableSOA	1733	n/a	n/a	1
141.5780000000	n/a	141578	FrequentVariableSOA	1616	n/a	n/a	1
143.1940000000	n/a	143194	FrequentVariableSOA	1766	n/a	n/a	1
144.9610000000	n/a	144961	GoVariableSOA	462	n/a	n/a	1
146.6440000000	n/a	146644	FrequentVariableSOA	1716	n/a	n/a	1
148.3610000000	n/a	148361	FrequentVariableSOA	1800	n/a	n/a	1
150.1610000000	n/a	150161	FrequentVariableSOA	1616	n/a	n/a	1
151.7780000000	n/a	151778	NovelVariableSOA	1750	n/a	n/a	1
153.5280000000	n/a	153528	FrequentVariableSOA	1750	n/a	n/a	1
155.2780000000	n/a	155278	FrequentVariableSOA	1666	n/a	n/a	1
156.9440000000	n/a	156944	FrequentVariableSOA	1700	n/a	n/a	1
158.6440000000	n/a	158644	GoVariableSOA	433	n/a	n/a	1
160.2610000000	n/a	160261	FrequentVariableSOA	1666	n/a	n/a	1
161.9280000000	n/a	161928	NovelVariableSOA	1666	n/a	n/a	1
163.5940000000	n/a	163594	FrequentVariableSOA	1583	n/a	n/a	1
165.1780000000	n/a	165178	FrequentVariableSOA	1800	n/a	n/a	1
166.9780000000	n/a	166978	FrequentVariableSOA	1633	n/a	n/a	1
168.6110000000	n/a	168611	GoVariableSOA	637	n/a	n/a	1
170.1610000000	n/a	170161	FrequentVariableSOA	1700	n/a	n/a	1
171.8610000000	n/a	171861	GoVariableSOA	567	n/a	n/a	1
173.4280000000	n/a	173428	FrequentVariableSOA	1700	n/a	n/a	1
175.1280000000	n/a	175128	FrequentVariableSOA	1766	n/a	n/a	1
176.8940000000	n/a	176894	GoVariableSOA	428	n/a	n/a	1
178.4280000000	n/a	178428	FrequentVariableSOA	1716	n/a	n/a	1
180.1440000000	n/a	180144	FrequentVariableSOA	1550	n/a	n/a	1
181.6940000000	n/a	181694	FrequentVariableSOA	1533	n/a	n/a	1
183.2280000000	n/a	183228	FrequentVariableSOA	1550	n/a	n/a	1
184.7780000000	n/a	184778	NovelVariableSOA	1700	n/a	n/a	1
186.4780000000	n/a	186478	FrequentVariableSOA	1716	n/a	n/a	1
188.1940000000	n/a	188194	NovelVariableSOA	1800	n/a	n/a	1
189.9940000000	n/a	189994	FrequentVariableSOA	1583	n/a	n/a	1
191.5780000000	n/a	191578	FrequentVariableSOA	1533	n/a	n/a	1
193.1110000000	n/a	193111	GoVariableSOA	489	n/a	n/a	1
194.7440000000	n/a	194744	FrequentVariableSOA	1666	n/a	n/a	1
196.4110000000	n/a	196411	FrequentVariableSOA	1600	n/a	n/a	1
198.0110000000	n/a	198011	FrequentVariableSOA	1750	n/a	n/a	1
199.7610000000	n/a	199761	FrequentVariableSOA	1550	n/a	n/a	1
201.3110000000	n/a	201311	NovelVariableSOA	1616	n/a	n/a	1
202.9280000000	n/a	202928	FrequentVariableSOA	1566	n/a	n/a	1
204.4940000000	n/a	204494	FrequentVariableSOA	1716	n/a	n/a	1
206.2110000000	n/a	206211	FrequentVariableSOA	1733	n/a	n/a	1
207.9440000000	n/a	207944	FrequentVariableSOA	1783	n/a	n/a	1
209.7280000000	n/a	209728	GoVariableSOA	477	n/a	n/a	1
211.4610000000	n/a	211461	FrequentVariableSOA	1583	n/a	n/a	1
213.0440000000	n/a	213044	FrequentVariableSOA	1583	n/a	n/a	1
214.6280000000	n/a	214628	NovelVariableSOA	1600	n/a	n/a	1
216.2280000000	n/a	216228	FrequentVariableSOA	1750	n/a	n/a	1
217.9780000000	n/a	217978	FrequentVariableSOA	1700	n/a	n/a	1
219.6780000000	n/a	219678	GoVariableSOA	491	n/a	n/a	1
221.4610000000	n/a	221461	FrequentVariableSOA	1766	n/a	n/a	1
223.2280000000	n/a	223228	FrequentVariableSOA	1616	n/a	n/a	1
224.8440000000	n/a	224844	FrequentVariableSOA	1500	n/a	n/a	1
226.3440000000	n/a	226344	FrequentVariableSOA	1566	n/a	n/a	1
227.9110000000	n/a	227911	NovelVariableSOA	1716	n/a	n/a	1
229.6280000000	n/a	229628	FrequentVariableSOA	1533	n/a	n/a	1
231.1610000000	n/a	231161	FrequentVariableSOA	1566	n/a	n/a	1
232.7280000000	n/a	232728	GoVariableSOA	348	n/a	n/a	1
234.2940000000	n/a	234294	FrequentFixedSOA	1633	n/a	n/a	1
235.9280000000	n/a	235928	FrequentFixedSOA	1633	n/a	n/a	1
237.5610000000	n/a	237561	FrequentFixedSOA	1633	n/a	n/a	1
239.1940000000	n/a	239194	GoFixedSOA	428	n/a	n/a	1
240.8280000000	n/a	240828	FrequentFixedSOA	1633	n/a	n/a	1
242.4610000000	n/a	242461	FrequentFixedSOA	1633	n/a	n/a	1
244.0940000000	n/a	244094	FrequentFixedSOA	1633	n/a	n/a	1
245.7280000000	n/a	245728	GoFixedSOA	534	n/a	n/a	1
247.3610000000	n/a	247361	FrequentFixedSOA	1633	n/a	n/a	1
248.9940000000	n/a	248994	FrequentFixedSOA	1633	n/a	n/a	1
250.6280000000	n/a	250628	FrequentFixedSOA	1633	n/a	n/a	1
252.2610000000	n/a	252261	NovelFixedSOA	1633	n/a	n/a	1
253.8940000000	n/a	253894	FrequentFixedSOA	1633	n/a	n/a	1
255.5280000000	n/a	255528	NovelFixedSOA	1633	n/a	n/a	1
257.1610000000	n/a	257161	FrequentFixedSOA	1633	n/a	n/a	1
258.7940000000	n/a	258794	FrequentFixedSOA	1633	n/a	n/a	1
260.4280000000	n/a	260428	NovelFixedSOA	1633	n/a	n/a	1
262.0610000000	n/a	262061	FrequentFixedSOA	1633	n/a	n/a	1
263.6940000000	n/a	263694	FrequentFixedSOA	1633	n/a	n/a	1
265.3280000000	n/a	265328	FrequentFixedSOA	1633	n/a	n/a	1
266.9610000000	n/a	266961	FrequentFixedSOA	1633	n/a	n/a	1
268.5940000000	n/a	268594	FrequentFixedSOA	1633	n/a	n/a	1
270.2280000000	n/a	270228	NovelFixedSOA	1633	n/a	n/a	1
271.8610000000	n/a	271861	FrequentFixedSOA	1633	n/a	n/a	1
273.4940000000	n/a	273494	FrequentFixedSOA	1633	n/a	n/a	1
275.1280000000	n/a	275128	FrequentFixedSOA	1633	n/a	n/a	1
276.7610000000	n/a	276761	FrequentFixedSOA	1633	n/a	n/a	1
278.3940000000	n/a	278394	FrequentFixedSOA	1633	n/a	n/a	1
280.0280000000	n/a	280028	GoFixedSOA	362	n/a	n/a	1
281.6610000000	n/a	281661	FrequentFixedSOA	1633	n/a	n/a	1
283.2940000000	n/a	283294	FrequentFixedSOA	1633	n/a	n/a	1
284.9280000000	n/a	284928	GoFixedSOA	548	n/a	n/a	1
286.5610000000	n/a	286561	FrequentFixedSOA	1633	n/a	n/a	1
288.1940000000	n/a	288194	NovelFixedSOA	1633	n/a	n/a	1
289.8280000000	n/a	289828	FrequentFixedSOA	1633	n/a	n/a	1
291.4610000000	n/a	291461	GoFixedSOA	460	n/a	n/a	1
293.0940000000	n/a	293094	FrequentFixedSOA	1633	n/a	n/a	1
294.7280000000	n/a	294728	GoFixedSOA	584	n/a	n/a	1
296.3610000000	n/a	296361	FrequentFixedSOA	1633	n/a	n/a	1
297.9940000000	n/a	297994	FrequentFixedSOA	1633	n/a	n/a	1
299.6280000000	n/a	299628	FrequentFixedSOA	1633	n/a	n/a	1
301.2610000000	n/a	301261	FrequentFixedSOA	1633	n/a	n/a	1
302.8940000000	n/a	302894	GoFixedSOA	383	n/a	n/a	1
304.5280000000	n/a	304528	FrequentFixedSOA	1633	n/a	n/a	1
306.1610000000	n/a	306161	FrequentFixedSOA	1633	n/a	n/a	1
307.7940000000	n/a	307794	FrequentFixedSOA	1633	n/a	n/a	1
309.4270000000	n/a	309427	NovelFixedSOA	1633	n/a	n/a	1
311.0610000000	n/a	311061	FrequentFixedSOA	1633	n/a	n/a	1
312.6940000000	n/a	312694	FrequentFixedSOA	1633	n/a	n/a	1
314.3270000000	n/a	314327	FrequentFixedSOA	1633	n/a	n/a	1
315.9610000000	n/a	315961	FrequentFixedSOA	1633	n/a	n/a	1
317.5940000000	n/a	317594	NovelFixedSOA	1633	n/a	n/a	1
319.2270000000	n/a	319227	FrequentFixedSOA	1633	n/a	n/a	1
320.8610000000	n/a	320861	FrequentFixedSOA	1633	n/a	n/a	1
322.4940000000	n/a	322494	FrequentFixedSOA	1633	n/a	n/a	1
324.1270000000	n/a	324127	FrequentFixedSOA	1633	n/a	n/a	1
325.7610000000	n/a	325761	NovelFixedSOA	1633	n/a	n/a	1
327.3940000000	n/a	327394	FrequentFixedSOA	1633	n/a	n/a	1
329.0270000000	n/a	329027	FrequentFixedSOA	1633	n/a	n/a	1
330.6610000000	n/a	330661	GoFixedSOA	457	n/a	n/a	1
332.2940000000	n/a	332294	FrequentFixedSOA	1633	n/a	n/a	1
333.9270000000	n/a	333927	FrequentFixedSOA	1633	n/a	n/a	1
335.5610000000	n/a	335561	FrequentFixedSOA	1633	n/a	n/a	1
337.1940000000	n/a	337194	FrequentFixedSOA	1633	n/a	n/a	1
338.8270000000	n/a	338827	NovelFixedSOA	1633	n/a	n/a	1
340.4610000000	n/a	340461	FrequentFixedSOA	1633	n/a	n/a	1
342.0940000000	n/a	342094	FrequentFixedSOA	1633	n/a	n/a	1
343.7270000000	n/a	343727	FrequentFixedSOA	1633	n/a	n/a	1
345.3610000000	n/a	345361	FrequentFixedSOA	1633	n/a	n/a	1
346.9940000000	n/a	346994	FrequentFixedSOA	1633	n/a	n/a	1
348.6270000000	n/a	348627	FrequentVariableSOA	1650	n/a	n/a	1
350.2770000000	n/a	350277	FrequentVariableSOA	1583	n/a	n/a	1
351.8610000000	n/a	351861	FrequentVariableSOA	1633	n/a	n/a	1
353.4940000000	n/a	353494	GoVariableSOA	473	n/a	n/a	1
355.0440000000	n/a	355044	FrequentVariableSOA	1550	n/a	n/a	1
356.5940000000	n/a	356594	FrequentVariableSOA	1700	n/a	n/a	1
358.2940000000	n/a	358294	FrequentVariableSOA	1600	n/a	n/a	1
359.8940000000	n/a	359894	GoVariableSOA	1533	n/a	n/a	0
361.4270000000	n/a	361427	FrequentVariableSOA	1616	n/a	n/a	1
363.0440000000	n/a	363044	FrequentVariableSOA	1766	n/a	n/a	1
364.8110000000	n/a	364811	FrequentVariableSOA	1650	n/a	n/a	1
366.4610000000	n/a	366461	NovelVariableSOA	1700	n/a	n/a	1
368.1610000000	n/a	368161	FrequentVariableSOA	1666	n/a	n/a	1
369.8270000000	n/a	369827	NovelVariableSOA	1750	n/a	n/a	1
371.5770000000	n/a	371577	FrequentVariableSOA	1633	n/a	n/a	1
373.2110000000	n/a	373211	FrequentVariableSOA	1766	n/a	n/a	1
374.9770000000	n/a	374977	NovelVariableSOA	1516	n/a	n/a	1
376.4940000000	n/a	376494	FrequentVariableSOA	1783	n/a	n/a	1
378.2770000000	n/a	378277	FrequentVariableSOA	1766	n/a	n/a	1
380.0440000000	n/a	380044	FrequentVariableSOA	1533	n/a	n/a	1
381.5770000000	n/a	381577	FrequentVariableSOA	1566	n/a	n/a	1
383.1440000000	n/a	383144	FrequentVariableSOA	1650	n/a	n/a	1
384.7940000000	n/a	384794	NovelVariableSOA	1550	n/a	n/a	1
386.3440000000	n/a	386344	FrequentVariableSOA	1600	n/a	n/a	1
387.9440000000	n/a	387944	FrequentVariableSOA	1683	n/a	n/a	1
389.6270000000	n/a	389627	FrequentVariableSOA	1750	n/a	n/a	1
391.3770000000	n/a	391377	FrequentVariableSOA	1683	n/a	n/a	1
393.0610000000	n/a	393061	FrequentVariableSOA	1600	n/a	n/a	1
394.6610000000	n/a	394661	GoVariableSOA	507	n/a	n/a	1
396.3610000000	n/a	396361	FrequentVariableSOA	1583	n/a	n/a	1
397.9440000000	n/a	397944	FrequentVariableSOA	1600	n/a	n/a	1
399.5440000000	n/a	399544	GoVariableSOA	393	n/a	n/a	1
401.2440000000	n/a	401244	FrequentVariableSOA	1500	n/a	n/a	1
402.7440000000	n/a	402744	NovelVariableSOA	1516	n/a	n/a	1
404.2610000000	n/a	404261	FrequentVariableSOA	1600	n/a	n/a	1
405.8610000000	n/a	405861	GoVariableSOA	454	n/a	n/a	1
407.3940000000	n/a	407394	FrequentVariableSOA	1533	n/a	n/a	1
408.9270000000	n/a	408927	GoVariableSOA	522	n/a	n/a	1
410.6110000000	n/a	410611	FrequentVariableSOA	1500	n/a	n/a	1
412.1110000000	n/a	412111	FrequentVariableSOA	1616	n/a	n/a	1
413.7270000000	n/a	413727	FrequentVariableSOA	1550	n/a	n/a	1
415.2770000000	n/a	415277	FrequentVariableSOA	1766	n/a	n/a	1
417.0440000000	n/a	417044	GoVariableSOA	408	n/a	n/a	1
418.5610000000	n/a	418561	FrequentVariableSOA	1550	n/a	n/a	1
420.1110000000	n/a	420111	FrequentVariableSOA	1650	n/a	n/a	1
421.7610000000	n/a	421761	FrequentVariableSOA	1600	n/a	n/a	1
423.3610000000	n/a	423361	NovelVariableSOA	1766	n/a	n/a	1
425.1270000000	n/a	425127	FrequentVariableSOA	1716	n/a	n/a	1
426.8440000000	n/a	426844	FrequentVariableSOA	1666	n/a	n/a	1
428.5110000000	n/a	428511	FrequentVariableSOA	1700	n/a	n/a	1
430.2110000000	n/a	430211	FrequentVariableSOA	1800	n/a	n/a	1
432.0110000000	n/a	432011	NovelVariableSOA	1533	n/a	n/a	1
433.5440000000	n/a	433544	FrequentVariableSOA	1516	n/a	n/a	1
435.0610000000	n/a	435061	FrequentVariableSOA	1733	n/a	n/a	1
436.7940000000	n/a	436794	FrequentVariableSOA	1600	n/a	n/a	1
438.3940000000	n/a	438394	FrequentVariableSOA	1633	n/a	n/a	1
440.0270000000	n/a	440027	NovelVariableSOA	1616	n/a	n/a	1
441.6440000000	n/a	441644	FrequentVariableSOA	1783	n/a	n/a	1
443.4270000000	n/a	443427	FrequentVariableSOA	1600	n/a	n/a	1
445.0270000000	n/a	445027	GoVariableSOA	429	n/a	n/a	1
446.6440000000	n/a	446644	FrequentVariableSOA	1733	n/a	n/a	1
448.3770000000	n/a	448377	FrequentVariableSOA	1733	n/a	n/a	1
450.1110000000	n/a	450111	FrequentVariableSOA	1516	n/a	n/a	1
451.6270000000	n/a	451627	FrequentVariableSOA	1716	n/a	n/a	1
453.3440000000	n/a	453344	NovelVariableSOA	1633	n/a	n/a	1
454.9770000000	n/a	454977	FrequentVariableSOA	1566	n/a	n/a	1
456.5440000000	n/a	456544	FrequentVariableSOA	1633	n/a	n/a	1
458.1770000000	n/a	458177	FrequentVariableSOA	1650	n/a	n/a	1
459.8270000000	n/a	459827	FrequentVariableSOA	1583	n/a	n/a	1
461.4110000000	n/a	461411	FrequentVariableSOA	1550	n/a	n/a	1
462.9610000000	n/a	462961	GoFixedSOA	444	n/a	n/a	1
464.5940000000	n/a	464594	FrequentFixedSOA	1633	n/a	n/a	1
466.2270000000	n/a	466227	FrequentFixedSOA	1633	n/a	n/a	1
467.8610000000	n/a	467861	FrequentFixedSOA	1633	n/a	n/a	1
469.4940000000	n/a	469494	FrequentFixedSOA	1633	n/a	n/a	1
471.1270000000	n/a	471127	FrequentFixedSOA	1633	n/a	n/a	1
472.7610000000	n/a	472761	FrequentFixedSOA	1633	n/a	n/a	1
474.3940000000	n/a	474394	NovelFixedSOA	1633	n/a	n/a	1
476.0270000000	n/a	476027	FrequentFixedSOA	1633	n/a	n/a	1
477.6610000000	n/a	477661	FrequentFixedSOA	1633	n/a	n/a	1
479.2940000000	n/a	479294	FrequentFixedSOA	1633	n/a	n/a	1
480.9270000000	n/a	480927	NovelFixedSOA	1633	n/a	n/a	1
482.5610000000	n/a	482561	FrequentFixedSOA	1633	n/a	n/a	1
484.1940000000	n/a	484194	GoFixedSOA	400	n/a	n/a	1
485.8270000000	n/a	485827	FrequentFixedSOA	1633	n/a	n/a	1
487.4610000000	n/a	487461	FrequentFixedSOA	1633	n/a	n/a	1
489.0940000000	n/a	489094	GoFixedSOA	391	n/a	n/a	1
490.7270000000	n/a	490727	FrequentFixedSOA	1633	n/a	n/a	1
492.3610000000	n/a	492361	NovelFixedSOA	1633	n/a	n/a	1
493.9940000000	n/a	493994	FrequentFixedSOA	1633	n/a	n/a	1
495.6270000000	n/a	495627	FrequentFixedSOA	1633	n/a	n/a	1
497.2610000000	n/a	497261	FrequentFixedSOA	1633	n/a	n/a	1
498.8940000000	n/a	498894	FrequentFixedSOA	1633	n/a	n/a	1
500.5270000000	n/a	500527	FrequentFixedSOA	1633	n/a	n/a	1
502.1610000000	n/a	502161	GoFixedSOA	542	n/a	n/a	1
503.7940000000	n/a	503794	FrequentFixedSOA	1633	n/a	n/a	1
505.4270000000	n/a	505427	FrequentFixedSOA	1633	n/a	n/a	1
507.0610000000	n/a	507061	NovelFixedSOA	1633	n/a	n/a	1
508.6940000000	n/a	508694	FrequentFixedSOA	1633	n/a	n/a	1
510.3270000000	n/a	510327	FrequentFixedSOA	1633	n/a	n/a	1
511.9600000000	n/a	511960	FrequentFixedSOA	1633	n/a	n/a	1
513.5940000000	n/a	513594	FrequentFixedSOA	1633	n/a	n/a	1
515.2270000000	n/a	515227	FrequentFixedSOA	1633	n/a	n/a	1
516.8600000000	n/a	516860	NovelFixedSOA	1633	n/a	n/a	1
518.4940000000	n/a	518494	FrequentFixedSOA	1633	n/a	n/a	1
520.1270000000	n/a	520127	FrequentFixedSOA	1633	n/a	n/a	1
521.7600000000	n/a	521760	FrequentFixedSOA	1633	n/a	n/a	1
523.3940000000	n/a	523394	FrequentFixedSOA	1633	n/a	n/a	1
525.0270000000	n/a	525027	GoFixedSOA	414	n/a	n/a	1
526.6600000000	n/a	526660	FrequentFixedSOA	1633	n/a	n/a	1
528.2940000000	n/a	528294	FrequentFixedSOA	1633	n/a	n/a	1
529.9270000000	n/a	529927	NovelFixedSOA	1633	n/a	n/a	1
531.5600000000	n/a	531560	FrequentFixedSOA	1633	n/a	n/a	1
533.1940000000	n/a	533194	FrequentFixedSOA	1633	n/a	n/a	1
534.8270000000	n/a	534827	NovelFixedSOA	1633	n/a	n/a	1
536.4600000000	n/a	536460	FrequentFixedSOA	1633	n/a	n/a	1
538.0940000000	n/a	538094	FrequentFixedSOA	1633	n/a	n/a	1
539.7270000000	n/a	539727	FrequentFixedSOA	1633	n/a	n/a	1
541.3600000000	n/a	541360	FrequentFixedSOA	1633	n/a	n/a	1
542.9940000000	n/a	542994	FrequentFixedSOA	1633	n/a	n/a	1
544.6270000000	n/a	544627	GoFixedSOA	483	n/a	n/a	1
546.2600000000	n/a	546260	FrequentFixedSOA	1633	n/a	n/a	1
547.8940000000	n/a	547894	FrequentFixedSOA	1633	n/a	n/a	1
549.5270000000	n/a	549527	FrequentFixedSOA	1633	n/a	n/a	1
551.1600000000	n/a	551160	FrequentFixedSOA	1633	n/a	n/a	1
552.7940000000	n/a	552794	FrequentFixedSOA	1633	n/a	n/a	1
554.4270000000	n/a	554427	NovelFixedSOA	1633	n/a	n/a	1
556.0600000000	n/a	556060	FrequentFixedSOA	1633	n/a	n/a	1
557.6940000000	n/a	557694	GoFixedSOA	379	n/a	n/a	1
559.3270000000	n/a	559327	FrequentFixedSOA	1633	n/a	n/a	1
560.9600000000	n/a	560960	FrequentFixedSOA	1633	n/a	n/a	1
562.5940000000	n/a	562594	FrequentFixedSOA	1633	n/a	n/a	1
564.2270000000	n/a	564227	FrequentFixedSOA	1633	n/a	n/a	1
565.8600000000	n/a	565860	FrequentFixedSOA	1633	n/a	n/a	1
567.4940000000	n/a	567494	FrequentFixedSOA	1633	n/a	n/a	1
569.1270000000	n/a	569127	FrequentFixedSOA	1633	n/a	n/a	1
570.7600000000	n/a	570760	FrequentFixedSOA	1633	n/a	n/a	1
572.3940000000	n/a	572394	NovelFixedSOA	1633	n/a	n/a	1
574.0270000000	n/a	574027	FrequentFixedSOA	1633	n/a	n/a	1
575.6600000000	n/a	575660	FrequentFixedSOA	1633	n/a	n/a	1
577.2940000000	n/a	577294	GoVariableSOA	474	n/a	n/a	1
578.9940000000	n/a	578994	FrequentVariableSOA	1550	n/a	n/a	1
580.5440000000	n/a	580544	FrequentVariableSOA	1733	n/a	n/a	1
582.2770000000	n/a	582277	FrequentVariableSOA	1783	n/a	n/a	1
584.0600000000	n/a	584060	FrequentVariableSOA	1700	n/a	n/a	1
585.7600000000	n/a	585760	FrequentVariableSOA	1650	n/a	n/a	1
587.4100000000	n/a	587410	FrequentVariableSOA	1566	n/a	n/a	1
588.9770000000	n/a	588977	NovelVariableSOA	1716	n/a	n/a	1
590.6940000000	n/a	590694	FrequentVariableSOA	1566	n/a	n/a	1
592.2600000000	n/a	592260	FrequentVariableSOA	1783	n/a	n/a	1
594.0440000000	n/a	594044	FrequentVariableSOA	1650	n/a	n/a	1
595.6940000000	n/a	595694	NovelVariableSOA	1766	n/a	n/a	1
597.4600000000	n/a	597460	FrequentVariableSOA	1500	n/a	n/a	1
598.9600000000	n/a	598960	GoVariableSOA	336	n/a	n/a	1
600.4770000000	n/a	600477	FrequentVariableSOA	1750	n/a	n/a	1
602.2270000000	n/a	602227	FrequentVariableSOA	1800	n/a	n/a	1
604.0270000000	n/a	604027	GoVariableSOA	413	n/a	n/a	1
605.6100000000	n/a	605610	FrequentVariableSOA	1516	n/a	n/a	1
607.1270000000	n/a	607127	NovelVariableSOA	1750	n/a	n/a	1
608.8770000000	n/a	608877	FrequentVariableSOA	1550	n/a	n/a	1
610.4270000000	n/a	610427	FrequentVariableSOA	1583	n/a	n/a	1
612.0100000000	n/a	612010	FrequentVariableSOA	1650	n/a	n/a	1
613.6600000000	n/a	613660	FrequentVariableSOA	1550	n/a	n/a	1
615.2100000000	n/a	615210	FrequentVariableSOA	1666	n/a	n/a	1
616.8770000000	n/a	616877	GoVariableSOA	339	n/a	n/a	1
618.6100000000	n/a	618610	FrequentVariableSOA	1666	n/a	n/a	1
620.2770000000	n/a	620277	FrequentVariableSOA	1583	n/a	n/a	1
621.8600000000	n/a	621860	NovelVariableSOA	1733	n/a	n/a	1
623.5940000000	n/a	623594	FrequentVariableSOA	1683	n/a	n/a	1
625.2770000000	n/a	625277	FrequentVariableSOA	1500	n/a	n/a	1
626.7770000000	n/a	626777	FrequentVariableSOA	1533	n/a	n/a	1
628.3100000000	n/a	628310	FrequentVariableSOA	1533	n/a	n/a	1
629.8440000000	n/a	629844	FrequentVariableSOA	1800	n/a	n/a	1
631.6440000000	n/a	631644	NovelVariableSOA	1600	n/a	n/a	1
633.2440000000	n/a	633244	FrequentVariableSOA	1666	n/a	n/a	1
634.9100000000	n/a	634910	FrequentVariableSOA	1566	n/a	n/a	1
636.4770000000	n/a	636477	FrequentVariableSOA	1583	n/a	n/a	1
638.0600000000	n/a	638060	FrequentVariableSOA	1783	n/a	n/a	1
639.8440000000	n/a	639844	GoVariableSOA	480	n/a	n/a	1
641.6270000000	n/a	641627	FrequentVariableSOA	1800	n/a	n/a	1
643.4270000000	n/a	643427	FrequentVariableSOA	1766	n/a	n/a	1
645.1940000000	n/a	645194	NovelVariableSOA	1650	n/a	n/a	1
646.8440000000	n/a	646844	FrequentVariableSOA	1666	n/a	n/a	1
648.5100000000	n/a	648510	FrequentVariableSOA	1783	n/a	n/a	1
650.2940000000	n/a	650294	NovelVariableSOA	1583	n/a	n/a	1
651.8770000000	n/a	651877	FrequentVariableSOA	1600	n/a	n/a	1
653.4770000000	n/a	653477	FrequentVariableSOA	1650	n/a	n/a	1
655.1270000000	n/a	655127	FrequentVariableSOA	1633	n/a	n/a	1
656.7600000000	n/a	656760	FrequentVariableSOA	1633	n/a	n/a	1
658.3940000000	n/a	658394	FrequentVariableSOA	1566	n/a	n/a	1
659.9600000000	n/a	659960	GoVariableSOA	459	n/a	n/a	1
661.4940000000	n/a	661494	FrequentVariableSOA	1600	n/a	n/a	1
663.0940000000	n/a	663094	FrequentVariableSOA	1566	n/a	n/a	1
664.6600000000	n/a	664660	FrequentVariableSOA	1583	n/a	n/a	1
666.2440000000	n/a	666244	FrequentVariableSOA	1783	n/a	n/a	1
668.0270000000	n/a	668027	FrequentVariableSOA	1633	n/a	n/a	1
669.6600000000	n/a	669660	NovelVariableSOA	1516	n/a	n/a	1
671.1770000000	n/a	671177	FrequentVariableSOA	1700	n/a	n/a	1
672.8770000000	n/a	672877	GoVariableSOA	355	n/a	n/a	1
674.4600000000	n/a	674460	FrequentVariableSOA	1616	n/a	n/a	1
676.0770000000	n/a	676077	FrequentVariableSOA	1683	n/a	n/a	1
677.7600000000	n/a	677760	FrequentVariableSOA	1750	n/a	n/a	1
679.5100000000	n/a	679510	FrequentVariableSOA	1533	n/a	n/a	1
681.0440000000	n/a	681044	FrequentVariableSOA	1533	n/a	n/a	1
682.5770000000	n/a	682577	FrequentVariableSOA	1533	n/a	n/a	1
684.1100000000	n/a	684110	FrequentVariableSOA	1500	n/a	n/a	1
685.6100000000	n/a	685610	FrequentVariableSOA	1650	n/a	n/a	1
687.2600000000	n/a	687260	NovelVariableSOA	1566	n/a	n/a	1
688.8270000000	n/a	688827	FrequentVariableSOA	1700	n/a	n/a	1
690.5270000000	n/a	690527	FrequentVariableSOA	1683	n/a	n/a	1
692.2100000000	n/a	692210	GoFixedSOA	489	n/a	n/a	1
693.8440000000	n/a	693844	FrequentFixedSOA	1633	n/a	n/a	1
695.4770000000	n/a	695477	FrequentFixedSOA	1633	n/a	n/a	1
697.1100000000	n/a	697110	FrequentFixedSOA	1633	n/a	n/a	1
698.7440000000	n/a	698744	GoFixedSOA	448	n/a	n/a	1
700.3770000000	n/a	700377	FrequentFixedSOA	1633	n/a	n/a	1
702.0100000000	n/a	702010	FrequentFixedSOA	1633	n/a	n/a	1
703.6440000000	n/a	703644	FrequentFixedSOA	1633	n/a	n/a	1
705.2770000000	n/a	705277	FrequentFixedSOA	1633	n/a	n/a	1
706.9100000000	n/a	706910	GoFixedSOA	517	n/a	n/a	1
708.5440000000	n/a	708544	FrequentFixedSOA	1633	n/a	n/a	1
710.1770000000	n/a	710177	FrequentFixedSOA	1633	n/a	n/a	1
711.8100000000	n/a	711810	NovelFixedSOA	1633	n/a	n/a	1
713.4440000000	n/a	713444	FrequentFixedSOA	1633	n/a	n/a	1
715.0770000000	n/a	715077	FrequentFixedSOA	1633	n/a	n/a	1
716.7100000000	n/a	716710	GoFixedSOA	347	n/a	n/a	1
718.3440000000	n/a	718344	FrequentFixedSOA	1633	n/a	n/a	1
719.9770000000	n/a	719977	FrequentFixedSOA	1633	n/a	n/a	1
721.6100000000	n/a	721610	FrequentFixedSOA	1633	n/a	n/a	1
723.2430000000	n/a	723243	NovelFixedSOA	1633	n/a	n/a	1
724.8770000000	n/a	724877	FrequentFixedSOA	1633	n/a	n/a	1
726.5100000000	n/a	726510	NovelFixedSOA	1633	n/a	n/a	1
728.1430000000	n/a	728143	FrequentFixedSOA	1633	n/a	n/a	1
729.7770000000	n/a	729777	FrequentFixedSOA	1633	n/a	n/a	1
731.4100000000	n/a	731410	FrequentFixedSOA	1633	n/a	n/a	1
733.0430000000	n/a	733043	GoFixedSOA	476	n/a	n/a	1
734.6770000000	n/a	734677	FrequentFixedSOA	1633	n/a	n/a	1
736.3100000000	n/a	736310	FrequentFixedSOA	1633	n/a	n/a	1
737.9430000000	n/a	737943	FrequentFixedSOA	1633	n/a	n/a	1
739.5770000000	n/a	739577	GoFixedSOA	626	n/a	n/a	1
741.2100000000	n/a	741210	FrequentFixedSOA	1633	n/a	n/a	1
742.8430000000	n/a	742843	FrequentFixedSOA	1633	n/a	n/a	1
744.4770000000	n/a	744477	NovelFixedSOA	1633	n/a	n/a	1
746.1100000000	n/a	746110	FrequentFixedSOA	1633	n/a	n/a	1
747.7430000000	n/a	747743	GoFixedSOA	848	n/a	n/a	1
749.3770000000	n/a	749377	FrequentFixedSOA	1633	n/a	n/a	1
751.0100000000	n/a	751010	FrequentFixedSOA	1633	n/a	n/a	1
752.6430000000	n/a	752643	FrequentFixedSOA	1633	n/a	n/a	1
754.2770000000	n/a	754277	FrequentFixedSOA	1633	n/a	n/a	1
755.9100000000	n/a	755910	FrequentFixedSOA	1633	n/a	n/a	1
757.5430000000	n/a	757543	FrequentFixedSOA	1633	n/a	n/a	1
759.1770000000	n/a	759177	NovelFixedSOA	1633	n/a	n/a	1
760.8100000000	n/a	760810	FrequentFixedSOA	1633	n/a	n/a	1
762.4430000000	n/a	762443	FrequentFixedSOA	1633	n/a	n/a	1
764.0770000000	n/a	764077	FrequentFixedSOA	1633	n/a	n/a	1
765.7100000000	n/a	765710	GoFixedSOA	429	n/a	n/a	1
767.3430000000	n/a	767343	FrequentFixedSOA	1633	n/a	n/a	1
768.9770000000	n/a	768977	FrequentFixedSOA	1633	n/a	n/a	1
770.6100000000	n/a	770610	FrequentFixedSOA	1633	n/a	n/a	1
772.2430000000	n/a	772243	FrequentFixedSOA	1633	n/a	n/a	1
773.8770000000	n/a	773877	NovelFixedSOA	1633	n/a	n/a	1
775.5100000000	n/a	775510	FrequentFixedSOA	1633	n/a	n/a	1
777.1430000000	n/a	777143	FrequentFixedSOA	1633	n/a	n/a	1
778.7770000000	n/a	778777	NovelFixedSOA	1633	n/a	n/a	1
780.4100000000	n/a	780410	FrequentFixedSOA	1633	n/a	n/a	1
782.0430000000	n/a	782043	NovelFixedSOA	1633	n/a	n/a	1
783.6770000000	n/a	783677	FrequentFixedSOA	1633	n/a	n/a	1
785.3100000000	n/a	785310	FrequentFixedSOA	1633	n/a	n/a	1
786.9430000000	n/a	786943	FrequentFixedSOA	1633	n/a	n/a	1
788.5770000000	n/a	788577	FrequentFixedSOA	1633	n/a	n/a	1
790.2100000000	n/a	790210	FrequentFixedSOA	1633	n/a	n/a	1
791.8430000000	n/a	791843	FrequentFixedSOA	1633	n/a	n/a	1
793.4770000000	n/a	793477	FrequentFixedSOA	1633	n/a	n/a	1
795.1100000000	n/a	795110	GoFixedSOA	375	n/a	n/a	1
796.7430000000	n/a	796743	FrequentFixedSOA	1633	n/a	n/a	1
798.3770000000	n/a	798377	GoFixedSOA	345	n/a	n/a	1
800.0100000000	n/a	800010	FrequentFixedSOA	1633	n/a	n/a	1
801.6430000000	n/a	801643	FrequentFixedSOA	1633	n/a	n/a	1
803.2770000000	n/a	803277	NovelFixedSOA	1633	n/a	n/a	1
804.9100000000	n/a	804910	FrequentFixedSOA	1633	n/a	n/a	1
806.5430000000	n/a	806543	GoVariableSOA	421	n/a	n/a	1
808.2770000000	n/a	808277	FrequentVariableSOA	1766	n/a	n/a	1
810.0430000000	n/a	810043	FrequentVariableSOA	1700	n/a	n/a	1
811.7430000000	n/a	811743	FrequentVariableSOA	1600	n/a	n/a	1
813.3430000000	n/a	813343	GoVariableSOA	485	n/a	n/a	1
815.1100000000	n/a	815110	FrequentVariableSOA	1666	n/a	n/a	1
816.7770000000	n/a	816777	FrequentVariableSOA	1733	n/a	n/a	1
818.5100000000	n/a	818510	FrequentVariableSOA	1516	n/a	n/a	1
820.0270000000	n/a	820027	FrequentVariableSOA	1550	n/a	n/a	1
821.5770000000	n/a	821577	GoVariableSOA	445	n/a	n/a	1
823.1770000000	n/a	823177	FrequentVariableSOA	1650	n/a	n/a	1
824.8270000000	n/a	824827	FrequentVariableSOA	1550	n/a	n/a	1
826.3770000000	n/a	826377	NovelVariableSOA	1783	n/a	n/a	1
828.1600000000	n/a	828160	FrequentVariableSOA	1666	n/a	n/a	1
829.8270000000	n/a	829827	FrequentVariableSOA	1750	n/a	n/a	1
831.5770000000	n/a	831577	GoVariableSOA	510	n/a	n/a	1
833.1270000000	n/a	833127	FrequentVariableSOA	1583	n/a	n/a	1
834.7100000000	n/a	834710	FrequentVariableSOA	1583	n/a	n/a	1
836.2930000000	n/a	836293	FrequentVariableSOA	1733	n/a	n/a	1
838.0270000000	n/a	838027	NovelVariableSOA	1716	n/a	n/a	1
839.7430000000	n/a	839743	FrequentVariableSOA	1500	n/a	n/a	1
841.2430000000	n/a	841243	NovelVariableSOA	1783	n/a	n/a	1
843.0270000000	n/a	843027	FrequentVariableSOA	1733	n/a	n/a	1
844.7600000000	n/a	844760	FrequentVariableSOA	1750	n/a	n/a	1
846.5100000000	n/a	846510	FrequentVariableSOA	1750	n/a	n/a	1
848.2600000000	n/a	848260	GoVariableSOA	947	n/a	n/a	1
850.0100000000	n/a	850010	FrequentVariableSOA	1583	n/a	n/a	0
851.5930000000	n/a	851593	FrequentVariableSOA	1633	n/a	n/a	1
853.2270000000	n/a	853227	FrequentVariableSOA	1783	n/a	n/a	1
855.0100000000	n/a	855010	GoVariableSOA	382	n/a	n/a	1
856.7430000000	n/a	856743	FrequentVariableSOA	1583	n/a	n/a	1
858.3270000000	n/a	858327	FrequentVariableSOA	1550	n/a	n/a	1
859.8770000000	n/a	859877	NovelVariableSOA	1750	n/a	n/a	1
861.6270000000	n/a	861627	FrequentVariableSOA	1583	n/a	n/a	1
863.2100000000	n/a	863210	GoVariableSOA	810	n/a	n/a	1
864.8770000000	n/a	864877	FrequentVariableSOA	1683	n/a	n/a	1
866.5600000000	n/a	866560	FrequentVariableSOA	1550	n/a	n/a	1
868.1100000000	n/a	868110	FrequentVariableSOA	1750	n/a	n/a	1
869.8600000000	n/a	869860	FrequentVariableSOA	1616	n/a	n/a	1
871.4770000000	n/a	871477	FrequentVariableSOA	1800	n/a	n/a	1
873.2770000000	n/a	873277	FrequentVariableSOA	1733	n/a	n/a	1
875.0100000000	n/a	875010	NovelVariableSOA	1733	n/a	n/a	1
876.7430000000	n/a	876743	FrequentVariableSOA	1633	n/a	n/a	1
878.3770000000	n/a	878377	FrequentVariableSOA	1550	n/a	n/a	1
879.9270000000	n/a	879927	FrequentVariableSOA	1650	n/a	n/a	1
881.5770000000	n/a	881577	GoVariableSOA	401	n/a	n/a	1
883.2270000000	n/a	883227	FrequentVariableSOA	1650	n/a	n/a	1
884.8770000000	n/a	884877	FrequentVariableSOA	1550	n/a	n/a	1
886.4270000000	n/a	886427	FrequentVariableSOA	1600	n/a	n/a	1
888.0270000000	n/a	888027	FrequentVariableSOA	1716	n/a	n/a	1
889.7430000000	n/a	889743	NovelVariableSOA	1533	n/a	n/a	1
891.2770000000	n/a	891277	FrequentVariableSOA	1616	n/a	n/a	1
892.8930000000	n/a	892893	FrequentVariableSOA	1616	n/a	n/a	1
894.5100000000	n/a	894510	NovelVariableSOA	1733	n/a	n/a	1
896.2430000000	n/a	896243	FrequentVariableSOA	1633	n/a	n/a	1
897.8770000000	n/a	897877	NovelVariableSOA	1700	n/a	n/a	1
899.5770000000	n/a	899577	FrequentVariableSOA	1750	n/a	n/a	1
901.3270000000	n/a	901327	FrequentVariableSOA	1766	n/a	n/a	1
903.0930000000	n/a	903093	FrequentVariableSOA	1550	n/a	n/a	1
904.6430000000	n/a	904643	FrequentVariableSOA	1533	n/a	n/a	1
906.1770000000	n/a	906177	FrequentVariableSOA	1800	n/a	n/a	1
907.9770000000	n/a	907977	FrequentVariableSOA	1600	n/a	n/a	1
909.5770000000	n/a	909577	FrequentVariableSOA	1650	n/a	n/a	1
911.2270000000	n/a	911227	GoVariableSOA	559	n/a	n/a	1
913.0100000000	n/a	913010	FrequentVariableSOA	1616	n/a	n/a	1
914.6270000000	n/a	914627	GoVariableSOA	454	n/a	n/a	1
916.3270000000	n/a	916327	FrequentVariableSOA	1766	n/a	n/a	1
918.0930000000	n/a	918093	FrequentVariableSOA	1733	n/a	n/a	1
919.8270000000	n/a	919827	NovelVariableSOA	1700	n/a	n/a	1
921.5270000000	n/a	921527	FrequentVariableSOA	1600	n/a	n/a	1
