onset	duration	sample	trial_type	response_time	stim_file	value	correct
2.8410000000	n/a	2841	FrequentFixedSOA	1633	n/a	n/a	1
4.4740000000	n/a	4474	FrequentFixedSOA	1633	n/a	n/a	1
6.1070000000	n/a	6107	FrequentFixedSOA	1633	n/a	n/a	1
7.7400000000	n/a	7740	FrequentFixedSOA	1633	n/a	n/a	1
9.3740000000	n/a	9374	FrequentFixedSOA	1633	n/a	n/a	1
11.0070000000	n/a	11007	FrequentFixedSOA	1633	n/a	n/a	1
12.6400000000	n/a	12640	FrequentFixedSOA	1633	n/a	n/a	1
14.2740000000	n/a	14274	FrequentFixedSOA	1633	n/a	n/a	1
15.9070000000	n/a	15907	FrequentFixedSOA	1633	n/a	n/a	1
17.5400000000	n/a	17540	FrequentFixedSOA	1633	n/a	n/a	1
19.1740000000	n/a	19174	NovelFixedSOA	1633	n/a	n/a	1
20.8070000000	n/a	20807	FrequentFixedSOA	1633	n/a	n/a	1
22.4400000000	n/a	22440	GoFixedSOA	486	n/a	n/a	1
24.0740000000	n/a	24074	FrequentFixedSOA	1633	n/a	n/a	1
25.7070000000	n/a	25707	FrequentFixedSOA	1633	n/a	n/a	1
27.3400000000	n/a	27340	FrequentFixedSOA	1633	n/a	n/a	1
28.9740000000	n/a	28974	GoFixedSOA	505	n/a	n/a	1
30.6070000000	n/a	30607	FrequentFixedSOA	1633	n/a	n/a	1
32.2400000000	n/a	32240	FrequentFixedSOA	1633	n/a	n/a	1
33.8740000000	n/a	33874	FrequentFixedSOA	1633	n/a	n/a	1
35.5070000000	n/a	35507	NovelFixedSOA	1633	n/a	n/a	1
37.1400000000	n/a	37140	FrequentFixedSOA	1633	n/a	n/a	1
38.7740000000	n/a	38774	FrequentFixedSOA	1633	n/a	n/a	1
40.4070000000	n/a	40407	FrequentFixedSOA	1633	n/a	n/a	1
42.0400000000	n/a	42040	GoFixedSOA	455	n/a	n/a	1
43.6740000000	n/a	43674	FrequentFixedSOA	1633	n/a	n/a	1
45.3070000000	n/a	45307	NovelFixedSOA	1633	n/a	n/a	1
46.9400000000	n/a	46940	FrequentFixedSOA	1633	n/a	n/a	1
48.5740000000	n/a	48574	FrequentFixedSOA	1633	n/a	n/a	1
50.2070000000	n/a	50207	FrequentFixedSOA	1633	n/a	n/a	1
51.8400000000	n/a	51840	GoFixedSOA	422	n/a	n/a	1
53.4740000000	n/a	53474	FrequentFixedSOA	1633	n/a	n/a	1
55.1070000000	n/a	55107	GoFixedSOA	434	n/a	n/a	1
56.7400000000	n/a	56740	FrequentFixedSOA	1633	n/a	n/a	1
58.3740000000	n/a	58374	FrequentFixedSOA	1633	n/a	n/a	1
60.0070000000	n/a	60007	GoFixedSOA	460	n/a	n/a	1
61.6400000000	n/a	61640	FrequentFixedSOA	1633	n/a	n/a	1
63.2740000000	n/a	63274	FrequentFixedSOA	1633	n/a	n/a	1
64.9070000000	n/a	64907	FrequentFixedSOA	1633	n/a	n/a	1
66.5400000000	n/a	66540	FrequentFixedSOA	1633	n/a	n/a	1
68.1740000000	n/a	68174	NovelFixedSOA	1633	n/a	n/a	1
69.8070000000	n/a	69807	FrequentFixedSOA	1633	n/a	n/a	1
71.4400000000	n/a	71440	NovelFixedSOA	1633	n/a	n/a	1
73.0740000000	n/a	73074	FrequentFixedSOA	1633	n/a	n/a	1
74.7070000000	n/a	74707	FrequentFixedSOA	1633	n/a	n/a	1
76.3400000000	n/a	76340	GoFixedSOA	489	n/a	n/a	1
77.9740000000	n/a	77974	FrequentFixedSOA	1633	n/a	n/a	1
79.6070000000	n/a	79607	FrequentFixedSOA	1633	n/a	n/a	1
81.2400000000	n/a	81240	FrequentFixedSOA	1633	n/a	n/a	1
82.8740000000	n/a	82874	FrequentFixedSOA	1633	n/a	n/a	1
84.5070000000	n/a	84507	NovelFixedSOA	1633	n/a	n/a	1
86.1400000000	n/a	86140	FrequentFixedSOA	1633	n/a	n/a	1
87.7740000000	n/a	87774	FrequentFixedSOA	1633	n/a	n/a	1
89.4070000000	n/a	89407	FrequentFixedSOA	1633	n/a	n/a	1
91.0400000000	n/a	91040	FrequentFixedSOA	1633	n/a	n/a	1
92.6740000000	n/a	92674	GoFixedSOA	1633	n/a	n/a	0
94.3070000000	n/a	94307	FrequentFixedSOA	1633	n/a	n/a	1
95.9400000000	n/a	95940	FrequentFixedSOA	1633	n/a	n/a	1
97.5740000000	n/a	97574	NovelFixedSOA	1633	n/a	n/a	1
99.2070000000	n/a	99207	FrequentFixedSOA	1633	n/a	n/a	1
100.8400000000	n/a	100840	FrequentFixedSOA	1633	n/a	n/a	1
102.4740000000	n/a	102474	GoFixedSOA	437	n/a	n/a	1
104.1070000000	n/a	104107	FrequentFixedSOA	1633	n/a	n/a	1
105.7400000000	n/a	105740	FrequentFixedSOA	1633	n/a	n/a	1
107.3740000000	n/a	107374	FrequentFixedSOA	1633	n/a	n/a	1
109.0070000000	n/a	109007	FrequentFixedSOA	1633	n/a	n/a	1
110.6400000000	n/a	110640	NovelFixedSOA	1633	n/a	n/a	1
112.2740000000	n/a	112274	FrequentFixedSOA	1633	n/a	n/a	1
113.9070000000	n/a	113907	FrequentFixedSOA	1633	n/a	n/a	1
115.5400000000	n/a	115540	GoFixedSOA	447	n/a	n/a	1
117.1740000000	n/a	117174	FrequentVariableSOA	1550	n/a	n/a	1
118.7240000000	n/a	118724	FrequentVariableSOA	1733	n/a	n/a	1
120.4570000000	n/a	120457	FrequentVariableSOA	1716	n/a	n/a	1
122.1740000000	n/a	122174	FrequentVariableSOA	1500	n/a	n/a	1
123.6740000000	n/a	123674	FrequentVariableSOA	1683	n/a	n/a	1
125.3570000000	n/a	125357	FrequentVariableSOA	1766	n/a	n/a	1
127.1230000000	n/a	127123	FrequentVariableSOA	1500	n/a	n/a	1
128.6230000000	n/a	128623	FrequentVariableSOA	1566	n/a	n/a	1
130.1900000000	n/a	130190	FrequentVariableSOA	1633	n/a	n/a	1
131.8230000000	n/a	131823	FrequentVariableSOA	1733	n/a	n/a	1
133.5570000000	n/a	133557	NovelVariableSOA	1733	n/a	n/a	1
135.2900000000	n/a	135290	FrequentVariableSOA	1766	n/a	n/a	1
137.0570000000	n/a	137057	GoVariableSOA	466	n/a	n/a	1
138.6400000000	n/a	138640	FrequentVariableSOA	1666	n/a	n/a	1
140.3070000000	n/a	140307	FrequentVariableSOA	1766	n/a	n/a	1
142.0730000000	n/a	142073	FrequentVariableSOA	1633	n/a	n/a	1
143.7070000000	n/a	143707	GoVariableSOA	638	n/a	n/a	1
145.4400000000	n/a	145440	FrequentVariableSOA	1750	n/a	n/a	1
147.1900000000	n/a	147190	FrequentVariableSOA	1666	n/a	n/a	1
148.8570000000	n/a	148857	FrequentVariableSOA	1750	n/a	n/a	1
150.6070000000	n/a	150607	NovelVariableSOA	1633	n/a	n/a	1
152.2400000000	n/a	152240	FrequentVariableSOA	1600	n/a	n/a	1
153.8400000000	n/a	153840	FrequentVariableSOA	1783	n/a	n/a	1
155.6230000000	n/a	155623	FrequentVariableSOA	1733	n/a	n/a	1
157.3570000000	n/a	157357	GoVariableSOA	380	n/a	n/a	1
158.9730000000	n/a	158973	FrequentVariableSOA	1783	n/a	n/a	1
160.7570000000	n/a	160757	NovelVariableSOA	1516	n/a	n/a	1
162.2730000000	n/a	162273	FrequentVariableSOA	1583	n/a	n/a	1
163.8570000000	n/a	163857	FrequentVariableSOA	1766	n/a	n/a	1
165.6230000000	n/a	165623	FrequentVariableSOA	1666	n/a	n/a	1
167.2900000000	n/a	167290	GoVariableSOA	482	n/a	n/a	1
168.8900000000	n/a	168890	FrequentVariableSOA	1766	n/a	n/a	1
170.6570000000	n/a	170657	GoVariableSOA	494	n/a	n/a	1
172.2730000000	n/a	172273	FrequentVariableSOA	1566	n/a	n/a	1
173.8400000000	n/a	173840	FrequentVariableSOA	1500	n/a	n/a	1
175.3400000000	n/a	175340	GoVariableSOA	514	n/a	n/a	1
177.0570000000	n/a	177057	FrequentVariableSOA	1766	n/a	n/a	1
178.8230000000	n/a	178823	FrequentVariableSOA	1550	n/a	n/a	1
180.3730000000	n/a	180373	FrequentVariableSOA	1500	n/a	n/a	1
181.8730000000	n/a	181873	FrequentVariableSOA	1633	n/a	n/a	1
183.5070000000	n/a	183507	NovelVariableSOA	1716	n/a	n/a	1
185.2230000000	n/a	185223	FrequentVariableSOA	1700	n/a	n/a	1
186.9230000000	n/a	186923	NovelVariableSOA	1650	n/a	n/a	1
188.5730000000	n/a	188573	FrequentVariableSOA	1650	n/a	n/a	1
190.2230000000	n/a	190223	FrequentVariableSOA	1716	n/a	n/a	1
191.9400000000	n/a	191940	GoVariableSOA	388	n/a	n/a	1
193.5900000000	n/a	193590	FrequentVariableSOA	1633	n/a	n/a	1
195.2230000000	n/a	195223	FrequentVariableSOA	1583	n/a	n/a	1
196.8070000000	n/a	196807	FrequentVariableSOA	1766	n/a	n/a	1
198.5730000000	n/a	198573	FrequentVariableSOA	1600	n/a	n/a	1
200.1730000000	n/a	200173	NovelVariableSOA	1700	n/a	n/a	1
201.8730000000	n/a	201873	FrequentVariableSOA	1566	n/a	n/a	1
203.4400000000	n/a	203440	FrequentVariableSOA	1616	n/a	n/a	1
205.0570000000	n/a	205057	FrequentVariableSOA	1666	n/a	n/a	1
206.7230000000	n/a	206723	FrequentVariableSOA	1750	n/a	n/a	1
208.4730000000	n/a	208473	GoVariableSOA	493	n/a	n/a	1
210.2070000000	n/a	210207	FrequentVariableSOA	1566	n/a	n/a	1
211.7730000000	n/a	211773	FrequentVariableSOA	1633	n/a	n/a	1
213.4070000000	n/a	213407	NovelVariableSOA	1616	n/a	n/a	1
215.0230000000	n/a	215023	FrequentVariableSOA	1783	n/a	n/a	1
216.8070000000	n/a	216807	FrequentVariableSOA	1633	n/a	n/a	1
218.4400000000	n/a	218440	GoVariableSOA	444	n/a	n/a	1
220.2070000000	n/a	220207	FrequentVariableSOA	1800	n/a	n/a	1
222.0070000000	n/a	222007	FrequentVariableSOA	1500	n/a	n/a	1
223.5070000000	n/a	223507	FrequentVariableSOA	1750	n/a	n/a	1
225.2570000000	n/a	225257	FrequentVariableSOA	1650	n/a	n/a	1
226.9070000000	n/a	226907	NovelVariableSOA	1650	n/a	n/a	1
228.5570000000	n/a	228557	FrequentVariableSOA	1700	n/a	n/a	1
230.2570000000	n/a	230257	FrequentVariableSOA	1516	n/a	n/a	1
231.7730000000	n/a	231773	GoVariableSOA	401	n/a	n/a	1
233.4230000000	n/a	233423	FrequentFixedSOA	1633	n/a	n/a	1
235.0570000000	n/a	235057	FrequentFixedSOA	1633	n/a	n/a	1
236.6900000000	n/a	236690	FrequentFixedSOA	1633	n/a	n/a	1
238.3230000000	n/a	238323	GoFixedSOA	535	n/a	n/a	1
239.9570000000	n/a	239957	FrequentFixedSOA	1633	n/a	n/a	1
241.5900000000	n/a	241590	FrequentFixedSOA	1633	n/a	n/a	1
243.2230000000	n/a	243223	FrequentFixedSOA	1633	n/a	n/a	1
244.8570000000	n/a	244857	GoFixedSOA	426	n/a	n/a	1
246.4900000000	n/a	246490	FrequentFixedSOA	1633	n/a	n/a	1
248.1230000000	n/a	248123	FrequentFixedSOA	1633	n/a	n/a	1
249.7570000000	n/a	249757	FrequentFixedSOA	1633	n/a	n/a	1
251.3900000000	n/a	251390	NovelFixedSOA	1633	n/a	n/a	1
253.0230000000	n/a	253023	FrequentFixedSOA	1633	n/a	n/a	1
254.6570000000	n/a	254657	NovelFixedSOA	1633	n/a	n/a	1
256.2900000000	n/a	256290	FrequentFixedSOA	1633	n/a	n/a	1
257.9230000000	n/a	257923	FrequentFixedSOA	1633	n/a	n/a	1
259.5570000000	n/a	259557	NovelFixedSOA	1633	n/a	n/a	1
261.1900000000	n/a	261190	FrequentFixedSOA	1633	n/a	n/a	1
262.8230000000	n/a	262823	FrequentFixedSOA	1633	n/a	n/a	1
264.4570000000	n/a	264457	FrequentFixedSOA	1633	n/a	n/a	1
266.0900000000	n/a	266090	FrequentFixedSOA	1633	n/a	n/a	1
267.7230000000	n/a	267723	FrequentFixedSOA	1633	n/a	n/a	1
269.3570000000	n/a	269357	NovelFixedSOA	1633	n/a	n/a	1
270.9900000000	n/a	270990	FrequentFixedSOA	1633	n/a	n/a	1
272.6230000000	n/a	272623	FrequentFixedSOA	1633	n/a	n/a	1
274.2570000000	n/a	274257	FrequentFixedSOA	1633	n/a	n/a	1
275.8900000000	n/a	275890	FrequentFixedSOA	1633	n/a	n/a	1
277.5230000000	n/a	277523	FrequentFixedSOA	1633	n/a	n/a	1
279.1570000000	n/a	279157	GoFixedSOA	460	n/a	n/a	1
280.7900000000	n/a	280790	FrequentFixedSOA	1633	n/a	n/a	1
282.4230000000	n/a	282423	FrequentFixedSOA	1633	n/a	n/a	1
284.0570000000	n/a	284057	GoFixedSOA	468	n/a	n/a	1
285.6900000000	n/a	285690	FrequentFixedSOA	1633	n/a	n/a	1
287.3230000000	n/a	287323	NovelFixedSOA	1633	n/a	n/a	1
288.9570000000	n/a	288957	FrequentFixedSOA	1633	n/a	n/a	1
290.5900000000	n/a	290590	GoFixedSOA	397	n/a	n/a	1
292.2230000000	n/a	292223	FrequentFixedSOA	1633	n/a	n/a	1
293.8570000000	n/a	293857	GoFixedSOA	390	n/a	n/a	1
295.4900000000	n/a	295490	FrequentFixedSOA	1633	n/a	n/a	1
297.1230000000	n/a	297123	FrequentFixedSOA	1633	n/a	n/a	1
298.7570000000	n/a	298757	FrequentFixedSOA	1633	n/a	n/a	1
300.3900000000	n/a	300390	FrequentFixedSOA	1633	n/a	n/a	1
302.0230000000	n/a	302023	GoFixedSOA	447	n/a	n/a	1
303.6570000000	n/a	303657	FrequentFixedSOA	1633	n/a	n/a	1
305.2900000000	n/a	305290	FrequentFixedSOA	1633	n/a	n/a	1
306.9230000000	n/a	306923	FrequentFixedSOA	1633	n/a	n/a	1
308.5570000000	n/a	308557	NovelFixedSOA	1633	n/a	n/a	1
310.1900000000	n/a	310190	FrequentFixedSOA	1633	n/a	n/a	1
311.8230000000	n/a	311823	FrequentFixedSOA	1633	n/a	n/a	1
313.4570000000	n/a	313457	FrequentFixedSOA	1633	n/a	n/a	1
315.0900000000	n/a	315090	FrequentFixedSOA	1633	n/a	n/a	1
316.7230000000	n/a	316723	NovelFixedSOA	1633	n/a	n/a	1
318.3570000000	n/a	318357	FrequentFixedSOA	1633	n/a	n/a	1
319.9900000000	n/a	319990	FrequentFixedSOA	1633	n/a	n/a	1
321.6230000000	n/a	321623	FrequentFixedSOA	1633	n/a	n/a	1
323.2560000000	n/a	323256	FrequentFixedSOA	1633	n/a	n/a	1
324.8900000000	n/a	324890	NovelFixedSOA	1633	n/a	n/a	1
326.5230000000	n/a	326523	FrequentFixedSOA	1633	n/a	n/a	1
328.1560000000	n/a	328156	FrequentFixedSOA	1633	n/a	n/a	1
329.7900000000	n/a	329790	GoFixedSOA	479	n/a	n/a	1
331.4230000000	n/a	331423	FrequentFixedSOA	1633	n/a	n/a	1
333.0560000000	n/a	333056	FrequentFixedSOA	1633	n/a	n/a	1
334.6900000000	n/a	334690	FrequentFixedSOA	1633	n/a	n/a	1
336.3230000000	n/a	336323	FrequentFixedSOA	1633	n/a	n/a	1
337.9560000000	n/a	337956	NovelFixedSOA	1633	n/a	n/a	1
339.5900000000	n/a	339590	FrequentFixedSOA	1633	n/a	n/a	1
341.2230000000	n/a	341223	FrequentFixedSOA	1633	n/a	n/a	1
342.8560000000	n/a	342856	FrequentFixedSOA	1633	n/a	n/a	1
344.4900000000	n/a	344490	FrequentFixedSOA	1633	n/a	n/a	1
346.1230000000	n/a	346123	FrequentFixedSOA	1633	n/a	n/a	1
347.7560000000	n/a	347756	FrequentVariableSOA	1750	n/a	n/a	1
349.5060000000	n/a	349506	FrequentVariableSOA	1600	n/a	n/a	1
351.1060000000	n/a	351106	FrequentVariableSOA	1500	n/a	n/a	1
352.6060000000	n/a	352606	GoVariableSOA	337	n/a	n/a	1
354.4060000000	n/a	354406	FrequentVariableSOA	1633	n/a	n/a	1
356.0400000000	n/a	356040	FrequentVariableSOA	1733	n/a	n/a	1
357.7730000000	n/a	357773	FrequentVariableSOA	1516	n/a	n/a	1
359.2900000000	n/a	359290	GoVariableSOA	802	n/a	n/a	1
360.9230000000	n/a	360923	FrequentVariableSOA	1666	n/a	n/a	1
362.5900000000	n/a	362590	FrequentVariableSOA	1533	n/a	n/a	1
364.1230000000	n/a	364123	FrequentVariableSOA	1683	n/a	n/a	1
365.8060000000	n/a	365806	NovelVariableSOA	1666	n/a	n/a	1
367.4730000000	n/a	367473	FrequentVariableSOA	1500	n/a	n/a	1
368.9730000000	n/a	368973	NovelVariableSOA	1750	n/a	n/a	1
370.7230000000	n/a	370723	FrequentVariableSOA	1516	n/a	n/a	1
372.2400000000	n/a	372240	FrequentVariableSOA	1616	n/a	n/a	1
373.8560000000	n/a	373856	NovelVariableSOA	1600	n/a	n/a	1
375.4560000000	n/a	375456	FrequentVariableSOA	1566	n/a	n/a	1
377.0230000000	n/a	377023	FrequentVariableSOA	1683	n/a	n/a	1
378.7060000000	n/a	378706	FrequentVariableSOA	1766	n/a	n/a	1
380.4730000000	n/a	380473	FrequentVariableSOA	1516	n/a	n/a	1
381.9900000000	n/a	381990	FrequentVariableSOA	1566	n/a	n/a	1
383.5560000000	n/a	383556	NovelVariableSOA	1783	n/a	n/a	1
385.3400000000	n/a	385340	FrequentVariableSOA	1616	n/a	n/a	1
386.9560000000	n/a	386956	FrequentVariableSOA	1700	n/a	n/a	1
388.6560000000	n/a	388656	FrequentVariableSOA	1516	n/a	n/a	1
390.1730000000	n/a	390173	FrequentVariableSOA	1683	n/a	n/a	1
391.8560000000	n/a	391856	FrequentVariableSOA	1600	n/a	n/a	1
393.4560000000	n/a	393456	GoVariableSOA	470	n/a	n/a	1
395.0730000000	n/a	395073	FrequentVariableSOA	1600	n/a	n/a	1
396.6730000000	n/a	396673	FrequentVariableSOA	1583	n/a	n/a	1
398.2560000000	n/a	398256	GoVariableSOA	925	n/a	n/a	1
399.9400000000	n/a	399940	FrequentVariableSOA	1633	n/a	n/a	1
401.5730000000	n/a	401573	NovelVariableSOA	1666	n/a	n/a	1
403.2400000000	n/a	403240	FrequentVariableSOA	1800	n/a	n/a	1
405.0400000000	n/a	405040	GoVariableSOA	447	n/a	n/a	1
406.8400000000	n/a	406840	FrequentVariableSOA	1566	n/a	n/a	1
408.4060000000	n/a	408406	GoVariableSOA	472	n/a	n/a	1
410.0060000000	n/a	410006	FrequentVariableSOA	1516	n/a	n/a	1
411.5230000000	n/a	411523	FrequentVariableSOA	1616	n/a	n/a	1
413.1400000000	n/a	413140	FrequentVariableSOA	1700	n/a	n/a	1
414.8400000000	n/a	414840	FrequentVariableSOA	1550	n/a	n/a	1
416.3900000000	n/a	416390	GoVariableSOA	587	n/a	n/a	1
417.9900000000	n/a	417990	FrequentVariableSOA	1650	n/a	n/a	1
419.6400000000	n/a	419640	FrequentVariableSOA	1700	n/a	n/a	1
421.3400000000	n/a	421340	FrequentVariableSOA	1650	n/a	n/a	1
422.9900000000	n/a	422990	NovelVariableSOA	1516	n/a	n/a	1
424.5060000000	n/a	424506	FrequentVariableSOA	1566	n/a	n/a	1
426.0730000000	n/a	426073	FrequentVariableSOA	1650	n/a	n/a	1
427.7230000000	n/a	427723	FrequentVariableSOA	1600	n/a	n/a	1
429.3230000000	n/a	429323	FrequentVariableSOA	1766	n/a	n/a	1
431.0900000000	n/a	431090	NovelVariableSOA	1616	n/a	n/a	1
432.7060000000	n/a	432706	FrequentVariableSOA	1766	n/a	n/a	1
434.4730000000	n/a	434473	FrequentVariableSOA	1666	n/a	n/a	1
436.1400000000	n/a	436140	FrequentVariableSOA	1516	n/a	n/a	1
437.6560000000	n/a	437656	FrequentVariableSOA	1533	n/a	n/a	1
439.1900000000	n/a	439190	NovelVariableSOA	1566	n/a	n/a	1
440.7560000000	n/a	440756	FrequentVariableSOA	1666	n/a	n/a	1
442.4230000000	n/a	442423	FrequentVariableSOA	1616	n/a	n/a	1
444.0400000000	n/a	444040	GoVariableSOA	443	n/a	n/a	1
445.5730000000	n/a	445573	FrequentVariableSOA	1716	n/a	n/a	1
447.2900000000	n/a	447290	FrequentVariableSOA	1800	n/a	n/a	1
449.0900000000	n/a	449090	FrequentVariableSOA	1700	n/a	n/a	1
450.7900000000	n/a	450790	FrequentVariableSOA	1666	n/a	n/a	1
452.4560000000	n/a	452456	NovelVariableSOA	1766	n/a	n/a	1
454.2230000000	n/a	454223	FrequentVariableSOA	1500	n/a	n/a	1
455.7230000000	n/a	455723	FrequentVariableSOA	1716	n/a	n/a	1
457.4400000000	n/a	457440	FrequentVariableSOA	1716	n/a	n/a	1
459.1560000000	n/a	459156	FrequentVariableSOA	1783	n/a	n/a	1
460.9400000000	n/a	460940	FrequentVariableSOA	1683	n/a	n/a	1
462.6230000000	n/a	462623	GoFixedSOA	607	n/a	n/a	1
464.2560000000	n/a	464256	FrequentFixedSOA	1633	n/a	n/a	1
465.8900000000	n/a	465890	FrequentFixedSOA	1633	n/a	n/a	1
467.5230000000	n/a	467523	FrequentFixedSOA	1633	n/a	n/a	1
469.1560000000	n/a	469156	FrequentFixedSOA	1633	n/a	n/a	1
470.7900000000	n/a	470790	FrequentFixedSOA	1633	n/a	n/a	1
472.4230000000	n/a	472423	FrequentFixedSOA	1633	n/a	n/a	1
474.0560000000	n/a	474056	NovelFixedSOA	1633	n/a	n/a	1
475.6900000000	n/a	475690	FrequentFixedSOA	1633	n/a	n/a	1
477.3230000000	n/a	477323	FrequentFixedSOA	1633	n/a	n/a	1
478.9560000000	n/a	478956	FrequentFixedSOA	1633	n/a	n/a	1
480.5900000000	n/a	480590	NovelFixedSOA	1633	n/a	n/a	1
482.2230000000	n/a	482223	FrequentFixedSOA	1633	n/a	n/a	1
483.8560000000	n/a	483856	GoFixedSOA	777	n/a	n/a	1
485.4900000000	n/a	485490	FrequentFixedSOA	1633	n/a	n/a	1
487.1230000000	n/a	487123	FrequentFixedSOA	1633	n/a	n/a	1
488.7560000000	n/a	488756	GoFixedSOA	503	n/a	n/a	1
490.3900000000	n/a	490390	FrequentFixedSOA	1633	n/a	n/a	1
492.0230000000	n/a	492023	NovelFixedSOA	1633	n/a	n/a	1
493.6560000000	n/a	493656	FrequentFixedSOA	1633	n/a	n/a	1
495.2900000000	n/a	495290	FrequentFixedSOA	1633	n/a	n/a	1
496.9230000000	n/a	496923	FrequentFixedSOA	1633	n/a	n/a	1
498.5560000000	n/a	498556	FrequentFixedSOA	1633	n/a	n/a	1
500.1900000000	n/a	500190	FrequentFixedSOA	1633	n/a	n/a	1
501.8230000000	n/a	501823	GoFixedSOA	524	n/a	n/a	1
503.4560000000	n/a	503456	FrequentFixedSOA	1633	n/a	n/a	1
505.0900000000	n/a	505090	FrequentFixedSOA	1633	n/a	n/a	1
506.7230000000	n/a	506723	NovelFixedSOA	1633	n/a	n/a	1
508.3560000000	n/a	508356	FrequentFixedSOA	1633	n/a	n/a	1
509.9900000000	n/a	509990	FrequentFixedSOA	1633	n/a	n/a	1
511.6230000000	n/a	511623	FrequentFixedSOA	1633	n/a	n/a	1
513.2560000000	n/a	513256	FrequentFixedSOA	1633	n/a	n/a	1
514.8900000000	n/a	514890	FrequentFixedSOA	1633	n/a	n/a	1
516.5230000000	n/a	516523	NovelFixedSOA	1633	n/a	n/a	1
518.1560000000	n/a	518156	FrequentFixedSOA	1633	n/a	n/a	1
519.7890000000	n/a	519789	FrequentFixedSOA	1633	n/a	n/a	1
521.4230000000	n/a	521423	FrequentFixedSOA	1633	n/a	n/a	1
523.0560000000	n/a	523056	FrequentFixedSOA	1633	n/a	n/a	1
524.6890000000	n/a	524689	GoFixedSOA	496	n/a	n/a	1
526.3230000000	n/a	526323	FrequentFixedSOA	1633	n/a	n/a	1
527.9560000000	n/a	527956	FrequentFixedSOA	1633	n/a	n/a	1
529.5890000000	n/a	529589	NovelFixedSOA	1633	n/a	n/a	1
531.2230000000	n/a	531223	FrequentFixedSOA	1633	n/a	n/a	1
532.8560000000	n/a	532856	FrequentFixedSOA	1633	n/a	n/a	1
534.4890000000	n/a	534489	NovelFixedSOA	1633	n/a	n/a	1
536.1230000000	n/a	536123	FrequentFixedSOA	1633	n/a	n/a	1
537.7560000000	n/a	537756	FrequentFixedSOA	1633	n/a	n/a	1
539.3890000000	n/a	539389	FrequentFixedSOA	1633	n/a	n/a	1
541.0230000000	n/a	541023	FrequentFixedSOA	1633	n/a	n/a	1
542.6560000000	n/a	542656	FrequentFixedSOA	1633	n/a	n/a	1
544.2890000000	n/a	544289	GoFixedSOA	521	n/a	n/a	1
545.9230000000	n/a	545923	FrequentFixedSOA	1633	n/a	n/a	1
547.5560000000	n/a	547556	FrequentFixedSOA	1633	n/a	n/a	1
549.1890000000	n/a	549189	FrequentFixedSOA	1633	n/a	n/a	1
550.8230000000	n/a	550823	FrequentFixedSOA	1633	n/a	n/a	1
552.4560000000	n/a	552456	FrequentFixedSOA	1633	n/a	n/a	1
554.0890000000	n/a	554089	NovelFixedSOA	1633	n/a	n/a	1
555.7230000000	n/a	555723	FrequentFixedSOA	1633	n/a	n/a	1
557.3560000000	n/a	557356	GoFixedSOA	1633	n/a	n/a	0
558.9890000000	n/a	558989	FrequentFixedSOA	1633	n/a	n/a	1
560.6230000000	n/a	560623	FrequentFixedSOA	1633	n/a	n/a	1
562.2560000000	n/a	562256	FrequentFixedSOA	1633	n/a	n/a	1
563.8890000000	n/a	563889	FrequentFixedSOA	1633	n/a	n/a	1
565.5230000000	n/a	565523	FrequentFixedSOA	1633	n/a	n/a	1
567.1560000000	n/a	567156	FrequentFixedSOA	1633	n/a	n/a	1
568.7890000000	n/a	568789	FrequentFixedSOA	1633	n/a	n/a	1
570.4230000000	n/a	570423	FrequentFixedSOA	1633	n/a	n/a	1
572.0560000000	n/a	572056	NovelFixedSOA	1633	n/a	n/a	1
573.6890000000	n/a	573689	FrequentFixedSOA	1633	n/a	n/a	1
575.3230000000	n/a	575323	FrequentFixedSOA	1633	n/a	n/a	1
576.9560000000	n/a	576956	GoVariableSOA	455	n/a	n/a	1
578.5730000000	n/a	578573	FrequentVariableSOA	1683	n/a	n/a	1
580.2560000000	n/a	580256	FrequentVariableSOA	1566	n/a	n/a	1
581.8230000000	n/a	581823	FrequentVariableSOA	1583	n/a	n/a	1
583.4060000000	n/a	583406	FrequentVariableSOA	1766	n/a	n/a	1
585.1730000000	n/a	585173	FrequentVariableSOA	1533	n/a	n/a	1
586.7060000000	n/a	586706	FrequentVariableSOA	1650	n/a	n/a	1
588.3560000000	n/a	588356	NovelVariableSOA	1566	n/a	n/a	1
589.9230000000	n/a	589923	FrequentVariableSOA	1766	n/a	n/a	1
591.6890000000	n/a	591689	FrequentVariableSOA	1750	n/a	n/a	1
593.4390000000	n/a	593439	FrequentVariableSOA	1633	n/a	n/a	1
595.0730000000	n/a	595073	NovelVariableSOA	1800	n/a	n/a	1
596.8730000000	n/a	596873	FrequentVariableSOA	1766	n/a	n/a	1
598.6390000000	n/a	598639	GoVariableSOA	391	n/a	n/a	1
600.4060000000	n/a	600406	FrequentVariableSOA	1633	n/a	n/a	1
602.0390000000	n/a	602039	FrequentVariableSOA	1683	n/a	n/a	1
603.7230000000	n/a	603723	GoVariableSOA	432	n/a	n/a	1
605.3560000000	n/a	605356	FrequentVariableSOA	1633	n/a	n/a	1
606.9890000000	n/a	606989	NovelVariableSOA	1750	n/a	n/a	1
608.7390000000	n/a	608739	FrequentVariableSOA	1666	n/a	n/a	1
610.4060000000	n/a	610406	FrequentVariableSOA	1566	n/a	n/a	1
611.9730000000	n/a	611973	FrequentVariableSOA	1516	n/a	n/a	1
613.4890000000	n/a	613489	FrequentVariableSOA	1516	n/a	n/a	1
615.0060000000	n/a	615006	FrequentVariableSOA	1550	n/a	n/a	1
616.5560000000	n/a	616556	GoVariableSOA	532	n/a	n/a	1
618.0730000000	n/a	618073	FrequentVariableSOA	1716	n/a	n/a	1
619.7890000000	n/a	619789	FrequentVariableSOA	1616	n/a	n/a	1
621.4060000000	n/a	621406	NovelVariableSOA	1616	n/a	n/a	1
623.0230000000	n/a	623023	FrequentVariableSOA	1716	n/a	n/a	1
624.7390000000	n/a	624739	FrequentVariableSOA	1766	n/a	n/a	1
626.5060000000	n/a	626506	FrequentVariableSOA	1683	n/a	n/a	1
628.1890000000	n/a	628189	FrequentVariableSOA	1550	n/a	n/a	1
629.7390000000	n/a	629739	FrequentVariableSOA	1683	n/a	n/a	1
631.4230000000	n/a	631423	NovelVariableSOA	1700	n/a	n/a	1
633.1230000000	n/a	633123	FrequentVariableSOA	1733	n/a	n/a	1
634.8560000000	n/a	634856	FrequentVariableSOA	1750	n/a	n/a	1
636.6060000000	n/a	636606	FrequentVariableSOA	1633	n/a	n/a	1
638.2390000000	n/a	638239	FrequentVariableSOA	1750	n/a	n/a	1
639.9890000000	n/a	639989	GoVariableSOA	453	n/a	n/a	1
641.7390000000	n/a	641739	FrequentVariableSOA	1766	n/a	n/a	1
643.5060000000	n/a	643506	FrequentVariableSOA	1516	n/a	n/a	1
645.0230000000	n/a	645023	NovelVariableSOA	1550	n/a	n/a	1
646.5730000000	n/a	646573	FrequentVariableSOA	1650	n/a	n/a	1
648.2230000000	n/a	648223	FrequentVariableSOA	1666	n/a	n/a	1
649.8890000000	n/a	649889	NovelVariableSOA	1733	n/a	n/a	1
651.6230000000	n/a	651623	FrequentVariableSOA	1516	n/a	n/a	1
653.1390000000	n/a	653139	FrequentVariableSOA	1516	n/a	n/a	1
654.6560000000	n/a	654656	FrequentVariableSOA	1750	n/a	n/a	1
656.4060000000	n/a	656406	FrequentVariableSOA	1683	n/a	n/a	1
658.0890000000	n/a	658089	FrequentVariableSOA	1516	n/a	n/a	1
659.6060000000	n/a	659606	GoVariableSOA	413	n/a	n/a	1
661.2730000000	n/a	661273	FrequentVariableSOA	1716	n/a	n/a	1
662.9890000000	n/a	662989	FrequentVariableSOA	1633	n/a	n/a	1
664.6230000000	n/a	664623	FrequentVariableSOA	1550	n/a	n/a	1
666.1730000000	n/a	666173	FrequentVariableSOA	1683	n/a	n/a	1
667.8560000000	n/a	667856	FrequentVariableSOA	1583	n/a	n/a	1
669.4390000000	n/a	669439	NovelVariableSOA	1633	n/a	n/a	1
671.0730000000	n/a	671073	FrequentVariableSOA	1716	n/a	n/a	1
672.7890000000	n/a	672789	GoVariableSOA	441	n/a	n/a	1
674.3730000000	n/a	674373	FrequentVariableSOA	1733	n/a	n/a	1
676.1060000000	n/a	676106	FrequentVariableSOA	1766	n/a	n/a	1
677.8730000000	n/a	677873	FrequentVariableSOA	1516	n/a	n/a	1
679.3890000000	n/a	679389	FrequentVariableSOA	1733	n/a	n/a	1
681.1230000000	n/a	681123	FrequentVariableSOA	1700	n/a	n/a	1
682.8230000000	n/a	682823	FrequentVariableSOA	1566	n/a	n/a	1
684.3890000000	n/a	684389	FrequentVariableSOA	1600	n/a	n/a	1
685.9890000000	n/a	685989	FrequentVariableSOA	1566	n/a	n/a	1
687.5560000000	n/a	687556	NovelVariableSOA	1683	n/a	n/a	1
689.2390000000	n/a	689239	FrequentVariableSOA	1716	n/a	n/a	1
690.9560000000	n/a	690956	FrequentVariableSOA	1550	n/a	n/a	1
692.5060000000	n/a	692506	GoFixedSOA	429	n/a	n/a	1
694.1390000000	n/a	694139	FrequentFixedSOA	1633	n/a	n/a	1
695.7730000000	n/a	695773	FrequentFixedSOA	1633	n/a	n/a	1
697.4060000000	n/a	697406	FrequentFixedSOA	1633	n/a	n/a	1
699.0390000000	n/a	699039	GoFixedSOA	389	n/a	n/a	1
700.6730000000	n/a	700673	FrequentFixedSOA	1633	n/a	n/a	1
702.3060000000	n/a	702306	FrequentFixedSOA	1633	n/a	n/a	1
703.9390000000	n/a	703939	FrequentFixedSOA	1633	n/a	n/a	1
705.5730000000	n/a	705573	FrequentFixedSOA	1633	n/a	n/a	1
707.2060000000	n/a	707206	GoFixedSOA	1633	n/a	n/a	0
708.8390000000	n/a	708839	FrequentFixedSOA	1633	n/a	n/a	1
710.4730000000	n/a	710473	FrequentFixedSOA	1633	n/a	n/a	1
712.1060000000	n/a	712106	NovelFixedSOA	1633	n/a	n/a	1
713.7390000000	n/a	713739	FrequentFixedSOA	1633	n/a	n/a	1
715.3730000000	n/a	715373	FrequentFixedSOA	1633	n/a	n/a	1
717.0060000000	n/a	717006	GoFixedSOA	396	n/a	n/a	1
718.6390000000	n/a	718639	FrequentFixedSOA	1633	n/a	n/a	1
720.2720000000	n/a	720272	FrequentFixedSOA	1633	n/a	n/a	1
721.9060000000	n/a	721906	FrequentFixedSOA	1633	n/a	n/a	1
723.5390000000	n/a	723539	NovelFixedSOA	1633	n/a	n/a	1
725.1720000000	n/a	725172	FrequentFixedSOA	1633	n/a	n/a	1
726.8060000000	n/a	726806	NovelFixedSOA	1633	n/a	n/a	1
728.4390000000	n/a	728439	FrequentFixedSOA	1633	n/a	n/a	1
730.0720000000	n/a	730072	FrequentFixedSOA	1633	n/a	n/a	1
731.7060000000	n/a	731706	FrequentFixedSOA	1633	n/a	n/a	1
733.3390000000	n/a	733339	GoFixedSOA	347	n/a	n/a	1
734.9720000000	n/a	734972	FrequentFixedSOA	1633	n/a	n/a	1
736.6060000000	n/a	736606	FrequentFixedSOA	1633	n/a	n/a	1
738.2390000000	n/a	738239	FrequentFixedSOA	1633	n/a	n/a	1
739.8720000000	n/a	739872	GoFixedSOA	420	n/a	n/a	1
741.5060000000	n/a	741506	FrequentFixedSOA	1633	n/a	n/a	1
743.1390000000	n/a	743139	FrequentFixedSOA	1633	n/a	n/a	1
744.7720000000	n/a	744772	NovelFixedSOA	1633	n/a	n/a	1
746.4060000000	n/a	746406	FrequentFixedSOA	1633	n/a	n/a	1
748.0390000000	n/a	748039	GoFixedSOA	743	n/a	n/a	1
749.6720000000	n/a	749672	FrequentFixedSOA	1633	n/a	n/a	1
751.3060000000	n/a	751306	FrequentFixedSOA	1633	n/a	n/a	1
752.9390000000	n/a	752939	FrequentFixedSOA	1633	n/a	n/a	1
754.5720000000	n/a	754572	FrequentFixedSOA	1633	n/a	n/a	1
756.2060000000	n/a	756206	FrequentFixedSOA	1633	n/a	n/a	1
757.8390000000	n/a	757839	FrequentFixedSOA	1633	n/a	n/a	1
759.4720000000	n/a	759472	NovelFixedSOA	1633	n/a	n/a	1
761.1060000000	n/a	761106	FrequentFixedSOA	1633	n/a	n/a	1
762.7390000000	n/a	762739	FrequentFixedSOA	1633	n/a	n/a	1
764.3720000000	n/a	764372	FrequentFixedSOA	1633	n/a	n/a	1
766.0060000000	n/a	766006	GoFixedSOA	426	n/a	n/a	1
767.6390000000	n/a	767639	FrequentFixedSOA	1633	n/a	n/a	1
769.2720000000	n/a	769272	FrequentFixedSOA	1633	n/a	n/a	1
770.9060000000	n/a	770906	FrequentFixedSOA	1633	n/a	n/a	1
772.5390000000	n/a	772539	FrequentFixedSOA	1633	n/a	n/a	1
774.1720000000	n/a	774172	NovelFixedSOA	1633	n/a	n/a	1
775.8060000000	n/a	775806	FrequentFixedSOA	1633	n/a	n/a	1
777.4390000000	n/a	777439	FrequentFixedSOA	1633	n/a	n/a	1
779.0720000000	n/a	779072	NovelFixedSOA	1633	n/a	n/a	1
780.7060000000	n/a	780706	FrequentFixedSOA	1633	n/a	n/a	1
782.3390000000	n/a	782339	NovelFixedSOA	1633	n/a	n/a	1
783.9720000000	n/a	783972	FrequentFixedSOA	1633	n/a	n/a	1
785.6060000000	n/a	785606	FrequentFixedSOA	1633	n/a	n/a	1
787.2390000000	n/a	787239	FrequentFixedSOA	1633	n/a	n/a	1
788.8720000000	n/a	788872	FrequentFixedSOA	1633	n/a	n/a	1
790.5060000000	n/a	790506	FrequentFixedSOA	1633	n/a	n/a	1
792.1390000000	n/a	792139	FrequentFixedSOA	1633	n/a	n/a	1
793.7720000000	n/a	793772	FrequentFixedSOA	1633	n/a	n/a	1
795.4060000000	n/a	795406	GoFixedSOA	376	n/a	n/a	1
797.0390000000	n/a	797039	FrequentFixedSOA	1633	n/a	n/a	1
798.6720000000	n/a	798672	GoFixedSOA	426	n/a	n/a	1
800.3060000000	n/a	800306	FrequentFixedSOA	1633	n/a	n/a	1
801.9390000000	n/a	801939	FrequentFixedSOA	1633	n/a	n/a	1
803.5720000000	n/a	803572	NovelFixedSOA	1633	n/a	n/a	1
805.2060000000	n/a	805206	FrequentFixedSOA	1633	n/a	n/a	1
806.8390000000	n/a	806839	GoVariableSOA	574	n/a	n/a	1
808.5890000000	n/a	808589	FrequentVariableSOA	1650	n/a	n/a	1
810.2390000000	n/a	810239	FrequentVariableSOA	1750	n/a	n/a	1
811.9890000000	n/a	811989	FrequentVariableSOA	1650	n/a	n/a	1
813.6390000000	n/a	813639	GoVariableSOA	1516	n/a	n/a	0
815.1560000000	n/a	815156	FrequentVariableSOA	1750	n/a	n/a	1
816.9060000000	n/a	816906	FrequentVariableSOA	1566	n/a	n/a	1
818.4720000000	n/a	818472	FrequentVariableSOA	1600	n/a	n/a	1
820.0720000000	n/a	820072	FrequentVariableSOA	1650	n/a	n/a	1
821.7220000000	n/a	821722	GoVariableSOA	387	n/a	n/a	1
823.4890000000	n/a	823489	FrequentVariableSOA	1783	n/a	n/a	1
825.2720000000	n/a	825272	FrequentVariableSOA	1783	n/a	n/a	1
827.0560000000	n/a	827056	NovelVariableSOA	1766	n/a	n/a	1
828.8220000000	n/a	828822	FrequentVariableSOA	1566	n/a	n/a	1
830.3890000000	n/a	830389	FrequentVariableSOA	1766	n/a	n/a	1
832.1560000000	n/a	832156	GoVariableSOA	471	n/a	n/a	1
833.7220000000	n/a	833722	FrequentVariableSOA	1616	n/a	n/a	1
835.3390000000	n/a	835339	FrequentVariableSOA	1733	n/a	n/a	1
837.0720000000	n/a	837072	FrequentVariableSOA	1666	n/a	n/a	1
838.7390000000	n/a	838739	NovelVariableSOA	1650	n/a	n/a	1
840.3890000000	n/a	840389	FrequentVariableSOA	1533	n/a	n/a	1
841.9220000000	n/a	841922	NovelVariableSOA	1733	n/a	n/a	1
843.6560000000	n/a	843656	FrequentVariableSOA	1650	n/a	n/a	1
845.3060000000	n/a	845306	FrequentVariableSOA	1683	n/a	n/a	1
846.9890000000	n/a	846989	FrequentVariableSOA	1666	n/a	n/a	1
848.6560000000	n/a	848656	GoVariableSOA	426	n/a	n/a	1
850.3560000000	n/a	850356	FrequentVariableSOA	1683	n/a	n/a	1
852.0390000000	n/a	852039	FrequentVariableSOA	1700	n/a	n/a	1
853.7390000000	n/a	853739	FrequentVariableSOA	1650	n/a	n/a	1
855.3890000000	n/a	855389	GoVariableSOA	431	n/a	n/a	1
856.9220000000	n/a	856922	FrequentVariableSOA	1683	n/a	n/a	1
858.6060000000	n/a	858606	FrequentVariableSOA	1583	n/a	n/a	1
860.1890000000	n/a	860189	NovelVariableSOA	1566	n/a	n/a	1
861.7560000000	n/a	861756	FrequentVariableSOA	1500	n/a	n/a	1
863.2560000000	n/a	863256	GoVariableSOA	555	n/a	n/a	1
864.8720000000	n/a	864872	FrequentVariableSOA	1616	n/a	n/a	1
866.4890000000	n/a	866489	FrequentVariableSOA	1750	n/a	n/a	1
868.2390000000	n/a	868239	FrequentVariableSOA	1600	n/a	n/a	1
869.8390000000	n/a	869839	FrequentVariableSOA	1533	n/a	n/a	1
871.3720000000	n/a	871372	FrequentVariableSOA	1766	n/a	n/a	1
873.1390000000	n/a	873139	FrequentVariableSOA	1600	n/a	n/a	1
874.7390000000	n/a	874739	NovelVariableSOA	1633	n/a	n/a	1
876.3720000000	n/a	876372	FrequentVariableSOA	1750	n/a	n/a	1
878.1220000000	n/a	878122	FrequentVariableSOA	1600	n/a	n/a	1
879.7220000000	n/a	879722	FrequentVariableSOA	1583	n/a	n/a	1
881.3060000000	n/a	881306	GoVariableSOA	1683	n/a	n/a	0
882.9890000000	n/a	882989	FrequentVariableSOA	1733	n/a	n/a	1
884.7220000000	n/a	884722	FrequentVariableSOA	1733	n/a	n/a	1
886.4560000000	n/a	886456	FrequentVariableSOA	1783	n/a	n/a	1
888.2390000000	n/a	888239	FrequentVariableSOA	1583	n/a	n/a	1
889.8220000000	n/a	889822	NovelVariableSOA	1533	n/a	n/a	1
891.3560000000	n/a	891356	FrequentVariableSOA	1550	n/a	n/a	1
892.9060000000	n/a	892906	FrequentVariableSOA	1700	n/a	n/a	1
894.6060000000	n/a	894606	NovelVariableSOA	1700	n/a	n/a	1
896.3060000000	n/a	896306	FrequentVariableSOA	1566	n/a	n/a	1
897.8720000000	n/a	897872	NovelVariableSOA	1716	n/a	n/a	1
899.5890000000	n/a	899589	FrequentVariableSOA	1783	n/a	n/a	1
901.3720000000	n/a	901372	FrequentVariableSOA	1750	n/a	n/a	1
903.1220000000	n/a	903122	FrequentVariableSOA	1516	n/a	n/a	1
904.6390000000	n/a	904639	FrequentVariableSOA	1550	n/a	n/a	1
906.1890000000	n/a	906189	FrequentVariableSOA	1683	n/a	n/a	1
907.8720000000	n/a	907872	FrequentVariableSOA	1566	n/a	n/a	1
909.4390000000	n/a	909439	FrequentVariableSOA	1700	n/a	n/a	1
911.1390000000	n/a	911139	GoVariableSOA	382	n/a	n/a	1
912.6560000000	n/a	912656	FrequentVariableSOA	1616	n/a	n/a	1
914.2720000000	n/a	914272	GoVariableSOA	400	n/a	n/a	1
915.9220000000	n/a	915922	FrequentVariableSOA	1800	n/a	n/a	1
917.7220000000	n/a	917722	FrequentVariableSOA	1683	n/a	n/a	1
919.4050000000	n/a	919405	NovelVariableSOA	1650	n/a	n/a	1
921.0560000000	n/a	921056	FrequentVariableSOA	1783	n/a	n/a	1
