onset	duration	sample	trial_type	response_time	stim_file	value	correct
3.4210000000	n/a	3421	FrequentFixedSOA	1633	n/a	n/a	1
5.0540000000	n/a	5054	FrequentFixedSOA	1633	n/a	n/a	1
6.6880000000	n/a	6688	FrequentFixedSOA	1633	n/a	n/a	1
8.3210000000	n/a	8321	FrequentFixedSOA	1633	n/a	n/a	1
9.9540000000	n/a	9954	FrequentFixedSOA	1633	n/a	n/a	1
11.5880000000	n/a	11588	FrequentFixedSOA	1633	n/a	n/a	1
13.2210000000	n/a	13221	FrequentFixedSOA	1633	n/a	n/a	1
14.8540000000	n/a	14854	FrequentFixedSOA	1633	n/a	n/a	1
16.4880000000	n/a	16488	FrequentFixedSOA	1633	n/a	n/a	1
18.1210000000	n/a	18121	FrequentFixedSOA	1633	n/a	n/a	1
19.7540000000	n/a	19754	NovelFixedSOA	1633	n/a	n/a	1
21.3880000000	n/a	21388	FrequentFixedSOA	1633	n/a	n/a	1
23.0210000000	n/a	23021	GoFixedSOA	572	n/a	n/a	1
24.6540000000	n/a	24654	FrequentFixedSOA	1633	n/a	n/a	1
26.2880000000	n/a	26288	FrequentFixedSOA	1633	n/a	n/a	1
27.9210000000	n/a	27921	FrequentFixedSOA	1633	n/a	n/a	1
29.5540000000	n/a	29554	GoFixedSOA	560	n/a	n/a	1
31.1880000000	n/a	31188	FrequentFixedSOA	1633	n/a	n/a	1
32.8210000000	n/a	32821	FrequentFixedSOA	1633	n/a	n/a	1
34.4540000000	n/a	34454	FrequentFixedSOA	1633	n/a	n/a	1
36.0880000000	n/a	36088	NovelFixedSOA	1633	n/a	n/a	1
37.7210000000	n/a	37721	FrequentFixedSOA	1633	n/a	n/a	1
39.3540000000	n/a	39354	FrequentFixedSOA	1633	n/a	n/a	1
40.9880000000	n/a	40988	FrequentFixedSOA	1633	n/a	n/a	1
42.6210000000	n/a	42621	GoFixedSOA	385	n/a	n/a	1
44.2540000000	n/a	44254	FrequentFixedSOA	1633	n/a	n/a	1
45.8880000000	n/a	45888	NovelFixedSOA	1633	n/a	n/a	1
47.5210000000	n/a	47521	FrequentFixedSOA	1633	n/a	n/a	1
49.1540000000	n/a	49154	FrequentFixedSOA	1633	n/a	n/a	1
50.7880000000	n/a	50788	FrequentFixedSOA	1633	n/a	n/a	1
52.4210000000	n/a	52421	GoFixedSOA	483	n/a	n/a	1
54.0540000000	n/a	54054	FrequentFixedSOA	1633	n/a	n/a	1
55.6880000000	n/a	55688	GoFixedSOA	1633	n/a	n/a	0
57.3210000000	n/a	57321	FrequentFixedSOA	1633	n/a	n/a	1
58.9540000000	n/a	58954	FrequentFixedSOA	1633	n/a	n/a	1
60.5880000000	n/a	60588	GoFixedSOA	481	n/a	n/a	1
62.2210000000	n/a	62221	FrequentFixedSOA	1633	n/a	n/a	1
63.8540000000	n/a	63854	FrequentFixedSOA	1633	n/a	n/a	1
65.4880000000	n/a	65488	FrequentFixedSOA	1633	n/a	n/a	1
67.1210000000	n/a	67121	FrequentFixedSOA	1633	n/a	n/a	1
68.7540000000	n/a	68754	NovelFixedSOA	1633	n/a	n/a	1
70.3880000000	n/a	70388	FrequentFixedSOA	1633	n/a	n/a	1
72.0210000000	n/a	72021	NovelFixedSOA	1633	n/a	n/a	1
73.6540000000	n/a	73654	FrequentFixedSOA	1633	n/a	n/a	1
75.2880000000	n/a	75288	FrequentFixedSOA	1633	n/a	n/a	1
76.9210000000	n/a	76921	GoFixedSOA	356	n/a	n/a	1
78.5540000000	n/a	78554	FrequentFixedSOA	1633	n/a	n/a	1
80.1880000000	n/a	80188	FrequentFixedSOA	1633	n/a	n/a	1
81.8210000000	n/a	81821	FrequentFixedSOA	1633	n/a	n/a	1
83.4540000000	n/a	83454	FrequentFixedSOA	1633	n/a	n/a	1
85.0880000000	n/a	85088	NovelFixedSOA	1633	n/a	n/a	1
86.7210000000	n/a	86721	FrequentFixedSOA	1633	n/a	n/a	1
88.3540000000	n/a	88354	FrequentFixedSOA	1633	n/a	n/a	1
89.9880000000	n/a	89988	FrequentFixedSOA	1633	n/a	n/a	1
91.6210000000	n/a	91621	FrequentFixedSOA	1633	n/a	n/a	1
93.2540000000	n/a	93254	GoFixedSOA	453	n/a	n/a	1
94.8880000000	n/a	94888	FrequentFixedSOA	1633	n/a	n/a	1
96.5210000000	n/a	96521	FrequentFixedSOA	1633	n/a	n/a	1
98.1540000000	n/a	98154	NovelFixedSOA	1633	n/a	n/a	1
99.7880000000	n/a	99788	FrequentFixedSOA	1633	n/a	n/a	1
101.4210000000	n/a	101421	FrequentFixedSOA	1633	n/a	n/a	1
103.0540000000	n/a	103054	GoFixedSOA	528	n/a	n/a	1
104.6880000000	n/a	104688	FrequentFixedSOA	1633	n/a	n/a	1
106.3210000000	n/a	106321	FrequentFixedSOA	1633	n/a	n/a	1
107.9540000000	n/a	107954	FrequentFixedSOA	1633	n/a	n/a	1
109.5880000000	n/a	109588	FrequentFixedSOA	1633	n/a	n/a	1
111.2210000000	n/a	111221	NovelFixedSOA	1633	n/a	n/a	1
112.8540000000	n/a	112854	FrequentFixedSOA	1633	n/a	n/a	1
114.4880000000	n/a	114488	FrequentFixedSOA	1633	n/a	n/a	1
116.1210000000	n/a	116121	GoFixedSOA	465	n/a	n/a	1
117.7540000000	n/a	117754	FrequentVariableSOA	1700	n/a	n/a	1
119.4540000000	n/a	119454	FrequentVariableSOA	1683	n/a	n/a	1
121.1380000000	n/a	121138	FrequentVariableSOA	1533	n/a	n/a	1
122.6710000000	n/a	122671	FrequentVariableSOA	1666	n/a	n/a	1
124.3380000000	n/a	124338	FrequentVariableSOA	1750	n/a	n/a	1
126.0880000000	n/a	126088	FrequentVariableSOA	1766	n/a	n/a	1
127.8540000000	n/a	127854	FrequentVariableSOA	1516	n/a	n/a	1
129.3710000000	n/a	129371	FrequentVariableSOA	1666	n/a	n/a	1
131.0380000000	n/a	131038	FrequentVariableSOA	1733	n/a	n/a	1
132.7710000000	n/a	132771	FrequentVariableSOA	1666	n/a	n/a	1
134.4380000000	n/a	134438	NovelVariableSOA	1650	n/a	n/a	1
136.0880000000	n/a	136088	FrequentVariableSOA	1716	n/a	n/a	1
137.8040000000	n/a	137804	GoVariableSOA	369	n/a	n/a	1
139.4710000000	n/a	139471	FrequentVariableSOA	1500	n/a	n/a	1
140.9710000000	n/a	140971	FrequentVariableSOA	1566	n/a	n/a	1
142.5380000000	n/a	142538	FrequentVariableSOA	1616	n/a	n/a	1
144.1540000000	n/a	144154	GoVariableSOA	505	n/a	n/a	1
145.7540000000	n/a	145754	FrequentVariableSOA	1633	n/a	n/a	1
147.3880000000	n/a	147388	FrequentVariableSOA	1616	n/a	n/a	1
149.0040000000	n/a	149004	FrequentVariableSOA	1616	n/a	n/a	1
150.6210000000	n/a	150621	NovelVariableSOA	1550	n/a	n/a	1
152.1710000000	n/a	152171	FrequentVariableSOA	1750	n/a	n/a	1
153.9210000000	n/a	153921	FrequentVariableSOA	1716	n/a	n/a	1
155.6380000000	n/a	155638	FrequentVariableSOA	1616	n/a	n/a	1
157.2540000000	n/a	157254	GoVariableSOA	551	n/a	n/a	1
158.9040000000	n/a	158904	FrequentVariableSOA	1650	n/a	n/a	1
160.5540000000	n/a	160554	NovelVariableSOA	1516	n/a	n/a	1
162.0710000000	n/a	162071	FrequentVariableSOA	1600	n/a	n/a	1
163.6710000000	n/a	163671	FrequentVariableSOA	1733	n/a	n/a	1
165.4040000000	n/a	165404	FrequentVariableSOA	1716	n/a	n/a	1
167.1210000000	n/a	167121	GoVariableSOA	341	n/a	n/a	1
168.9210000000	n/a	168921	FrequentVariableSOA	1566	n/a	n/a	1
170.4870000000	n/a	170487	GoVariableSOA	398	n/a	n/a	1
172.0370000000	n/a	172037	FrequentVariableSOA	1783	n/a	n/a	1
173.8210000000	n/a	173821	FrequentVariableSOA	1700	n/a	n/a	1
175.5210000000	n/a	175521	GoVariableSOA	546	n/a	n/a	1
177.0370000000	n/a	177037	FrequentVariableSOA	1750	n/a	n/a	1
178.7870000000	n/a	178787	FrequentVariableSOA	1583	n/a	n/a	1
180.3710000000	n/a	180371	FrequentVariableSOA	1533	n/a	n/a	1
181.9040000000	n/a	181904	FrequentVariableSOA	1650	n/a	n/a	1
183.5540000000	n/a	183554	NovelVariableSOA	1700	n/a	n/a	1
185.2540000000	n/a	185254	FrequentVariableSOA	1500	n/a	n/a	1
186.7540000000	n/a	186754	NovelVariableSOA	1666	n/a	n/a	1
188.4210000000	n/a	188421	FrequentVariableSOA	1550	n/a	n/a	1
189.9710000000	n/a	189971	FrequentVariableSOA	1616	n/a	n/a	1
191.5870000000	n/a	191587	GoVariableSOA	516	n/a	n/a	1
193.2370000000	n/a	193237	FrequentVariableSOA	1733	n/a	n/a	1
194.9710000000	n/a	194971	FrequentVariableSOA	1516	n/a	n/a	1
196.4870000000	n/a	196487	FrequentVariableSOA	1650	n/a	n/a	1
198.1370000000	n/a	198137	FrequentVariableSOA	1516	n/a	n/a	1
199.6540000000	n/a	199654	NovelVariableSOA	1550	n/a	n/a	1
201.2040000000	n/a	201204	FrequentVariableSOA	1766	n/a	n/a	1
202.9710000000	n/a	202971	FrequentVariableSOA	1683	n/a	n/a	1
204.6540000000	n/a	204654	FrequentVariableSOA	1583	n/a	n/a	1
206.2370000000	n/a	206237	FrequentVariableSOA	1683	n/a	n/a	1
207.9210000000	n/a	207921	GoVariableSOA	487	n/a	n/a	1
209.5370000000	n/a	209537	FrequentVariableSOA	1716	n/a	n/a	1
211.2540000000	n/a	211254	FrequentVariableSOA	1666	n/a	n/a	1
212.9210000000	n/a	212921	NovelVariableSOA	1550	n/a	n/a	1
214.4710000000	n/a	214471	FrequentVariableSOA	1533	n/a	n/a	1
216.0040000000	n/a	216004	FrequentVariableSOA	1550	n/a	n/a	1
217.5540000000	n/a	217554	GoVariableSOA	471	n/a	n/a	1
219.2870000000	n/a	219287	FrequentVariableSOA	1516	n/a	n/a	1
220.8040000000	n/a	220804	FrequentVariableSOA	1533	n/a	n/a	1
222.3370000000	n/a	222337	FrequentVariableSOA	1700	n/a	n/a	1
224.0370000000	n/a	224037	FrequentVariableSOA	1700	n/a	n/a	1
225.7370000000	n/a	225737	NovelVariableSOA	1716	n/a	n/a	1
227.4540000000	n/a	227454	FrequentVariableSOA	1750	n/a	n/a	1
229.2040000000	n/a	229204	FrequentVariableSOA	1550	n/a	n/a	1
230.7540000000	n/a	230754	GoVariableSOA	371	n/a	n/a	1
232.2870000000	n/a	232287	FrequentFixedSOA	1633	n/a	n/a	1
233.9210000000	n/a	233921	FrequentFixedSOA	1633	n/a	n/a	1
235.5540000000	n/a	235554	FrequentFixedSOA	1633	n/a	n/a	1
237.1870000000	n/a	237187	GoFixedSOA	457	n/a	n/a	1
238.8210000000	n/a	238821	FrequentFixedSOA	1633	n/a	n/a	1
240.4540000000	n/a	240454	FrequentFixedSOA	1633	n/a	n/a	1
242.0870000000	n/a	242087	FrequentFixedSOA	1633	n/a	n/a	1
243.7210000000	n/a	243721	GoFixedSOA	530	n/a	n/a	1
245.3540000000	n/a	245354	FrequentFixedSOA	1633	n/a	n/a	1
246.9870000000	n/a	246987	FrequentFixedSOA	1633	n/a	n/a	1
248.6210000000	n/a	248621	FrequentFixedSOA	1633	n/a	n/a	1
250.2540000000	n/a	250254	NovelFixedSOA	1633	n/a	n/a	1
251.8870000000	n/a	251887	FrequentFixedSOA	1633	n/a	n/a	1
253.5210000000	n/a	253521	NovelFixedSOA	1633	n/a	n/a	1
255.1540000000	n/a	255154	FrequentFixedSOA	1633	n/a	n/a	1
256.7870000000	n/a	256787	FrequentFixedSOA	1633	n/a	n/a	1
258.4210000000	n/a	258421	NovelFixedSOA	1633	n/a	n/a	1
260.0540000000	n/a	260054	FrequentFixedSOA	1633	n/a	n/a	1
261.6870000000	n/a	261687	FrequentFixedSOA	1633	n/a	n/a	1
263.3210000000	n/a	263321	FrequentFixedSOA	1633	n/a	n/a	1
264.9540000000	n/a	264954	FrequentFixedSOA	1633	n/a	n/a	1
266.5870000000	n/a	266587	FrequentFixedSOA	1633	n/a	n/a	1
268.2210000000	n/a	268221	NovelFixedSOA	1633	n/a	n/a	1
269.8540000000	n/a	269854	FrequentFixedSOA	1633	n/a	n/a	1
271.4870000000	n/a	271487	FrequentFixedSOA	1633	n/a	n/a	1
273.1210000000	n/a	273121	FrequentFixedSOA	1633	n/a	n/a	1
274.7540000000	n/a	274754	FrequentFixedSOA	1633	n/a	n/a	1
276.3870000000	n/a	276387	FrequentFixedSOA	1633	n/a	n/a	1
278.0210000000	n/a	278021	GoFixedSOA	325	n/a	n/a	1
279.6540000000	n/a	279654	FrequentFixedSOA	1633	n/a	n/a	1
281.2870000000	n/a	281287	FrequentFixedSOA	1633	n/a	n/a	1
282.9210000000	n/a	282921	GoFixedSOA	751	n/a	n/a	1
284.5540000000	n/a	284554	FrequentFixedSOA	1633	n/a	n/a	1
286.1870000000	n/a	286187	NovelFixedSOA	1633	n/a	n/a	1
287.8210000000	n/a	287821	FrequentFixedSOA	1633	n/a	n/a	1
289.4540000000	n/a	289454	GoFixedSOA	501	n/a	n/a	1
291.0870000000	n/a	291087	FrequentFixedSOA	1633	n/a	n/a	1
292.7210000000	n/a	292721	GoFixedSOA	669	n/a	n/a	1
294.3540000000	n/a	294354	FrequentFixedSOA	1633	n/a	n/a	1
295.9870000000	n/a	295987	FrequentFixedSOA	1633	n/a	n/a	1
297.6210000000	n/a	297621	FrequentFixedSOA	1633	n/a	n/a	1
299.2540000000	n/a	299254	FrequentFixedSOA	1633	n/a	n/a	1
300.8870000000	n/a	300887	GoFixedSOA	445	n/a	n/a	1
302.5210000000	n/a	302521	FrequentFixedSOA	1633	n/a	n/a	1
304.1540000000	n/a	304154	FrequentFixedSOA	1633	n/a	n/a	1
305.7870000000	n/a	305787	FrequentFixedSOA	1633	n/a	n/a	1
307.4210000000	n/a	307421	NovelFixedSOA	1633	n/a	n/a	1
309.0540000000	n/a	309054	FrequentFixedSOA	1633	n/a	n/a	1
310.6870000000	n/a	310687	FrequentFixedSOA	1633	n/a	n/a	1
312.3210000000	n/a	312321	FrequentFixedSOA	1633	n/a	n/a	1
313.9540000000	n/a	313954	FrequentFixedSOA	1633	n/a	n/a	1
315.5870000000	n/a	315587	NovelFixedSOA	1633	n/a	n/a	1
317.2210000000	n/a	317221	FrequentFixedSOA	1633	n/a	n/a	1
318.8540000000	n/a	318854	FrequentFixedSOA	1633	n/a	n/a	1
320.4870000000	n/a	320487	FrequentFixedSOA	1633	n/a	n/a	1
322.1210000000	n/a	322121	FrequentFixedSOA	1633	n/a	n/a	1
323.7540000000	n/a	323754	NovelFixedSOA	1633	n/a	n/a	1
325.3870000000	n/a	325387	FrequentFixedSOA	1633	n/a	n/a	1
327.0210000000	n/a	327021	FrequentFixedSOA	1633	n/a	n/a	1
328.6540000000	n/a	328654	GoFixedSOA	412	n/a	n/a	1
330.2870000000	n/a	330287	FrequentFixedSOA	1633	n/a	n/a	1
331.9210000000	n/a	331921	FrequentFixedSOA	1633	n/a	n/a	1
333.5540000000	n/a	333554	FrequentFixedSOA	1633	n/a	n/a	1
335.1870000000	n/a	335187	FrequentFixedSOA	1633	n/a	n/a	1
336.8210000000	n/a	336821	NovelFixedSOA	1633	n/a	n/a	1
338.4540000000	n/a	338454	FrequentFixedSOA	1633	n/a	n/a	1
340.0870000000	n/a	340087	FrequentFixedSOA	1633	n/a	n/a	1
341.7210000000	n/a	341721	FrequentFixedSOA	1633	n/a	n/a	1
343.3540000000	n/a	343354	FrequentFixedSOA	1633	n/a	n/a	1
344.9870000000	n/a	344987	FrequentFixedSOA	1633	n/a	n/a	1
346.6210000000	n/a	346621	FrequentVariableSOA	1550	n/a	n/a	1
348.1710000000	n/a	348171	FrequentVariableSOA	1716	n/a	n/a	1
349.8870000000	n/a	349887	FrequentVariableSOA	1683	n/a	n/a	1
351.5710000000	n/a	351571	GoVariableSOA	515	n/a	n/a	1
353.2040000000	n/a	353204	FrequentVariableSOA	1533	n/a	n/a	1
354.7370000000	n/a	354737	FrequentVariableSOA	1616	n/a	n/a	1
356.3540000000	n/a	356354	FrequentVariableSOA	1783	n/a	n/a	1
358.1370000000	n/a	358137	GoVariableSOA	535	n/a	n/a	1
359.6710000000	n/a	359671	FrequentVariableSOA	1716	n/a	n/a	1
361.3870000000	n/a	361387	FrequentVariableSOA	1600	n/a	n/a	1
362.9870000000	n/a	362987	FrequentVariableSOA	1716	n/a	n/a	1
364.7040000000	n/a	364704	NovelVariableSOA	1666	n/a	n/a	1
366.3700000000	n/a	366370	FrequentVariableSOA	1533	n/a	n/a	1
367.9040000000	n/a	367904	NovelVariableSOA	1666	n/a	n/a	1
369.5700000000	n/a	369570	FrequentVariableSOA	1766	n/a	n/a	1
371.3370000000	n/a	371337	FrequentVariableSOA	1583	n/a	n/a	1
372.9200000000	n/a	372920	NovelVariableSOA	1516	n/a	n/a	1
374.4370000000	n/a	374437	FrequentVariableSOA	1683	n/a	n/a	1
376.1200000000	n/a	376120	FrequentVariableSOA	1533	n/a	n/a	1
377.6540000000	n/a	377654	FrequentVariableSOA	1800	n/a	n/a	1
379.4540000000	n/a	379454	FrequentVariableSOA	1700	n/a	n/a	1
381.1540000000	n/a	381154	FrequentVariableSOA	1683	n/a	n/a	1
382.8370000000	n/a	382837	NovelVariableSOA	1700	n/a	n/a	1
384.5370000000	n/a	384537	FrequentVariableSOA	1666	n/a	n/a	1
386.2040000000	n/a	386204	FrequentVariableSOA	1700	n/a	n/a	1
387.9040000000	n/a	387904	FrequentVariableSOA	1716	n/a	n/a	1
389.6200000000	n/a	389620	FrequentVariableSOA	1500	n/a	n/a	1
391.1200000000	n/a	391120	FrequentVariableSOA	1716	n/a	n/a	1
392.8370000000	n/a	392837	GoVariableSOA	571	n/a	n/a	1
394.5870000000	n/a	394587	FrequentVariableSOA	1750	n/a	n/a	1
396.3370000000	n/a	396337	FrequentVariableSOA	1566	n/a	n/a	1
397.9040000000	n/a	397904	GoVariableSOA	518	n/a	n/a	1
399.6200000000	n/a	399620	FrequentVariableSOA	1566	n/a	n/a	1
401.1870000000	n/a	401187	NovelVariableSOA	1683	n/a	n/a	1
402.8700000000	n/a	402870	FrequentVariableSOA	1733	n/a	n/a	1
404.6040000000	n/a	404604	GoVariableSOA	431	n/a	n/a	1
406.3200000000	n/a	406320	FrequentVariableSOA	1650	n/a	n/a	1
407.9700000000	n/a	407970	GoVariableSOA	438	n/a	n/a	1
409.7200000000	n/a	409720	FrequentVariableSOA	1650	n/a	n/a	1
411.3700000000	n/a	411370	FrequentVariableSOA	1650	n/a	n/a	1
413.0200000000	n/a	413020	FrequentVariableSOA	1633	n/a	n/a	1
414.6540000000	n/a	414654	FrequentVariableSOA	1550	n/a	n/a	1
416.2040000000	n/a	416204	GoVariableSOA	392	n/a	n/a	1
417.9200000000	n/a	417920	FrequentVariableSOA	1566	n/a	n/a	1
419.4870000000	n/a	419487	FrequentVariableSOA	1683	n/a	n/a	1
421.1700000000	n/a	421170	FrequentVariableSOA	1600	n/a	n/a	1
422.7700000000	n/a	422770	NovelVariableSOA	1650	n/a	n/a	1
424.4200000000	n/a	424420	FrequentVariableSOA	1766	n/a	n/a	1
426.1870000000	n/a	426187	FrequentVariableSOA	1583	n/a	n/a	1
427.7700000000	n/a	427770	FrequentVariableSOA	1733	n/a	n/a	1
429.5040000000	n/a	429504	FrequentVariableSOA	1550	n/a	n/a	1
431.0540000000	n/a	431054	NovelVariableSOA	1650	n/a	n/a	1
432.7040000000	n/a	432704	FrequentVariableSOA	1616	n/a	n/a	1
434.3200000000	n/a	434320	FrequentVariableSOA	1700	n/a	n/a	1
436.0200000000	n/a	436020	FrequentVariableSOA	1516	n/a	n/a	1
437.5370000000	n/a	437537	FrequentVariableSOA	1750	n/a	n/a	1
439.2870000000	n/a	439287	NovelVariableSOA	1800	n/a	n/a	1
441.0870000000	n/a	441087	FrequentVariableSOA	1716	n/a	n/a	1
442.8040000000	n/a	442804	FrequentVariableSOA	1700	n/a	n/a	1
444.5040000000	n/a	444504	GoVariableSOA	565	n/a	n/a	1
446.2040000000	n/a	446204	FrequentVariableSOA	1600	n/a	n/a	1
447.8040000000	n/a	447804	FrequentVariableSOA	1783	n/a	n/a	1
449.5870000000	n/a	449587	FrequentVariableSOA	1650	n/a	n/a	1
451.2370000000	n/a	451237	FrequentVariableSOA	1733	n/a	n/a	1
452.9700000000	n/a	452970	NovelVariableSOA	1733	n/a	n/a	1
454.7040000000	n/a	454704	FrequentVariableSOA	1783	n/a	n/a	1
456.4870000000	n/a	456487	FrequentVariableSOA	1800	n/a	n/a	1
458.2870000000	n/a	458287	FrequentVariableSOA	1666	n/a	n/a	1
459.9540000000	n/a	459954	FrequentVariableSOA	1783	n/a	n/a	1
461.7370000000	n/a	461737	FrequentVariableSOA	1700	n/a	n/a	1
463.4370000000	n/a	463437	GoFixedSOA	441	n/a	n/a	1
465.0700000000	n/a	465070	FrequentFixedSOA	1633	n/a	n/a	1
466.7040000000	n/a	466704	FrequentFixedSOA	1633	n/a	n/a	1
468.3370000000	n/a	468337	FrequentFixedSOA	1633	n/a	n/a	1
469.9700000000	n/a	469970	FrequentFixedSOA	1633	n/a	n/a	1
471.6040000000	n/a	471604	FrequentFixedSOA	1633	n/a	n/a	1
473.2370000000	n/a	473237	FrequentFixedSOA	1633	n/a	n/a	1
474.8700000000	n/a	474870	NovelFixedSOA	1633	n/a	n/a	1
476.5040000000	n/a	476504	FrequentFixedSOA	1633	n/a	n/a	1
478.1370000000	n/a	478137	FrequentFixedSOA	1633	n/a	n/a	1
479.7700000000	n/a	479770	FrequentFixedSOA	1633	n/a	n/a	1
481.4040000000	n/a	481404	NovelFixedSOA	1633	n/a	n/a	1
483.0370000000	n/a	483037	FrequentFixedSOA	1633	n/a	n/a	1
484.6700000000	n/a	484670	GoFixedSOA	427	n/a	n/a	1
486.3040000000	n/a	486304	FrequentFixedSOA	1633	n/a	n/a	1
487.9370000000	n/a	487937	FrequentFixedSOA	1633	n/a	n/a	1
489.5700000000	n/a	489570	GoFixedSOA	599	n/a	n/a	1
491.2040000000	n/a	491204	FrequentFixedSOA	1633	n/a	n/a	1
492.8370000000	n/a	492837	NovelFixedSOA	1633	n/a	n/a	1
494.4700000000	n/a	494470	FrequentFixedSOA	1633	n/a	n/a	1
496.1040000000	n/a	496104	FrequentFixedSOA	1633	n/a	n/a	1
497.7370000000	n/a	497737	FrequentFixedSOA	1633	n/a	n/a	1
499.3700000000	n/a	499370	FrequentFixedSOA	1633	n/a	n/a	1
501.0040000000	n/a	501004	FrequentFixedSOA	1633	n/a	n/a	1
502.6370000000	n/a	502637	GoFixedSOA	447	n/a	n/a	1
504.2700000000	n/a	504270	FrequentFixedSOA	1633	n/a	n/a	1
505.9040000000	n/a	505904	FrequentFixedSOA	1633	n/a	n/a	1
507.5370000000	n/a	507537	NovelFixedSOA	1633	n/a	n/a	1
509.1700000000	n/a	509170	FrequentFixedSOA	1633	n/a	n/a	1
510.8040000000	n/a	510804	FrequentFixedSOA	1633	n/a	n/a	1
512.4370000000	n/a	512437	FrequentFixedSOA	1633	n/a	n/a	1
514.0700000000	n/a	514070	FrequentFixedSOA	1633	n/a	n/a	1
515.7040000000	n/a	515704	FrequentFixedSOA	1633	n/a	n/a	1
517.3370000000	n/a	517337	NovelFixedSOA	1633	n/a	n/a	1
518.9700000000	n/a	518970	FrequentFixedSOA	1633	n/a	n/a	1
520.6040000000	n/a	520604	FrequentFixedSOA	1633	n/a	n/a	1
522.2370000000	n/a	522237	FrequentFixedSOA	1633	n/a	n/a	1
523.8700000000	n/a	523870	FrequentFixedSOA	1633	n/a	n/a	1
525.5040000000	n/a	525504	GoFixedSOA	534	n/a	n/a	1
527.1370000000	n/a	527137	FrequentFixedSOA	1633	n/a	n/a	1
528.7700000000	n/a	528770	FrequentFixedSOA	1633	n/a	n/a	1
530.4040000000	n/a	530404	NovelFixedSOA	1633	n/a	n/a	1
532.0370000000	n/a	532037	FrequentFixedSOA	1633	n/a	n/a	1
533.6700000000	n/a	533670	FrequentFixedSOA	1633	n/a	n/a	1
535.3040000000	n/a	535304	NovelFixedSOA	1633	n/a	n/a	1
536.9370000000	n/a	536937	FrequentFixedSOA	1633	n/a	n/a	1
538.5700000000	n/a	538570	FrequentFixedSOA	1633	n/a	n/a	1
540.2040000000	n/a	540204	FrequentFixedSOA	1633	n/a	n/a	1
541.8370000000	n/a	541837	FrequentFixedSOA	1633	n/a	n/a	1
543.4700000000	n/a	543470	FrequentFixedSOA	1633	n/a	n/a	1
545.1040000000	n/a	545104	GoFixedSOA	645	n/a	n/a	1
546.7370000000	n/a	546737	FrequentFixedSOA	1633	n/a	n/a	1
548.3700000000	n/a	548370	FrequentFixedSOA	1633	n/a	n/a	1
550.0040000000	n/a	550004	FrequentFixedSOA	1633	n/a	n/a	1
551.6370000000	n/a	551637	FrequentFixedSOA	1633	n/a	n/a	1
553.2700000000	n/a	553270	FrequentFixedSOA	1633	n/a	n/a	1
554.9040000000	n/a	554904	NovelFixedSOA	1633	n/a	n/a	1
556.5370000000	n/a	556537	FrequentFixedSOA	1633	n/a	n/a	1
558.1700000000	n/a	558170	GoFixedSOA	1633	n/a	n/a	0
559.8030000000	n/a	559803	FrequentFixedSOA	1633	n/a	n/a	1
561.4370000000	n/a	561437	FrequentFixedSOA	1633	n/a	n/a	1
563.0700000000	n/a	563070	FrequentFixedSOA	1633	n/a	n/a	1
564.7030000000	n/a	564703	FrequentFixedSOA	1633	n/a	n/a	1
566.3370000000	n/a	566337	FrequentFixedSOA	1633	n/a	n/a	1
567.9700000000	n/a	567970	FrequentFixedSOA	1633	n/a	n/a	1
569.6030000000	n/a	569603	FrequentFixedSOA	1633	n/a	n/a	1
571.2370000000	n/a	571237	FrequentFixedSOA	1633	n/a	n/a	1
572.8700000000	n/a	572870	NovelFixedSOA	1633	n/a	n/a	1
574.5030000000	n/a	574503	FrequentFixedSOA	1633	n/a	n/a	1
576.1370000000	n/a	576137	FrequentFixedSOA	1633	n/a	n/a	1
577.7700000000	n/a	577770	GoVariableSOA	550	n/a	n/a	1
579.4370000000	n/a	579437	FrequentVariableSOA	1600	n/a	n/a	1
581.0370000000	n/a	581037	FrequentVariableSOA	1500	n/a	n/a	1
582.5370000000	n/a	582537	FrequentVariableSOA	1716	n/a	n/a	1
584.2530000000	n/a	584253	FrequentVariableSOA	1750	n/a	n/a	1
586.0030000000	n/a	586003	FrequentVariableSOA	1800	n/a	n/a	1
587.8030000000	n/a	587803	FrequentVariableSOA	1566	n/a	n/a	1
589.3700000000	n/a	589370	NovelVariableSOA	1800	n/a	n/a	1
591.1700000000	n/a	591170	FrequentVariableSOA	1533	n/a	n/a	1
592.7030000000	n/a	592703	FrequentVariableSOA	1583	n/a	n/a	1
594.2870000000	n/a	594287	FrequentVariableSOA	1516	n/a	n/a	1
595.8030000000	n/a	595803	NovelVariableSOA	1733	n/a	n/a	1
597.5370000000	n/a	597537	FrequentVariableSOA	1550	n/a	n/a	1
599.0870000000	n/a	599087	GoVariableSOA	420	n/a	n/a	1
600.7870000000	n/a	600787	FrequentVariableSOA	1550	n/a	n/a	1
602.3370000000	n/a	602337	FrequentVariableSOA	1800	n/a	n/a	1
604.1370000000	n/a	604137	GoVariableSOA	637	n/a	n/a	1
605.8030000000	n/a	605803	FrequentVariableSOA	1633	n/a	n/a	1
607.4370000000	n/a	607437	NovelVariableSOA	1750	n/a	n/a	1
609.1870000000	n/a	609187	FrequentVariableSOA	1800	n/a	n/a	1
610.9870000000	n/a	610987	FrequentVariableSOA	1800	n/a	n/a	1
612.7870000000	n/a	612787	FrequentVariableSOA	1733	n/a	n/a	1
614.5200000000	n/a	614520	FrequentVariableSOA	1733	n/a	n/a	1
616.2530000000	n/a	616253	FrequentVariableSOA	1516	n/a	n/a	1
617.7700000000	n/a	617770	GoVariableSOA	754	n/a	n/a	1
619.5200000000	n/a	619520	FrequentVariableSOA	1500	n/a	n/a	1
621.0200000000	n/a	621020	FrequentVariableSOA	1733	n/a	n/a	1
622.7530000000	n/a	622753	NovelVariableSOA	1766	n/a	n/a	1
624.5200000000	n/a	624520	FrequentVariableSOA	1783	n/a	n/a	1
626.3030000000	n/a	626303	FrequentVariableSOA	1583	n/a	n/a	1
627.8870000000	n/a	627887	FrequentVariableSOA	1766	n/a	n/a	1
629.6530000000	n/a	629653	FrequentVariableSOA	1516	n/a	n/a	1
631.1700000000	n/a	631170	FrequentVariableSOA	1733	n/a	n/a	1
632.9030000000	n/a	632903	NovelVariableSOA	1683	n/a	n/a	1
634.5870000000	n/a	634587	FrequentVariableSOA	1766	n/a	n/a	1
636.3530000000	n/a	636353	FrequentVariableSOA	1733	n/a	n/a	1
638.0870000000	n/a	638087	FrequentVariableSOA	1600	n/a	n/a	1
639.6870000000	n/a	639687	FrequentVariableSOA	1616	n/a	n/a	1
641.3030000000	n/a	641303	GoVariableSOA	725	n/a	n/a	1
642.9030000000	n/a	642903	FrequentVariableSOA	1600	n/a	n/a	1
644.5030000000	n/a	644503	FrequentVariableSOA	1700	n/a	n/a	1
646.2030000000	n/a	646203	NovelVariableSOA	1716	n/a	n/a	1
647.9200000000	n/a	647920	FrequentVariableSOA	1683	n/a	n/a	1
649.6030000000	n/a	649603	FrequentVariableSOA	1516	n/a	n/a	1
651.1200000000	n/a	651120	NovelVariableSOA	1533	n/a	n/a	1
652.6530000000	n/a	652653	FrequentVariableSOA	1666	n/a	n/a	1
654.3200000000	n/a	654320	FrequentVariableSOA	1750	n/a	n/a	1
656.0700000000	n/a	656070	FrequentVariableSOA	1550	n/a	n/a	1
657.6200000000	n/a	657620	FrequentVariableSOA	1666	n/a	n/a	1
659.2870000000	n/a	659287	FrequentVariableSOA	1600	n/a	n/a	1
660.8870000000	n/a	660887	GoVariableSOA	544	n/a	n/a	1
662.5200000000	n/a	662520	FrequentVariableSOA	1783	n/a	n/a	1
664.3030000000	n/a	664303	FrequentVariableSOA	1533	n/a	n/a	1
665.8370000000	n/a	665837	FrequentVariableSOA	1800	n/a	n/a	1
667.6370000000	n/a	667637	FrequentVariableSOA	1683	n/a	n/a	1
669.3200000000	n/a	669320	FrequentVariableSOA	1733	n/a	n/a	1
671.0530000000	n/a	671053	NovelVariableSOA	1600	n/a	n/a	1
672.6530000000	n/a	672653	FrequentVariableSOA	1583	n/a	n/a	1
674.2370000000	n/a	674237	GoVariableSOA	528	n/a	n/a	1
675.9870000000	n/a	675987	FrequentVariableSOA	1533	n/a	n/a	1
677.5200000000	n/a	677520	FrequentVariableSOA	1500	n/a	n/a	1
679.0200000000	n/a	679020	FrequentVariableSOA	1716	n/a	n/a	1
680.7370000000	n/a	680737	FrequentVariableSOA	1716	n/a	n/a	1
682.4530000000	n/a	682453	FrequentVariableSOA	1516	n/a	n/a	1
683.9700000000	n/a	683970	FrequentVariableSOA	1616	n/a	n/a	1
685.5870000000	n/a	685587	FrequentVariableSOA	1600	n/a	n/a	1
687.1870000000	n/a	687187	FrequentVariableSOA	1533	n/a	n/a	1
688.7200000000	n/a	688720	NovelVariableSOA	1600	n/a	n/a	1
690.3200000000	n/a	690320	FrequentVariableSOA	1566	n/a	n/a	1
691.8870000000	n/a	691887	FrequentVariableSOA	1716	n/a	n/a	1
693.6030000000	n/a	693603	GoFixedSOA	495	n/a	n/a	1
695.2370000000	n/a	695237	FrequentFixedSOA	1633	n/a	n/a	1
696.8700000000	n/a	696870	FrequentFixedSOA	1633	n/a	n/a	1
698.5030000000	n/a	698503	FrequentFixedSOA	1633	n/a	n/a	1
700.1370000000	n/a	700137	GoFixedSOA	1633	n/a	n/a	0
701.7700000000	n/a	701770	FrequentFixedSOA	1633	n/a	n/a	1
703.4030000000	n/a	703403	FrequentFixedSOA	1633	n/a	n/a	1
705.0370000000	n/a	705037	FrequentFixedSOA	1633	n/a	n/a	1
706.6700000000	n/a	706670	FrequentFixedSOA	1633	n/a	n/a	1
708.3030000000	n/a	708303	GoFixedSOA	764	n/a	n/a	1
709.9370000000	n/a	709937	FrequentFixedSOA	1633	n/a	n/a	1
711.5700000000	n/a	711570	FrequentFixedSOA	1633	n/a	n/a	1
713.2030000000	n/a	713203	NovelFixedSOA	1633	n/a	n/a	1
714.8370000000	n/a	714837	FrequentFixedSOA	1633	n/a	n/a	1
716.4700000000	n/a	716470	FrequentFixedSOA	1633	n/a	n/a	1
718.1030000000	n/a	718103	GoFixedSOA	1633	n/a	n/a	0
719.7370000000	n/a	719737	FrequentFixedSOA	1633	n/a	n/a	1
721.3700000000	n/a	721370	FrequentFixedSOA	1633	n/a	n/a	1
723.0030000000	n/a	723003	FrequentFixedSOA	1633	n/a	n/a	1
724.6370000000	n/a	724637	NovelFixedSOA	1633	n/a	n/a	1
726.2700000000	n/a	726270	FrequentFixedSOA	1633	n/a	n/a	1
727.9030000000	n/a	727903	NovelFixedSOA	1633	n/a	n/a	1
729.5370000000	n/a	729537	FrequentFixedSOA	1633	n/a	n/a	1
731.1700000000	n/a	731170	FrequentFixedSOA	1633	n/a	n/a	1
732.8030000000	n/a	732803	FrequentFixedSOA	1633	n/a	n/a	1
734.4370000000	n/a	734437	GoFixedSOA	568	n/a	n/a	1
736.0700000000	n/a	736070	FrequentFixedSOA	1633	n/a	n/a	1
737.7030000000	n/a	737703	FrequentFixedSOA	1633	n/a	n/a	1
739.3370000000	n/a	739337	FrequentFixedSOA	1633	n/a	n/a	1
740.9700000000	n/a	740970	GoFixedSOA	868	n/a	n/a	1
742.6030000000	n/a	742603	FrequentFixedSOA	1633	n/a	n/a	1
744.2370000000	n/a	744237	FrequentFixedSOA	1633	n/a	n/a	1
745.8700000000	n/a	745870	NovelFixedSOA	1633	n/a	n/a	1
747.5030000000	n/a	747503	FrequentFixedSOA	1633	n/a	n/a	1
749.1370000000	n/a	749137	GoFixedSOA	572	n/a	n/a	1
750.7700000000	n/a	750770	FrequentFixedSOA	1633	n/a	n/a	1
752.4030000000	n/a	752403	FrequentFixedSOA	1633	n/a	n/a	1
754.0370000000	n/a	754037	FrequentFixedSOA	1633	n/a	n/a	1
755.6700000000	n/a	755670	FrequentFixedSOA	1633	n/a	n/a	1
757.3030000000	n/a	757303	FrequentFixedSOA	1633	n/a	n/a	1
758.9360000000	n/a	758936	FrequentFixedSOA	1633	n/a	n/a	1
760.5700000000	n/a	760570	NovelFixedSOA	1633	n/a	n/a	1
762.2030000000	n/a	762203	FrequentFixedSOA	1633	n/a	n/a	1
763.8360000000	n/a	763836	FrequentFixedSOA	1633	n/a	n/a	1
765.4700000000	n/a	765470	FrequentFixedSOA	1633	n/a	n/a	1
767.1030000000	n/a	767103	GoFixedSOA	609	n/a	n/a	1
768.7360000000	n/a	768736	FrequentFixedSOA	1633	n/a	n/a	1
770.3700000000	n/a	770370	FrequentFixedSOA	1633	n/a	n/a	1
772.0030000000	n/a	772003	FrequentFixedSOA	1633	n/a	n/a	1
773.6360000000	n/a	773636	FrequentFixedSOA	1633	n/a	n/a	1
775.2700000000	n/a	775270	NovelFixedSOA	1633	n/a	n/a	1
776.9030000000	n/a	776903	FrequentFixedSOA	1633	n/a	n/a	1
778.5360000000	n/a	778536	FrequentFixedSOA	1633	n/a	n/a	1
780.1700000000	n/a	780170	NovelFixedSOA	1633	n/a	n/a	1
781.8030000000	n/a	781803	FrequentFixedSOA	1633	n/a	n/a	1
783.4360000000	n/a	783436	NovelFixedSOA	1633	n/a	n/a	1
785.0700000000	n/a	785070	FrequentFixedSOA	1633	n/a	n/a	1
786.7030000000	n/a	786703	FrequentFixedSOA	1633	n/a	n/a	1
788.3360000000	n/a	788336	FrequentFixedSOA	1633	n/a	n/a	1
789.9700000000	n/a	789970	FrequentFixedSOA	1633	n/a	n/a	1
791.6030000000	n/a	791603	FrequentFixedSOA	1633	n/a	n/a	1
793.2360000000	n/a	793236	FrequentFixedSOA	1633	n/a	n/a	1
794.8700000000	n/a	794870	FrequentFixedSOA	1633	n/a	n/a	1
796.5030000000	n/a	796503	GoFixedSOA	1633	n/a	n/a	0
798.1360000000	n/a	798136	FrequentFixedSOA	1633	n/a	n/a	1
799.7700000000	n/a	799770	GoFixedSOA	637	n/a	n/a	1
801.4030000000	n/a	801403	FrequentFixedSOA	1633	n/a	n/a	1
803.0360000000	n/a	803036	FrequentFixedSOA	1633	n/a	n/a	1
804.6700000000	n/a	804670	NovelFixedSOA	1633	n/a	n/a	1
806.3030000000	n/a	806303	FrequentFixedSOA	1633	n/a	n/a	1
807.9360000000	n/a	807936	GoVariableSOA	1650	n/a	n/a	0
809.5860000000	n/a	809586	FrequentVariableSOA	1516	n/a	n/a	1
811.1030000000	n/a	811103	FrequentVariableSOA	1616	n/a	n/a	1
812.7200000000	n/a	812720	FrequentVariableSOA	1733	n/a	n/a	1
814.4530000000	n/a	814453	GoVariableSOA	1750	n/a	n/a	0
816.2030000000	n/a	816203	FrequentVariableSOA	1633	n/a	n/a	1
817.8360000000	n/a	817836	FrequentVariableSOA	1766	n/a	n/a	1
819.6030000000	n/a	819603	FrequentVariableSOA	1783	n/a	n/a	1
821.3860000000	n/a	821386	FrequentVariableSOA	1600	n/a	n/a	1
822.9860000000	n/a	822986	GoVariableSOA	502	n/a	n/a	1
824.7030000000	n/a	824703	FrequentVariableSOA	1733	n/a	n/a	1
826.4360000000	n/a	826436	FrequentVariableSOA	1683	n/a	n/a	1
828.1200000000	n/a	828120	NovelVariableSOA	1700	n/a	n/a	1
829.8200000000	n/a	829820	FrequentVariableSOA	1616	n/a	n/a	1
831.4360000000	n/a	831436	FrequentVariableSOA	1766	n/a	n/a	1
833.2030000000	n/a	833203	GoVariableSOA	472	n/a	n/a	1
834.9530000000	n/a	834953	FrequentVariableSOA	1650	n/a	n/a	1
836.6030000000	n/a	836603	FrequentVariableSOA	1733	n/a	n/a	1
838.3360000000	n/a	838336	FrequentVariableSOA	1633	n/a	n/a	1
839.9700000000	n/a	839970	NovelVariableSOA	1700	n/a	n/a	1
841.6700000000	n/a	841670	FrequentVariableSOA	1500	n/a	n/a	1
843.1700000000	n/a	843170	NovelVariableSOA	1683	n/a	n/a	1
844.8530000000	n/a	844853	FrequentVariableSOA	1650	n/a	n/a	1
846.5030000000	n/a	846503	FrequentVariableSOA	1683	n/a	n/a	1
848.1860000000	n/a	848186	FrequentVariableSOA	1766	n/a	n/a	1
849.9530000000	n/a	849953	GoVariableSOA	667	n/a	n/a	1
851.6530000000	n/a	851653	FrequentVariableSOA	1683	n/a	n/a	1
853.3360000000	n/a	853336	FrequentVariableSOA	1716	n/a	n/a	1
855.0530000000	n/a	855053	FrequentVariableSOA	1600	n/a	n/a	1
856.6530000000	n/a	856653	GoVariableSOA	1766	n/a	n/a	0
858.4200000000	n/a	858420	FrequentVariableSOA	1583	n/a	n/a	1
860.0030000000	n/a	860003	FrequentVariableSOA	1750	n/a	n/a	1
861.7530000000	n/a	861753	NovelVariableSOA	1600	n/a	n/a	1
863.3530000000	n/a	863353	FrequentVariableSOA	1700	n/a	n/a	1
865.0530000000	n/a	865053	GoVariableSOA	593	n/a	n/a	1
866.8360000000	n/a	866836	FrequentVariableSOA	1500	n/a	n/a	1
868.3360000000	n/a	868336	FrequentVariableSOA	1516	n/a	n/a	1
869.8530000000	n/a	869853	FrequentVariableSOA	1533	n/a	n/a	1
871.3860000000	n/a	871386	FrequentVariableSOA	1500	n/a	n/a	1
872.8860000000	n/a	872886	FrequentVariableSOA	1583	n/a	n/a	1
874.4700000000	n/a	874470	FrequentVariableSOA	1700	n/a	n/a	1
876.1700000000	n/a	876170	NovelVariableSOA	1516	n/a	n/a	1
877.6860000000	n/a	877686	FrequentVariableSOA	1533	n/a	n/a	1
879.2200000000	n/a	879220	FrequentVariableSOA	1700	n/a	n/a	1
880.9200000000	n/a	880920	FrequentVariableSOA	1750	n/a	n/a	1
882.6700000000	n/a	882670	GoVariableSOA	559	n/a	n/a	1
884.3200000000	n/a	884320	FrequentVariableSOA	1500	n/a	n/a	1
885.8200000000	n/a	885820	FrequentVariableSOA	1666	n/a	n/a	1
887.4860000000	n/a	887486	FrequentVariableSOA	1766	n/a	n/a	1
889.2530000000	n/a	889253	FrequentVariableSOA	1666	n/a	n/a	1
890.9200000000	n/a	890920	NovelVariableSOA	1733	n/a	n/a	1
892.6530000000	n/a	892653	FrequentVariableSOA	1616	n/a	n/a	1
894.2700000000	n/a	894270	FrequentVariableSOA	1766	n/a	n/a	1
896.0360000000	n/a	896036	NovelVariableSOA	1750	n/a	n/a	1
897.7860000000	n/a	897786	FrequentVariableSOA	1600	n/a	n/a	1
899.3860000000	n/a	899386	NovelVariableSOA	1533	n/a	n/a	1
900.9200000000	n/a	900920	FrequentVariableSOA	1733	n/a	n/a	1
902.6530000000	n/a	902653	FrequentVariableSOA	1733	n/a	n/a	1
904.3860000000	n/a	904386	FrequentVariableSOA	1550	n/a	n/a	1
905.9360000000	n/a	905936	FrequentVariableSOA	1550	n/a	n/a	1
907.4860000000	n/a	907486	FrequentVariableSOA	1700	n/a	n/a	1
909.1860000000	n/a	909186	FrequentVariableSOA	1616	n/a	n/a	1
910.8030000000	n/a	910803	FrequentVariableSOA	1516	n/a	n/a	1
912.3200000000	n/a	912320	GoVariableSOA	1600	n/a	n/a	0
913.9200000000	n/a	913920	FrequentVariableSOA	1616	n/a	n/a	1
915.5360000000	n/a	915536	GoVariableSOA	466	n/a	n/a	1
917.2360000000	n/a	917236	FrequentVariableSOA	1516	n/a	n/a	1
918.7530000000	n/a	918753	FrequentVariableSOA	1566	n/a	n/a	1
920.3200000000	n/a	920320	NovelVariableSOA	1533	n/a	n/a	1
921.8530000000	n/a	921853	FrequentVariableSOA	1700	n/a	n/a	1
