onset	duration	sample	trial_type	response_time	stim_file	value	correct
4.2900000000	n/a	4290	FrequentFixedSOA	1633	n/a	n/a	1
5.9240000000	n/a	5924	FrequentFixedSOA	1633	n/a	n/a	1
7.5570000000	n/a	7557	FrequentFixedSOA	1633	n/a	n/a	1
9.1900000000	n/a	9190	FrequentFixedSOA	1633	n/a	n/a	1
10.8230000000	n/a	10823	FrequentFixedSOA	1633	n/a	n/a	1
12.4570000000	n/a	12457	FrequentFixedSOA	1633	n/a	n/a	1
14.0900000000	n/a	14090	FrequentFixedSOA	1633	n/a	n/a	1
15.7230000000	n/a	15723	FrequentFixedSOA	1633	n/a	n/a	1
17.3570000000	n/a	17357	FrequentFixedSOA	1633	n/a	n/a	1
18.9900000000	n/a	18990	FrequentFixedSOA	1633	n/a	n/a	1
20.6230000000	n/a	20623	NovelFixedSOA	1633	n/a	n/a	1
22.2570000000	n/a	22257	FrequentFixedSOA	1633	n/a	n/a	1
23.8900000000	n/a	23890	GoFixedSOA	501	n/a	n/a	1
25.5230000000	n/a	25523	FrequentFixedSOA	1633	n/a	n/a	1
27.1570000000	n/a	27157	FrequentFixedSOA	1633	n/a	n/a	1
28.7900000000	n/a	28790	FrequentFixedSOA	1633	n/a	n/a	1
30.4230000000	n/a	30423	GoFixedSOA	427	n/a	n/a	1
32.0570000000	n/a	32057	FrequentFixedSOA	1633	n/a	n/a	1
33.6900000000	n/a	33690	FrequentFixedSOA	1633	n/a	n/a	1
35.3230000000	n/a	35323	FrequentFixedSOA	1633	n/a	n/a	1
36.9570000000	n/a	36957	NovelFixedSOA	1633	n/a	n/a	1
38.5900000000	n/a	38590	FrequentFixedSOA	1633	n/a	n/a	1
40.2230000000	n/a	40223	FrequentFixedSOA	1633	n/a	n/a	1
41.8570000000	n/a	41857	FrequentFixedSOA	1633	n/a	n/a	1
43.4900000000	n/a	43490	GoFixedSOA	374	n/a	n/a	1
45.1230000000	n/a	45123	FrequentFixedSOA	1633	n/a	n/a	1
46.7570000000	n/a	46757	NovelFixedSOA	1633	n/a	n/a	1
48.3900000000	n/a	48390	FrequentFixedSOA	1633	n/a	n/a	1
50.0230000000	n/a	50023	FrequentFixedSOA	1633	n/a	n/a	1
51.6570000000	n/a	51657	FrequentFixedSOA	1633	n/a	n/a	1
53.2900000000	n/a	53290	GoFixedSOA	291	n/a	n/a	1
54.9230000000	n/a	54923	FrequentFixedSOA	1633	n/a	n/a	1
56.5570000000	n/a	56557	GoFixedSOA	406	n/a	n/a	1
58.1900000000	n/a	58190	FrequentFixedSOA	1633	n/a	n/a	1
59.8230000000	n/a	59823	FrequentFixedSOA	1633	n/a	n/a	1
61.4570000000	n/a	61457	GoFixedSOA	364	n/a	n/a	1
63.0900000000	n/a	63090	FrequentFixedSOA	1633	n/a	n/a	1
64.7230000000	n/a	64723	FrequentFixedSOA	1633	n/a	n/a	1
66.3570000000	n/a	66357	FrequentFixedSOA	1633	n/a	n/a	1
67.9900000000	n/a	67990	FrequentFixedSOA	1633	n/a	n/a	1
69.6230000000	n/a	69623	NovelFixedSOA	1633	n/a	n/a	1
71.2570000000	n/a	71257	FrequentFixedSOA	1633	n/a	n/a	1
72.8900000000	n/a	72890	NovelFixedSOA	1633	n/a	n/a	1
74.5230000000	n/a	74523	FrequentFixedSOA	1633	n/a	n/a	1
76.1570000000	n/a	76157	FrequentFixedSOA	1633	n/a	n/a	1
77.7900000000	n/a	77790	GoFixedSOA	471	n/a	n/a	1
79.4230000000	n/a	79423	FrequentFixedSOA	1633	n/a	n/a	1
81.0570000000	n/a	81057	FrequentFixedSOA	1633	n/a	n/a	1
82.6900000000	n/a	82690	FrequentFixedSOA	1633	n/a	n/a	1
84.3230000000	n/a	84323	FrequentFixedSOA	1633	n/a	n/a	1
85.9570000000	n/a	85957	NovelFixedSOA	1633	n/a	n/a	1
87.5900000000	n/a	87590	FrequentFixedSOA	1633	n/a	n/a	1
89.2230000000	n/a	89223	FrequentFixedSOA	1633	n/a	n/a	1
90.8570000000	n/a	90857	FrequentFixedSOA	1633	n/a	n/a	1
92.4900000000	n/a	92490	FrequentFixedSOA	1633	n/a	n/a	1
94.1230000000	n/a	94123	GoFixedSOA	369	n/a	n/a	1
95.7570000000	n/a	95757	FrequentFixedSOA	1633	n/a	n/a	1
97.3900000000	n/a	97390	FrequentFixedSOA	1633	n/a	n/a	1
99.0230000000	n/a	99023	NovelFixedSOA	1633	n/a	n/a	1
100.6570000000	n/a	100657	FrequentFixedSOA	1633	n/a	n/a	1
102.2900000000	n/a	102290	FrequentFixedSOA	1633	n/a	n/a	1
103.9230000000	n/a	103923	GoFixedSOA	411	n/a	n/a	1
105.5570000000	n/a	105557	FrequentFixedSOA	1633	n/a	n/a	1
107.1900000000	n/a	107190	FrequentFixedSOA	1633	n/a	n/a	1
108.8230000000	n/a	108823	FrequentFixedSOA	1633	n/a	n/a	1
110.4570000000	n/a	110457	FrequentFixedSOA	1633	n/a	n/a	1
112.0900000000	n/a	112090	NovelFixedSOA	1633	n/a	n/a	1
113.7230000000	n/a	113723	FrequentFixedSOA	1633	n/a	n/a	1
115.3570000000	n/a	115357	FrequentFixedSOA	1633	n/a	n/a	1
116.9900000000	n/a	116990	GoFixedSOA	350	n/a	n/a	1
118.6230000000	n/a	118623	FrequentVariableSOA	1666	n/a	n/a	1
120.2900000000	n/a	120290	FrequentVariableSOA	1516	n/a	n/a	1
121.8070000000	n/a	121807	FrequentVariableSOA	1600	n/a	n/a	1
123.4070000000	n/a	123407	FrequentVariableSOA	1516	n/a	n/a	1
124.9230000000	n/a	124923	FrequentVariableSOA	1616	n/a	n/a	1
126.5400000000	n/a	126540	FrequentVariableSOA	1716	n/a	n/a	1
128.2570000000	n/a	128257	FrequentVariableSOA	1700	n/a	n/a	1
129.9570000000	n/a	129957	FrequentVariableSOA	1683	n/a	n/a	1
131.6400000000	n/a	131640	FrequentVariableSOA	1566	n/a	n/a	1
133.2070000000	n/a	133207	FrequentVariableSOA	1766	n/a	n/a	1
134.9730000000	n/a	134973	NovelVariableSOA	1766	n/a	n/a	1
136.7400000000	n/a	136740	FrequentVariableSOA	1766	n/a	n/a	1
138.5070000000	n/a	138507	GoVariableSOA	409	n/a	n/a	1
140.1400000000	n/a	140140	FrequentVariableSOA	1616	n/a	n/a	1
141.7570000000	n/a	141757	FrequentVariableSOA	1500	n/a	n/a	1
143.2570000000	n/a	143257	FrequentVariableSOA	1766	n/a	n/a	1
145.0230000000	n/a	145023	GoVariableSOA	352	n/a	n/a	1
146.6570000000	n/a	146657	FrequentVariableSOA	1616	n/a	n/a	1
148.2730000000	n/a	148273	FrequentVariableSOA	1533	n/a	n/a	1
149.8070000000	n/a	149807	FrequentVariableSOA	1766	n/a	n/a	1
151.5730000000	n/a	151573	NovelVariableSOA	1783	n/a	n/a	1
153.3570000000	n/a	153357	FrequentVariableSOA	1550	n/a	n/a	1
154.9070000000	n/a	154907	FrequentVariableSOA	1700	n/a	n/a	1
156.6070000000	n/a	156607	FrequentVariableSOA	1566	n/a	n/a	1
158.1730000000	n/a	158173	GoVariableSOA	365	n/a	n/a	1
159.7900000000	n/a	159790	FrequentVariableSOA	1550	n/a	n/a	1
161.3400000000	n/a	161340	NovelVariableSOA	1666	n/a	n/a	1
163.0070000000	n/a	163007	FrequentVariableSOA	1550	n/a	n/a	1
164.5570000000	n/a	164557	FrequentVariableSOA	1750	n/a	n/a	1
166.3070000000	n/a	166307	FrequentVariableSOA	1600	n/a	n/a	1
167.9070000000	n/a	167907	GoVariableSOA	432	n/a	n/a	1
169.6570000000	n/a	169657	FrequentVariableSOA	1516	n/a	n/a	1
171.1730000000	n/a	171173	GoVariableSOA	643	n/a	n/a	1
172.8230000000	n/a	172823	FrequentVariableSOA	1750	n/a	n/a	1
174.5730000000	n/a	174573	FrequentVariableSOA	1516	n/a	n/a	1
176.0900000000	n/a	176090	GoVariableSOA	420	n/a	n/a	1
177.6900000000	n/a	177690	FrequentVariableSOA	1666	n/a	n/a	1
179.3570000000	n/a	179357	FrequentVariableSOA	1683	n/a	n/a	1
181.0400000000	n/a	181040	FrequentVariableSOA	1733	n/a	n/a	1
182.7730000000	n/a	182773	FrequentVariableSOA	1600	n/a	n/a	1
184.3730000000	n/a	184373	NovelVariableSOA	1650	n/a	n/a	1
186.0230000000	n/a	186023	FrequentVariableSOA	1633	n/a	n/a	1
187.6570000000	n/a	187657	NovelVariableSOA	1500	n/a	n/a	1
189.1570000000	n/a	189157	FrequentVariableSOA	1716	n/a	n/a	1
190.8730000000	n/a	190873	FrequentVariableSOA	1666	n/a	n/a	1
192.5400000000	n/a	192540	GoVariableSOA	383	n/a	n/a	1
194.3230000000	n/a	194323	FrequentVariableSOA	1533	n/a	n/a	1
195.8570000000	n/a	195857	FrequentVariableSOA	1683	n/a	n/a	1
197.5400000000	n/a	197540	FrequentVariableSOA	1616	n/a	n/a	1
199.1570000000	n/a	199157	FrequentVariableSOA	1583	n/a	n/a	1
200.7400000000	n/a	200740	NovelVariableSOA	1700	n/a	n/a	1
202.4400000000	n/a	202440	FrequentVariableSOA	1700	n/a	n/a	1
204.1400000000	n/a	204140	FrequentVariableSOA	1750	n/a	n/a	1
205.8900000000	n/a	205890	FrequentVariableSOA	1683	n/a	n/a	1
207.5730000000	n/a	207573	FrequentVariableSOA	1733	n/a	n/a	1
209.3060000000	n/a	209306	GoVariableSOA	449	n/a	n/a	1
210.8400000000	n/a	210840	FrequentVariableSOA	1666	n/a	n/a	1
212.5060000000	n/a	212506	FrequentVariableSOA	1683	n/a	n/a	1
214.1900000000	n/a	214190	NovelVariableSOA	1533	n/a	n/a	1
215.7230000000	n/a	215723	FrequentVariableSOA	1633	n/a	n/a	1
217.3560000000	n/a	217356	FrequentVariableSOA	1716	n/a	n/a	1
219.0730000000	n/a	219073	GoVariableSOA	512	n/a	n/a	1
220.6560000000	n/a	220656	FrequentVariableSOA	1683	n/a	n/a	1
222.3400000000	n/a	222340	FrequentVariableSOA	1750	n/a	n/a	1
224.0900000000	n/a	224090	FrequentVariableSOA	1550	n/a	n/a	1
225.6400000000	n/a	225640	FrequentVariableSOA	1683	n/a	n/a	1
227.3230000000	n/a	227323	NovelVariableSOA	1766	n/a	n/a	1
229.0900000000	n/a	229090	FrequentVariableSOA	1616	n/a	n/a	1
230.7060000000	n/a	230706	FrequentVariableSOA	1683	n/a	n/a	1
232.3900000000	n/a	232390	GoVariableSOA	350	n/a	n/a	1
233.9230000000	n/a	233923	FrequentFixedSOA	1633	n/a	n/a	1
235.5560000000	n/a	235556	FrequentFixedSOA	1633	n/a	n/a	1
237.1900000000	n/a	237190	FrequentFixedSOA	1633	n/a	n/a	1
238.8230000000	n/a	238823	GoFixedSOA	331	n/a	n/a	1
240.4560000000	n/a	240456	FrequentFixedSOA	1633	n/a	n/a	1
242.0900000000	n/a	242090	FrequentFixedSOA	1633	n/a	n/a	1
243.7230000000	n/a	243723	FrequentFixedSOA	1633	n/a	n/a	1
245.3560000000	n/a	245356	GoFixedSOA	487	n/a	n/a	1
246.9900000000	n/a	246990	FrequentFixedSOA	1633	n/a	n/a	1
248.6230000000	n/a	248623	FrequentFixedSOA	1633	n/a	n/a	1
250.2560000000	n/a	250256	FrequentFixedSOA	1633	n/a	n/a	1
251.8900000000	n/a	251890	NovelFixedSOA	1633	n/a	n/a	1
253.5230000000	n/a	253523	FrequentFixedSOA	1633	n/a	n/a	1
255.1560000000	n/a	255156	NovelFixedSOA	1633	n/a	n/a	1
256.7900000000	n/a	256790	FrequentFixedSOA	1633	n/a	n/a	1
258.4230000000	n/a	258423	FrequentFixedSOA	1633	n/a	n/a	1
260.0560000000	n/a	260056	NovelFixedSOA	1633	n/a	n/a	1
261.6900000000	n/a	261690	FrequentFixedSOA	1633	n/a	n/a	1
263.3230000000	n/a	263323	FrequentFixedSOA	1633	n/a	n/a	1
264.9560000000	n/a	264956	FrequentFixedSOA	1633	n/a	n/a	1
266.5900000000	n/a	266590	FrequentFixedSOA	1633	n/a	n/a	1
268.2230000000	n/a	268223	FrequentFixedSOA	1633	n/a	n/a	1
269.8560000000	n/a	269856	NovelFixedSOA	1633	n/a	n/a	1
271.4900000000	n/a	271490	FrequentFixedSOA	1633	n/a	n/a	1
273.1230000000	n/a	273123	FrequentFixedSOA	1633	n/a	n/a	1
274.7560000000	n/a	274756	FrequentFixedSOA	1633	n/a	n/a	1
276.3900000000	n/a	276390	FrequentFixedSOA	1633	n/a	n/a	1
278.0230000000	n/a	278023	FrequentFixedSOA	1633	n/a	n/a	1
279.6560000000	n/a	279656	GoFixedSOA	433	n/a	n/a	1
281.2900000000	n/a	281290	FrequentFixedSOA	1633	n/a	n/a	1
282.9230000000	n/a	282923	FrequentFixedSOA	1633	n/a	n/a	1
284.5560000000	n/a	284556	GoFixedSOA	417	n/a	n/a	1
286.1900000000	n/a	286190	FrequentFixedSOA	1633	n/a	n/a	1
287.8230000000	n/a	287823	NovelFixedSOA	1633	n/a	n/a	1
289.4560000000	n/a	289456	FrequentFixedSOA	1633	n/a	n/a	1
291.0900000000	n/a	291090	GoFixedSOA	412	n/a	n/a	1
292.7230000000	n/a	292723	FrequentFixedSOA	1633	n/a	n/a	1
294.3560000000	n/a	294356	GoFixedSOA	331	n/a	n/a	1
295.9900000000	n/a	295990	FrequentFixedSOA	1633	n/a	n/a	1
297.6230000000	n/a	297623	FrequentFixedSOA	1633	n/a	n/a	1
299.2560000000	n/a	299256	FrequentFixedSOA	1633	n/a	n/a	1
300.8900000000	n/a	300890	FrequentFixedSOA	1633	n/a	n/a	1
302.5230000000	n/a	302523	GoFixedSOA	430	n/a	n/a	1
304.1560000000	n/a	304156	FrequentFixedSOA	1633	n/a	n/a	1
305.7900000000	n/a	305790	FrequentFixedSOA	1633	n/a	n/a	1
307.4230000000	n/a	307423	FrequentFixedSOA	1633	n/a	n/a	1
309.0560000000	n/a	309056	NovelFixedSOA	1633	n/a	n/a	1
310.6900000000	n/a	310690	FrequentFixedSOA	1633	n/a	n/a	1
312.3230000000	n/a	312323	FrequentFixedSOA	1633	n/a	n/a	1
313.9560000000	n/a	313956	FrequentFixedSOA	1633	n/a	n/a	1
315.5900000000	n/a	315590	FrequentFixedSOA	1633	n/a	n/a	1
317.2230000000	n/a	317223	NovelFixedSOA	1633	n/a	n/a	1
318.8560000000	n/a	318856	FrequentFixedSOA	1633	n/a	n/a	1
320.4900000000	n/a	320490	FrequentFixedSOA	1633	n/a	n/a	1
322.1230000000	n/a	322123	FrequentFixedSOA	1633	n/a	n/a	1
323.7560000000	n/a	323756	FrequentFixedSOA	1633	n/a	n/a	1
325.3900000000	n/a	325390	NovelFixedSOA	1633	n/a	n/a	1
327.0230000000	n/a	327023	FrequentFixedSOA	1633	n/a	n/a	1
328.6560000000	n/a	328656	FrequentFixedSOA	1633	n/a	n/a	1
330.2900000000	n/a	330290	GoFixedSOA	443	n/a	n/a	1
331.9230000000	n/a	331923	FrequentFixedSOA	1633	n/a	n/a	1
333.5560000000	n/a	333556	FrequentFixedSOA	1633	n/a	n/a	1
335.1900000000	n/a	335190	FrequentFixedSOA	1633	n/a	n/a	1
336.8230000000	n/a	336823	FrequentFixedSOA	1633	n/a	n/a	1
338.4560000000	n/a	338456	NovelFixedSOA	1633	n/a	n/a	1
340.0900000000	n/a	340090	FrequentFixedSOA	1633	n/a	n/a	1
341.7230000000	n/a	341723	FrequentFixedSOA	1633	n/a	n/a	1
343.3560000000	n/a	343356	FrequentFixedSOA	1633	n/a	n/a	1
344.9900000000	n/a	344990	FrequentFixedSOA	1633	n/a	n/a	1
346.6230000000	n/a	346623	FrequentFixedSOA	1633	n/a	n/a	1
348.2560000000	n/a	348256	FrequentVariableSOA	1750	n/a	n/a	1
350.0060000000	n/a	350006	FrequentVariableSOA	1750	n/a	n/a	1
351.7560000000	n/a	351756	FrequentVariableSOA	1600	n/a	n/a	1
353.3560000000	n/a	353356	GoVariableSOA	415	n/a	n/a	1
354.9900000000	n/a	354990	FrequentVariableSOA	1683	n/a	n/a	1
356.6730000000	n/a	356673	FrequentVariableSOA	1766	n/a	n/a	1
358.4400000000	n/a	358440	FrequentVariableSOA	1516	n/a	n/a	1
359.9560000000	n/a	359956	GoVariableSOA	458	n/a	n/a	1
361.6060000000	n/a	361606	FrequentVariableSOA	1633	n/a	n/a	1
363.2400000000	n/a	363240	FrequentVariableSOA	1650	n/a	n/a	1
364.8900000000	n/a	364890	FrequentVariableSOA	1750	n/a	n/a	1
366.6400000000	n/a	366640	NovelVariableSOA	1683	n/a	n/a	1
368.3230000000	n/a	368323	FrequentVariableSOA	1633	n/a	n/a	1
369.9560000000	n/a	369956	NovelVariableSOA	1650	n/a	n/a	1
371.6060000000	n/a	371606	FrequentVariableSOA	1700	n/a	n/a	1
373.3060000000	n/a	373306	FrequentVariableSOA	1583	n/a	n/a	1
374.8900000000	n/a	374890	NovelVariableSOA	1550	n/a	n/a	1
376.4400000000	n/a	376440	FrequentVariableSOA	1616	n/a	n/a	1
378.0560000000	n/a	378056	FrequentVariableSOA	1716	n/a	n/a	1
379.7730000000	n/a	379773	FrequentVariableSOA	1766	n/a	n/a	1
381.5400000000	n/a	381540	FrequentVariableSOA	1533	n/a	n/a	1
383.0730000000	n/a	383073	FrequentVariableSOA	1666	n/a	n/a	1
384.7400000000	n/a	384740	NovelVariableSOA	1650	n/a	n/a	1
386.3900000000	n/a	386390	FrequentVariableSOA	1616	n/a	n/a	1
388.0060000000	n/a	388006	FrequentVariableSOA	1600	n/a	n/a	1
389.6060000000	n/a	389606	FrequentVariableSOA	1700	n/a	n/a	1
391.3060000000	n/a	391306	FrequentVariableSOA	1516	n/a	n/a	1
392.8230000000	n/a	392823	FrequentVariableSOA	1583	n/a	n/a	1
394.4060000000	n/a	394406	GoVariableSOA	771	n/a	n/a	1
396.0900000000	n/a	396090	FrequentVariableSOA	1616	n/a	n/a	1
397.7060000000	n/a	397706	FrequentVariableSOA	1566	n/a	n/a	1
399.2730000000	n/a	399273	GoVariableSOA	877	n/a	n/a	1
400.9900000000	n/a	400990	FrequentVariableSOA	1700	n/a	n/a	1
402.6900000000	n/a	402690	NovelVariableSOA	1766	n/a	n/a	1
404.4560000000	n/a	404456	FrequentVariableSOA	1716	n/a	n/a	1
406.1730000000	n/a	406173	GoVariableSOA	494	n/a	n/a	1
407.6890000000	n/a	407689	FrequentVariableSOA	1633	n/a	n/a	1
409.3230000000	n/a	409323	GoVariableSOA	337	n/a	n/a	1
410.8560000000	n/a	410856	FrequentVariableSOA	1716	n/a	n/a	1
412.5730000000	n/a	412573	FrequentVariableSOA	1800	n/a	n/a	1
414.3730000000	n/a	414373	FrequentVariableSOA	1700	n/a	n/a	1
416.0730000000	n/a	416073	FrequentVariableSOA	1516	n/a	n/a	1
417.5890000000	n/a	417589	GoVariableSOA	379	n/a	n/a	1
419.2890000000	n/a	419289	FrequentVariableSOA	1783	n/a	n/a	1
421.0730000000	n/a	421073	FrequentVariableSOA	1716	n/a	n/a	1
422.7890000000	n/a	422789	FrequentVariableSOA	1550	n/a	n/a	1
424.3390000000	n/a	424339	NovelVariableSOA	1700	n/a	n/a	1
426.0390000000	n/a	426039	FrequentVariableSOA	1700	n/a	n/a	1
427.7390000000	n/a	427739	FrequentVariableSOA	1650	n/a	n/a	1
429.3890000000	n/a	429389	FrequentVariableSOA	1650	n/a	n/a	1
431.0390000000	n/a	431039	FrequentVariableSOA	1733	n/a	n/a	1
432.7730000000	n/a	432773	NovelVariableSOA	1633	n/a	n/a	1
434.4060000000	n/a	434406	FrequentVariableSOA	1633	n/a	n/a	1
436.0390000000	n/a	436039	FrequentVariableSOA	1583	n/a	n/a	1
437.6230000000	n/a	437623	FrequentVariableSOA	1516	n/a	n/a	1
439.1390000000	n/a	439139	FrequentVariableSOA	1550	n/a	n/a	1
440.6890000000	n/a	440689	NovelVariableSOA	1733	n/a	n/a	1
442.4230000000	n/a	442423	FrequentVariableSOA	1533	n/a	n/a	1
443.9560000000	n/a	443956	FrequentVariableSOA	1616	n/a	n/a	1
445.5730000000	n/a	445573	GoVariableSOA	492	n/a	n/a	1
447.1730000000	n/a	447173	FrequentVariableSOA	1766	n/a	n/a	1
448.9390000000	n/a	448939	FrequentVariableSOA	1650	n/a	n/a	1
450.5890000000	n/a	450589	FrequentVariableSOA	1566	n/a	n/a	1
452.1560000000	n/a	452156	FrequentVariableSOA	1500	n/a	n/a	1
453.6560000000	n/a	453656	NovelVariableSOA	1700	n/a	n/a	1
455.3560000000	n/a	455356	FrequentVariableSOA	1700	n/a	n/a	1
457.0560000000	n/a	457056	FrequentVariableSOA	1650	n/a	n/a	1
458.7060000000	n/a	458706	FrequentVariableSOA	1516	n/a	n/a	1
460.2230000000	n/a	460223	FrequentVariableSOA	1616	n/a	n/a	1
461.8390000000	n/a	461839	FrequentVariableSOA	1566	n/a	n/a	1
463.4060000000	n/a	463406	GoFixedSOA	1633	n/a	n/a	0
465.0390000000	n/a	465039	FrequentFixedSOA	1633	n/a	n/a	1
466.6730000000	n/a	466673	FrequentFixedSOA	1633	n/a	n/a	1
468.3060000000	n/a	468306	FrequentFixedSOA	1633	n/a	n/a	1
469.9390000000	n/a	469939	FrequentFixedSOA	1633	n/a	n/a	1
471.5730000000	n/a	471573	FrequentFixedSOA	1633	n/a	n/a	1
473.2060000000	n/a	473206	FrequentFixedSOA	1633	n/a	n/a	1
474.8390000000	n/a	474839	NovelFixedSOA	1633	n/a	n/a	1
476.4730000000	n/a	476473	FrequentFixedSOA	1633	n/a	n/a	1
478.1060000000	n/a	478106	FrequentFixedSOA	1633	n/a	n/a	1
479.7390000000	n/a	479739	FrequentFixedSOA	1633	n/a	n/a	1
481.3730000000	n/a	481373	NovelFixedSOA	1633	n/a	n/a	1
483.0060000000	n/a	483006	FrequentFixedSOA	1633	n/a	n/a	1
484.6390000000	n/a	484639	GoFixedSOA	463	n/a	n/a	1
486.2730000000	n/a	486273	FrequentFixedSOA	1633	n/a	n/a	1
487.9060000000	n/a	487906	FrequentFixedSOA	1633	n/a	n/a	1
489.5390000000	n/a	489539	GoFixedSOA	1633	n/a	n/a	0
491.1730000000	n/a	491173	FrequentFixedSOA	1633	n/a	n/a	1
492.8060000000	n/a	492806	NovelFixedSOA	1633	n/a	n/a	1
494.4390000000	n/a	494439	FrequentFixedSOA	1633	n/a	n/a	1
496.0730000000	n/a	496073	FrequentFixedSOA	1633	n/a	n/a	1
497.7060000000	n/a	497706	FrequentFixedSOA	1633	n/a	n/a	1
499.3390000000	n/a	499339	FrequentFixedSOA	1633	n/a	n/a	1
500.9730000000	n/a	500973	FrequentFixedSOA	1633	n/a	n/a	1
502.6060000000	n/a	502606	GoFixedSOA	456	n/a	n/a	1
504.2390000000	n/a	504239	FrequentFixedSOA	1633	n/a	n/a	1
505.8730000000	n/a	505873	FrequentFixedSOA	1633	n/a	n/a	1
507.5060000000	n/a	507506	NovelFixedSOA	1633	n/a	n/a	1
509.1390000000	n/a	509139	FrequentFixedSOA	1633	n/a	n/a	1
510.7730000000	n/a	510773	FrequentFixedSOA	1633	n/a	n/a	1
512.4060000000	n/a	512406	FrequentFixedSOA	1633	n/a	n/a	1
514.0390000000	n/a	514039	FrequentFixedSOA	1633	n/a	n/a	1
515.6730000000	n/a	515673	FrequentFixedSOA	1633	n/a	n/a	1
517.3060000000	n/a	517306	NovelFixedSOA	1633	n/a	n/a	1
518.9390000000	n/a	518939	FrequentFixedSOA	1633	n/a	n/a	1
520.5730000000	n/a	520573	FrequentFixedSOA	1633	n/a	n/a	1
522.2060000000	n/a	522206	FrequentFixedSOA	1633	n/a	n/a	1
523.8390000000	n/a	523839	FrequentFixedSOA	1633	n/a	n/a	1
525.4730000000	n/a	525473	GoFixedSOA	596	n/a	n/a	1
527.1060000000	n/a	527106	FrequentFixedSOA	1633	n/a	n/a	1
528.7390000000	n/a	528739	FrequentFixedSOA	1633	n/a	n/a	1
530.3730000000	n/a	530373	NovelFixedSOA	1633	n/a	n/a	1
532.0060000000	n/a	532006	FrequentFixedSOA	1633	n/a	n/a	1
533.6390000000	n/a	533639	FrequentFixedSOA	1633	n/a	n/a	1
535.2730000000	n/a	535273	NovelFixedSOA	1633	n/a	n/a	1
536.9060000000	n/a	536906	FrequentFixedSOA	1633	n/a	n/a	1
538.5390000000	n/a	538539	FrequentFixedSOA	1633	n/a	n/a	1
540.1730000000	n/a	540173	FrequentFixedSOA	1633	n/a	n/a	1
541.8060000000	n/a	541806	FrequentFixedSOA	1633	n/a	n/a	1
543.4390000000	n/a	543439	FrequentFixedSOA	1633	n/a	n/a	1
545.0730000000	n/a	545073	GoFixedSOA	802	n/a	n/a	1
546.7060000000	n/a	546706	FrequentFixedSOA	1633	n/a	n/a	1
548.3390000000	n/a	548339	FrequentFixedSOA	1633	n/a	n/a	1
549.9730000000	n/a	549973	FrequentFixedSOA	1633	n/a	n/a	1
551.6060000000	n/a	551606	FrequentFixedSOA	1633	n/a	n/a	1
553.2390000000	n/a	553239	FrequentFixedSOA	1633	n/a	n/a	1
554.8730000000	n/a	554873	NovelFixedSOA	1633	n/a	n/a	1
556.5060000000	n/a	556506	FrequentFixedSOA	1633	n/a	n/a	1
558.1390000000	n/a	558139	GoFixedSOA	1633	n/a	n/a	0
559.7730000000	n/a	559773	FrequentFixedSOA	1633	n/a	n/a	1
561.4060000000	n/a	561406	FrequentFixedSOA	1633	n/a	n/a	1
563.0390000000	n/a	563039	FrequentFixedSOA	1633	n/a	n/a	1
564.6730000000	n/a	564673	FrequentFixedSOA	1633	n/a	n/a	1
566.3060000000	n/a	566306	FrequentFixedSOA	1633	n/a	n/a	1
567.9390000000	n/a	567939	FrequentFixedSOA	1633	n/a	n/a	1
569.5730000000	n/a	569573	FrequentFixedSOA	1633	n/a	n/a	1
571.2060000000	n/a	571206	FrequentFixedSOA	1633	n/a	n/a	1
572.8390000000	n/a	572839	NovelFixedSOA	1633	n/a	n/a	1
574.4730000000	n/a	574473	FrequentFixedSOA	1633	n/a	n/a	1
576.1060000000	n/a	576106	FrequentFixedSOA	1633	n/a	n/a	1
577.7390000000	n/a	577739	GoVariableSOA	680	n/a	n/a	1
579.4560000000	n/a	579456	FrequentVariableSOA	1616	n/a	n/a	1
581.0730000000	n/a	581073	FrequentVariableSOA	1750	n/a	n/a	1
582.8230000000	n/a	582823	FrequentVariableSOA	1533	n/a	n/a	1
584.3560000000	n/a	584356	FrequentVariableSOA	1633	n/a	n/a	1
585.9890000000	n/a	585989	FrequentVariableSOA	1700	n/a	n/a	1
587.6890000000	n/a	587689	FrequentVariableSOA	1700	n/a	n/a	1
589.3890000000	n/a	589389	NovelVariableSOA	1550	n/a	n/a	1
590.9390000000	n/a	590939	FrequentVariableSOA	1616	n/a	n/a	1
592.5560000000	n/a	592556	FrequentVariableSOA	1650	n/a	n/a	1
594.2060000000	n/a	594206	FrequentVariableSOA	1750	n/a	n/a	1
595.9560000000	n/a	595956	NovelVariableSOA	1583	n/a	n/a	1
597.5390000000	n/a	597539	FrequentVariableSOA	1616	n/a	n/a	1
599.1560000000	n/a	599156	GoVariableSOA	1650	n/a	n/a	0
600.8060000000	n/a	600806	FrequentVariableSOA	1766	n/a	n/a	1
602.5720000000	n/a	602572	FrequentVariableSOA	1600	n/a	n/a	1
604.1720000000	n/a	604172	GoVariableSOA	559	n/a	n/a	1
605.8720000000	n/a	605872	FrequentVariableSOA	1550	n/a	n/a	1
607.4220000000	n/a	607422	NovelVariableSOA	1600	n/a	n/a	1
609.0220000000	n/a	609022	FrequentVariableSOA	1583	n/a	n/a	1
610.6060000000	n/a	610606	FrequentVariableSOA	1550	n/a	n/a	1
612.1560000000	n/a	612156	FrequentVariableSOA	1783	n/a	n/a	1
613.9390000000	n/a	613939	FrequentVariableSOA	1633	n/a	n/a	1
615.5720000000	n/a	615572	FrequentVariableSOA	1733	n/a	n/a	1
617.3060000000	n/a	617306	GoVariableSOA	555	n/a	n/a	1
619.0390000000	n/a	619039	FrequentVariableSOA	1750	n/a	n/a	1
620.7890000000	n/a	620789	FrequentVariableSOA	1733	n/a	n/a	1
622.5220000000	n/a	622522	NovelVariableSOA	1700	n/a	n/a	1
624.2220000000	n/a	624222	FrequentVariableSOA	1583	n/a	n/a	1
625.8060000000	n/a	625806	FrequentVariableSOA	1783	n/a	n/a	1
627.5890000000	n/a	627589	FrequentVariableSOA	1566	n/a	n/a	1
629.1560000000	n/a	629156	FrequentVariableSOA	1733	n/a	n/a	1
630.8890000000	n/a	630889	FrequentVariableSOA	1583	n/a	n/a	1
632.4720000000	n/a	632472	NovelVariableSOA	1783	n/a	n/a	1
634.2560000000	n/a	634256	FrequentVariableSOA	1700	n/a	n/a	1
635.9560000000	n/a	635956	FrequentVariableSOA	1800	n/a	n/a	1
637.7560000000	n/a	637756	FrequentVariableSOA	1700	n/a	n/a	1
639.4560000000	n/a	639456	FrequentVariableSOA	1750	n/a	n/a	1
641.2060000000	n/a	641206	GoVariableSOA	623	n/a	n/a	1
642.8560000000	n/a	642856	FrequentVariableSOA	1516	n/a	n/a	1
644.3720000000	n/a	644372	FrequentVariableSOA	1683	n/a	n/a	1
646.0560000000	n/a	646056	NovelVariableSOA	1700	n/a	n/a	1
647.7560000000	n/a	647756	FrequentVariableSOA	1783	n/a	n/a	1
649.5390000000	n/a	649539	FrequentVariableSOA	1783	n/a	n/a	1
651.3220000000	n/a	651322	NovelVariableSOA	1516	n/a	n/a	1
652.8390000000	n/a	652839	FrequentVariableSOA	1716	n/a	n/a	1
654.5560000000	n/a	654556	FrequentVariableSOA	1600	n/a	n/a	1
656.1560000000	n/a	656156	FrequentVariableSOA	1566	n/a	n/a	1
657.7220000000	n/a	657722	FrequentVariableSOA	1733	n/a	n/a	1
659.4560000000	n/a	659456	FrequentVariableSOA	1583	n/a	n/a	1
661.0390000000	n/a	661039	GoVariableSOA	544	n/a	n/a	1
662.8220000000	n/a	662822	FrequentVariableSOA	1700	n/a	n/a	1
664.5220000000	n/a	664522	FrequentVariableSOA	1583	n/a	n/a	1
666.1060000000	n/a	666106	FrequentVariableSOA	1783	n/a	n/a	1
667.8890000000	n/a	667889	FrequentVariableSOA	1533	n/a	n/a	1
669.4220000000	n/a	669422	FrequentVariableSOA	1533	n/a	n/a	1
670.9560000000	n/a	670956	NovelVariableSOA	1600	n/a	n/a	1
672.5560000000	n/a	672556	FrequentVariableSOA	1516	n/a	n/a	1
674.0720000000	n/a	674072	GoVariableSOA	654	n/a	n/a	1
675.6560000000	n/a	675656	FrequentVariableSOA	1766	n/a	n/a	1
677.4220000000	n/a	677422	FrequentVariableSOA	1616	n/a	n/a	1
679.0390000000	n/a	679039	FrequentVariableSOA	1750	n/a	n/a	1
680.7890000000	n/a	680789	FrequentVariableSOA	1800	n/a	n/a	1
682.5890000000	n/a	682589	FrequentVariableSOA	1600	n/a	n/a	1
684.1890000000	n/a	684189	FrequentVariableSOA	1516	n/a	n/a	1
685.7060000000	n/a	685706	FrequentVariableSOA	1516	n/a	n/a	1
687.2220000000	n/a	687222	FrequentVariableSOA	1600	n/a	n/a	1
688.8220000000	n/a	688822	NovelVariableSOA	1600	n/a	n/a	1
690.4220000000	n/a	690422	FrequentVariableSOA	1633	n/a	n/a	1
692.0560000000	n/a	692056	FrequentVariableSOA	1500	n/a	n/a	1
693.5560000000	n/a	693556	GoFixedSOA	1633	n/a	n/a	0
695.1890000000	n/a	695189	FrequentFixedSOA	1633	n/a	n/a	1
696.8220000000	n/a	696822	FrequentFixedSOA	1633	n/a	n/a	1
698.4560000000	n/a	698456	FrequentFixedSOA	1633	n/a	n/a	1
700.0890000000	n/a	700089	GoFixedSOA	537	n/a	n/a	1
701.7220000000	n/a	701722	FrequentFixedSOA	1633	n/a	n/a	1
703.3560000000	n/a	703356	FrequentFixedSOA	1633	n/a	n/a	1
704.9890000000	n/a	704989	FrequentFixedSOA	1633	n/a	n/a	1
706.6220000000	n/a	706622	FrequentFixedSOA	1633	n/a	n/a	1
708.2560000000	n/a	708256	GoFixedSOA	420	n/a	n/a	1
709.8890000000	n/a	709889	FrequentFixedSOA	1633	n/a	n/a	1
711.5220000000	n/a	711522	FrequentFixedSOA	1633	n/a	n/a	1
713.1560000000	n/a	713156	NovelFixedSOA	1633	n/a	n/a	1
714.7890000000	n/a	714789	FrequentFixedSOA	1633	n/a	n/a	1
716.4220000000	n/a	716422	FrequentFixedSOA	1633	n/a	n/a	1
718.0560000000	n/a	718056	GoFixedSOA	606	n/a	n/a	1
719.6890000000	n/a	719689	FrequentFixedSOA	1633	n/a	n/a	1
721.3220000000	n/a	721322	FrequentFixedSOA	1633	n/a	n/a	1
722.9560000000	n/a	722956	FrequentFixedSOA	1633	n/a	n/a	1
724.5890000000	n/a	724589	NovelFixedSOA	1633	n/a	n/a	1
726.2220000000	n/a	726222	FrequentFixedSOA	1633	n/a	n/a	1
727.8560000000	n/a	727856	NovelFixedSOA	1633	n/a	n/a	1
729.4890000000	n/a	729489	FrequentFixedSOA	1633	n/a	n/a	1
731.1220000000	n/a	731122	FrequentFixedSOA	1633	n/a	n/a	1
732.7560000000	n/a	732756	FrequentFixedSOA	1633	n/a	n/a	1
734.3890000000	n/a	734389	GoFixedSOA	710	n/a	n/a	1
736.0220000000	n/a	736022	FrequentFixedSOA	1633	n/a	n/a	1
737.6560000000	n/a	737656	FrequentFixedSOA	1633	n/a	n/a	1
739.2890000000	n/a	739289	FrequentFixedSOA	1633	n/a	n/a	1
740.9220000000	n/a	740922	GoFixedSOA	595	n/a	n/a	1
742.5560000000	n/a	742556	FrequentFixedSOA	1633	n/a	n/a	1
744.1890000000	n/a	744189	FrequentFixedSOA	1633	n/a	n/a	1
745.8220000000	n/a	745822	NovelFixedSOA	1633	n/a	n/a	1
747.4560000000	n/a	747456	FrequentFixedSOA	1633	n/a	n/a	1
749.0890000000	n/a	749089	GoFixedSOA	1633	n/a	n/a	0
750.7220000000	n/a	750722	FrequentFixedSOA	1633	n/a	n/a	1
752.3560000000	n/a	752356	FrequentFixedSOA	1633	n/a	n/a	1
753.9890000000	n/a	753989	FrequentFixedSOA	1633	n/a	n/a	1
755.6220000000	n/a	755622	FrequentFixedSOA	1633	n/a	n/a	1
757.2560000000	n/a	757256	FrequentFixedSOA	1633	n/a	n/a	1
758.8890000000	n/a	758889	FrequentFixedSOA	1633	n/a	n/a	1
760.5220000000	n/a	760522	NovelFixedSOA	1633	n/a	n/a	1
762.1560000000	n/a	762156	FrequentFixedSOA	1633	n/a	n/a	1
763.7890000000	n/a	763789	FrequentFixedSOA	1633	n/a	n/a	1
765.4220000000	n/a	765422	FrequentFixedSOA	1633	n/a	n/a	1
767.0560000000	n/a	767056	GoFixedSOA	1633	n/a	n/a	0
768.6890000000	n/a	768689	FrequentFixedSOA	1633	n/a	n/a	1
770.3220000000	n/a	770322	FrequentFixedSOA	1633	n/a	n/a	1
771.9560000000	n/a	771956	FrequentFixedSOA	1633	n/a	n/a	1
773.5890000000	n/a	773589	FrequentFixedSOA	1633	n/a	n/a	1
775.2220000000	n/a	775222	NovelFixedSOA	1633	n/a	n/a	1
776.8560000000	n/a	776856	FrequentFixedSOA	1633	n/a	n/a	1
778.4890000000	n/a	778489	FrequentFixedSOA	1633	n/a	n/a	1
780.1220000000	n/a	780122	NovelFixedSOA	1633	n/a	n/a	1
781.7560000000	n/a	781756	FrequentFixedSOA	1633	n/a	n/a	1
783.3890000000	n/a	783389	NovelFixedSOA	1633	n/a	n/a	1
785.0220000000	n/a	785022	FrequentFixedSOA	1633	n/a	n/a	1
786.6560000000	n/a	786656	FrequentFixedSOA	1633	n/a	n/a	1
788.2890000000	n/a	788289	FrequentFixedSOA	1633	n/a	n/a	1
789.9220000000	n/a	789922	FrequentFixedSOA	1633	n/a	n/a	1
791.5560000000	n/a	791556	FrequentFixedSOA	1633	n/a	n/a	1
793.1890000000	n/a	793189	FrequentFixedSOA	1633	n/a	n/a	1
794.8220000000	n/a	794822	FrequentFixedSOA	1633	n/a	n/a	1
796.4560000000	n/a	796456	GoFixedSOA	683	n/a	n/a	1
798.0890000000	n/a	798089	FrequentFixedSOA	1633	n/a	n/a	1
799.7220000000	n/a	799722	GoFixedSOA	1633	n/a	n/a	0
801.3550000000	n/a	801355	FrequentFixedSOA	1633	n/a	n/a	1
802.9890000000	n/a	802989	FrequentFixedSOA	1633	n/a	n/a	1
804.6220000000	n/a	804622	NovelFixedSOA	1633	n/a	n/a	1
806.2550000000	n/a	806255	FrequentFixedSOA	1633	n/a	n/a	1
807.8890000000	n/a	807889	GoVariableSOA	1666	n/a	n/a	0
809.5550000000	n/a	809555	FrequentVariableSOA	1566	n/a	n/a	1
811.1220000000	n/a	811122	FrequentVariableSOA	1600	n/a	n/a	1
812.7220000000	n/a	812722	FrequentVariableSOA	1550	n/a	n/a	1
814.2720000000	n/a	814272	GoVariableSOA	518	n/a	n/a	1
816.0390000000	n/a	816039	FrequentVariableSOA	1566	n/a	n/a	1
817.6050000000	n/a	817605	FrequentVariableSOA	1533	n/a	n/a	1
819.1390000000	n/a	819139	FrequentVariableSOA	1683	n/a	n/a	1
820.8220000000	n/a	820822	FrequentVariableSOA	1716	n/a	n/a	1
822.5390000000	n/a	822539	GoVariableSOA	1650	n/a	n/a	0
824.1890000000	n/a	824189	FrequentVariableSOA	1550	n/a	n/a	1
825.7390000000	n/a	825739	FrequentVariableSOA	1616	n/a	n/a	1
827.3550000000	n/a	827355	NovelVariableSOA	1516	n/a	n/a	1
828.8720000000	n/a	828872	FrequentVariableSOA	1550	n/a	n/a	1
830.4220000000	n/a	830422	FrequentVariableSOA	1566	n/a	n/a	1
831.9890000000	n/a	831989	GoVariableSOA	587	n/a	n/a	1
833.7390000000	n/a	833739	FrequentVariableSOA	1683	n/a	n/a	1
835.4220000000	n/a	835422	FrequentVariableSOA	1600	n/a	n/a	1
837.0220000000	n/a	837022	FrequentVariableSOA	1683	n/a	n/a	1
838.7050000000	n/a	838705	NovelVariableSOA	1733	n/a	n/a	1
840.4390000000	n/a	840439	FrequentVariableSOA	1600	n/a	n/a	1
842.0390000000	n/a	842039	NovelVariableSOA	1716	n/a	n/a	1
843.7550000000	n/a	843755	FrequentVariableSOA	1516	n/a	n/a	1
845.2720000000	n/a	845272	FrequentVariableSOA	1633	n/a	n/a	1
846.9050000000	n/a	846905	FrequentVariableSOA	1650	n/a	n/a	1
848.5550000000	n/a	848555	GoVariableSOA	663	n/a	n/a	1
850.1550000000	n/a	850155	FrequentVariableSOA	1516	n/a	n/a	1
851.6720000000	n/a	851672	FrequentVariableSOA	1533	n/a	n/a	1
853.2050000000	n/a	853205	FrequentVariableSOA	1683	n/a	n/a	1
854.8890000000	n/a	854889	GoVariableSOA	641	n/a	n/a	1
856.4550000000	n/a	856455	FrequentVariableSOA	1766	n/a	n/a	1
858.2220000000	n/a	858222	FrequentVariableSOA	1666	n/a	n/a	1
859.8890000000	n/a	859889	NovelVariableSOA	1550	n/a	n/a	1
861.4390000000	n/a	861439	FrequentVariableSOA	1766	n/a	n/a	1
863.2050000000	n/a	863205	GoVariableSOA	1516	n/a	n/a	0
864.7220000000	n/a	864722	FrequentVariableSOA	1550	n/a	n/a	1
866.2720000000	n/a	866272	FrequentVariableSOA	1650	n/a	n/a	1
867.9220000000	n/a	867922	FrequentVariableSOA	1550	n/a	n/a	1
869.4720000000	n/a	869472	FrequentVariableSOA	1666	n/a	n/a	1
871.1390000000	n/a	871139	FrequentVariableSOA	1583	n/a	n/a	1
872.7220000000	n/a	872722	FrequentVariableSOA	1516	n/a	n/a	1
874.2390000000	n/a	874239	NovelVariableSOA	1650	n/a	n/a	1
875.8890000000	n/a	875889	FrequentVariableSOA	1783	n/a	n/a	1
877.6720000000	n/a	877672	FrequentVariableSOA	1666	n/a	n/a	1
879.3390000000	n/a	879339	FrequentVariableSOA	1700	n/a	n/a	1
881.0390000000	n/a	881039	GoVariableSOA	597	n/a	n/a	1
882.5550000000	n/a	882555	FrequentVariableSOA	1633	n/a	n/a	1
884.1890000000	n/a	884189	FrequentVariableSOA	1716	n/a	n/a	1
885.9050000000	n/a	885905	FrequentVariableSOA	1750	n/a	n/a	1
887.6550000000	n/a	887655	FrequentVariableSOA	1566	n/a	n/a	1
889.2220000000	n/a	889222	NovelVariableSOA	1666	n/a	n/a	1
890.8890000000	n/a	890889	FrequentVariableSOA	1583	n/a	n/a	1
892.4720000000	n/a	892472	FrequentVariableSOA	1583	n/a	n/a	1
894.0550000000	n/a	894055	NovelVariableSOA	1750	n/a	n/a	1
895.8050000000	n/a	895805	FrequentVariableSOA	1550	n/a	n/a	1
897.3550000000	n/a	897355	NovelVariableSOA	1583	n/a	n/a	1
898.9390000000	n/a	898939	FrequentVariableSOA	1733	n/a	n/a	1
900.6720000000	n/a	900672	FrequentVariableSOA	1533	n/a	n/a	1
902.2050000000	n/a	902205	FrequentVariableSOA	1600	n/a	n/a	1
903.8050000000	n/a	903805	FrequentVariableSOA	1766	n/a	n/a	1
905.5720000000	n/a	905572	FrequentVariableSOA	1683	n/a	n/a	1
907.2550000000	n/a	907255	FrequentVariableSOA	1550	n/a	n/a	1
908.8050000000	n/a	908805	FrequentVariableSOA	1683	n/a	n/a	1
910.4890000000	n/a	910489	GoVariableSOA	741	n/a	n/a	1
912.1220000000	n/a	912122	FrequentVariableSOA	1683	n/a	n/a	1
913.8050000000	n/a	913805	GoVariableSOA	1600	n/a	n/a	0
915.4050000000	n/a	915405	FrequentVariableSOA	1600	n/a	n/a	1
917.0050000000	n/a	917005	FrequentVariableSOA	1800	n/a	n/a	1
918.8050000000	n/a	918805	NovelVariableSOA	1800	n/a	n/a	1
920.6050000000	n/a	920605	FrequentVariableSOA	1566	n/a	n/a	1
