onset	duration	sample	trial_type	response_time	stim_file	value	correct
3.3740000000	n/a	3374	FrequentFixedSOA	1633	n/a	n/a	1
5.0070000000	n/a	5007	FrequentFixedSOA	1633	n/a	n/a	1
6.6400000000	n/a	6640	FrequentFixedSOA	1633	n/a	n/a	1
8.2740000000	n/a	8274	FrequentFixedSOA	1633	n/a	n/a	1
9.9070000000	n/a	9907	FrequentFixedSOA	1633	n/a	n/a	1
11.5400000000	n/a	11540	FrequentFixedSOA	1633	n/a	n/a	1
13.1740000000	n/a	13174	FrequentFixedSOA	1633	n/a	n/a	1
14.8070000000	n/a	14807	FrequentFixedSOA	1633	n/a	n/a	1
16.4400000000	n/a	16440	FrequentFixedSOA	1633	n/a	n/a	1
18.0740000000	n/a	18074	FrequentFixedSOA	1633	n/a	n/a	1
19.7070000000	n/a	19707	NovelFixedSOA	1633	n/a	n/a	1
21.3400000000	n/a	21340	FrequentFixedSOA	1633	n/a	n/a	1
22.9740000000	n/a	22974	GoFixedSOA	558	n/a	n/a	1
24.6070000000	n/a	24607	FrequentFixedSOA	1633	n/a	n/a	1
26.2400000000	n/a	26240	FrequentFixedSOA	1633	n/a	n/a	1
27.8740000000	n/a	27874	FrequentFixedSOA	1633	n/a	n/a	1
29.5070000000	n/a	29507	GoFixedSOA	620	n/a	n/a	1
31.1400000000	n/a	31140	FrequentFixedSOA	1633	n/a	n/a	1
32.7740000000	n/a	32774	FrequentFixedSOA	1633	n/a	n/a	1
34.4070000000	n/a	34407	FrequentFixedSOA	1633	n/a	n/a	1
36.0400000000	n/a	36040	NovelFixedSOA	1633	n/a	n/a	1
37.6740000000	n/a	37674	FrequentFixedSOA	1633	n/a	n/a	1
39.3070000000	n/a	39307	FrequentFixedSOA	1633	n/a	n/a	1
40.9400000000	n/a	40940	FrequentFixedSOA	1633	n/a	n/a	1
42.5740000000	n/a	42574	GoFixedSOA	650	n/a	n/a	1
44.2070000000	n/a	44207	FrequentFixedSOA	1633	n/a	n/a	1
45.8400000000	n/a	45840	NovelFixedSOA	1633	n/a	n/a	1
47.4740000000	n/a	47474	FrequentFixedSOA	1633	n/a	n/a	1
49.1070000000	n/a	49107	FrequentFixedSOA	1633	n/a	n/a	1
50.7400000000	n/a	50740	FrequentFixedSOA	1633	n/a	n/a	1
52.3740000000	n/a	52374	GoFixedSOA	1633	n/a	n/a	0
54.0070000000	n/a	54007	FrequentFixedSOA	1633	n/a	n/a	1
55.6400000000	n/a	55640	GoFixedSOA	565	n/a	n/a	1
57.2740000000	n/a	57274	FrequentFixedSOA	1633	n/a	n/a	1
58.9070000000	n/a	58907	FrequentFixedSOA	1633	n/a	n/a	1
60.5400000000	n/a	60540	GoFixedSOA	567	n/a	n/a	1
62.1740000000	n/a	62174	FrequentFixedSOA	1633	n/a	n/a	1
63.8070000000	n/a	63807	FrequentFixedSOA	1633	n/a	n/a	1
65.4400000000	n/a	65440	FrequentFixedSOA	1633	n/a	n/a	1
67.0740000000	n/a	67074	FrequentFixedSOA	1633	n/a	n/a	1
68.7070000000	n/a	68707	NovelFixedSOA	1633	n/a	n/a	1
70.3400000000	n/a	70340	FrequentFixedSOA	1633	n/a	n/a	1
71.9740000000	n/a	71974	NovelFixedSOA	1633	n/a	n/a	1
73.6070000000	n/a	73607	FrequentFixedSOA	1633	n/a	n/a	1
75.2400000000	n/a	75240	FrequentFixedSOA	1633	n/a	n/a	1
76.8730000000	n/a	76873	GoFixedSOA	526	n/a	n/a	1
78.5070000000	n/a	78507	FrequentFixedSOA	1633	n/a	n/a	1
80.1400000000	n/a	80140	FrequentFixedSOA	1633	n/a	n/a	1
81.7730000000	n/a	81773	FrequentFixedSOA	1633	n/a	n/a	1
83.4070000000	n/a	83407	FrequentFixedSOA	1633	n/a	n/a	1
85.0400000000	n/a	85040	NovelFixedSOA	1633	n/a	n/a	1
86.6730000000	n/a	86673	FrequentFixedSOA	1633	n/a	n/a	1
88.3070000000	n/a	88307	FrequentFixedSOA	1633	n/a	n/a	1
89.9400000000	n/a	89940	FrequentFixedSOA	1633	n/a	n/a	1
91.5730000000	n/a	91573	FrequentFixedSOA	1633	n/a	n/a	1
93.2070000000	n/a	93207	GoFixedSOA	610	n/a	n/a	1
94.8400000000	n/a	94840	FrequentFixedSOA	1633	n/a	n/a	1
96.4730000000	n/a	96473	FrequentFixedSOA	1633	n/a	n/a	1
98.1070000000	n/a	98107	NovelFixedSOA	1633	n/a	n/a	1
99.7400000000	n/a	99740	FrequentFixedSOA	1633	n/a	n/a	1
101.3730000000	n/a	101373	FrequentFixedSOA	1633	n/a	n/a	1
103.0070000000	n/a	103007	GoFixedSOA	1633	n/a	n/a	0
104.6400000000	n/a	104640	FrequentFixedSOA	1633	n/a	n/a	1
106.2730000000	n/a	106273	FrequentFixedSOA	1633	n/a	n/a	1
107.9070000000	n/a	107907	FrequentFixedSOA	1633	n/a	n/a	1
109.5400000000	n/a	109540	FrequentFixedSOA	1633	n/a	n/a	1
111.1730000000	n/a	111173	NovelFixedSOA	1633	n/a	n/a	1
112.8070000000	n/a	112807	FrequentFixedSOA	1633	n/a	n/a	1
114.4400000000	n/a	114440	FrequentFixedSOA	1633	n/a	n/a	1
116.0730000000	n/a	116073	GoFixedSOA	1633	n/a	n/a	0
117.7070000000	n/a	117707	FrequentFixedSOA	1633	n/a	n/a	1
119.3400000000	n/a	119340	FrequentFixedSOA	1583	n/a	n/a	1
120.9230000000	n/a	120923	FrequentFixedSOA	1750	n/a	n/a	1
122.6730000000	n/a	122673	FrequentFixedSOA	1783	n/a	n/a	1
124.4570000000	n/a	124457	FrequentFixedSOA	1750	n/a	n/a	1
126.2070000000	n/a	126207	FrequentFixedSOA	1533	n/a	n/a	1
127.7400000000	n/a	127740	FrequentFixedSOA	1633	n/a	n/a	1
129.3730000000	n/a	129373	FrequentFixedSOA	1533	n/a	n/a	1
130.9070000000	n/a	130907	FrequentFixedSOA	1650	n/a	n/a	1
132.5570000000	n/a	132557	FrequentFixedSOA	1766	n/a	n/a	1
134.3230000000	n/a	134323	NovelVariableSOA	1650	n/a	n/a	1
135.9730000000	n/a	135973	FrequentFixedSOA	1600	n/a	n/a	1
137.5730000000	n/a	137573	GoVariableSOA	599	n/a	n/a	1
139.1070000000	n/a	139107	FrequentFixedSOA	1616	n/a	n/a	1
140.7230000000	n/a	140723	FrequentFixedSOA	1533	n/a	n/a	1
142.2570000000	n/a	142257	FrequentFixedSOA	1683	n/a	n/a	1
143.9400000000	n/a	143940	GoVariableSOA	651	n/a	n/a	1
145.5730000000	n/a	145573	FrequentFixedSOA	1633	n/a	n/a	1
147.2070000000	n/a	147207	FrequentFixedSOA	1616	n/a	n/a	1
148.8230000000	n/a	148823	FrequentFixedSOA	1666	n/a	n/a	1
150.4900000000	n/a	150490	NovelVariableSOA	1783	n/a	n/a	1
152.2730000000	n/a	152273	FrequentFixedSOA	1550	n/a	n/a	1
153.8230000000	n/a	153823	FrequentFixedSOA	1616	n/a	n/a	1
155.4400000000	n/a	155440	FrequentFixedSOA	1766	n/a	n/a	1
157.2070000000	n/a	157207	GoVariableSOA	1733	n/a	n/a	0
158.9400000000	n/a	158940	FrequentFixedSOA	1783	n/a	n/a	1
160.7230000000	n/a	160723	NovelVariableSOA	1766	n/a	n/a	1
162.4900000000	n/a	162490	FrequentFixedSOA	1566	n/a	n/a	1
164.0570000000	n/a	164057	FrequentFixedSOA	1516	n/a	n/a	1
165.5730000000	n/a	165573	FrequentFixedSOA	1700	n/a	n/a	1
167.2730000000	n/a	167273	GoVariableSOA	1716	n/a	n/a	0
168.9900000000	n/a	168990	FrequentFixedSOA	1683	n/a	n/a	1
170.6730000000	n/a	170673	GoVariableSOA	615	n/a	n/a	1
172.4730000000	n/a	172473	FrequentFixedSOA	1516	n/a	n/a	1
173.9900000000	n/a	173990	FrequentFixedSOA	1583	n/a	n/a	1
175.5730000000	n/a	175573	GoVariableSOA	1766	n/a	n/a	0
177.3400000000	n/a	177340	FrequentFixedSOA	1516	n/a	n/a	1
178.8570000000	n/a	178857	FrequentFixedSOA	1783	n/a	n/a	1
180.6400000000	n/a	180640	FrequentFixedSOA	1583	n/a	n/a	1
182.2230000000	n/a	182223	FrequentFixedSOA	1633	n/a	n/a	1
183.8570000000	n/a	183857	NovelVariableSOA	1783	n/a	n/a	1
185.6400000000	n/a	185640	FrequentFixedSOA	1533	n/a	n/a	1
187.1730000000	n/a	187173	NovelVariableSOA	1800	n/a	n/a	1
188.9730000000	n/a	188973	FrequentFixedSOA	1566	n/a	n/a	1
190.5400000000	n/a	190540	FrequentFixedSOA	1700	n/a	n/a	1
192.2400000000	n/a	192240	GoVariableSOA	1500	n/a	n/a	0
193.7400000000	n/a	193740	FrequentFixedSOA	1500	n/a	n/a	1
195.2400000000	n/a	195240	FrequentFixedSOA	1683	n/a	n/a	1
196.9230000000	n/a	196923	FrequentFixedSOA	1683	n/a	n/a	1
198.6070000000	n/a	198607	FrequentFixedSOA	1666	n/a	n/a	1
200.2730000000	n/a	200273	NovelVariableSOA	1633	n/a	n/a	1
201.9070000000	n/a	201907	FrequentFixedSOA	1683	n/a	n/a	1
203.5900000000	n/a	203590	FrequentFixedSOA	1783	n/a	n/a	1
205.3730000000	n/a	205373	FrequentFixedSOA	1733	n/a	n/a	1
207.1070000000	n/a	207107	FrequentFixedSOA	1783	n/a	n/a	1
208.8900000000	n/a	208890	GoVariableSOA	524	n/a	n/a	1
210.6730000000	n/a	210673	FrequentFixedSOA	1750	n/a	n/a	1
212.4230000000	n/a	212423	FrequentFixedSOA	1516	n/a	n/a	1
213.9400000000	n/a	213940	NovelVariableSOA	1616	n/a	n/a	1
215.5570000000	n/a	215557	FrequentFixedSOA	1766	n/a	n/a	1
217.3230000000	n/a	217323	FrequentFixedSOA	1733	n/a	n/a	1
219.0570000000	n/a	219057	GoVariableSOA	524	n/a	n/a	1
220.6570000000	n/a	220657	FrequentFixedSOA	1516	n/a	n/a	1
222.1730000000	n/a	222173	FrequentFixedSOA	1616	n/a	n/a	1
223.7900000000	n/a	223790	FrequentFixedSOA	1600	n/a	n/a	1
225.3900000000	n/a	225390	FrequentFixedSOA	1533	n/a	n/a	1
226.9230000000	n/a	226923	NovelVariableSOA	1583	n/a	n/a	1
228.5070000000	n/a	228507	FrequentFixedSOA	1766	n/a	n/a	1
230.2730000000	n/a	230273	FrequentFixedSOA	1533	n/a	n/a	1
231.8070000000	n/a	231807	GoVariableSOA	1533	n/a	n/a	0
233.3400000000	n/a	233340	FrequentFixedSOA	1633	n/a	n/a	1
234.9730000000	n/a	234973	FrequentFixedSOA	1633	n/a	n/a	1
236.6070000000	n/a	236607	FrequentFixedSOA	1633	n/a	n/a	1
238.2400000000	n/a	238240	GoFixedSOA	1633	n/a	n/a	0
239.8730000000	n/a	239873	FrequentFixedSOA	1633	n/a	n/a	1
241.5070000000	n/a	241507	FrequentFixedSOA	1633	n/a	n/a	1
243.1400000000	n/a	243140	FrequentFixedSOA	1633	n/a	n/a	1
244.7730000000	n/a	244773	GoFixedSOA	1633	n/a	n/a	0
246.4070000000	n/a	246407	FrequentFixedSOA	1633	n/a	n/a	1
248.0400000000	n/a	248040	FrequentFixedSOA	1633	n/a	n/a	1
249.6730000000	n/a	249673	FrequentFixedSOA	1633	n/a	n/a	1
251.3070000000	n/a	251307	NovelFixedSOA	1633	n/a	n/a	1
252.9400000000	n/a	252940	FrequentFixedSOA	1633	n/a	n/a	1
254.5730000000	n/a	254573	NovelFixedSOA	1633	n/a	n/a	1
256.2070000000	n/a	256207	FrequentFixedSOA	1633	n/a	n/a	1
257.8400000000	n/a	257840	FrequentFixedSOA	1633	n/a	n/a	1
259.4730000000	n/a	259473	NovelFixedSOA	1633	n/a	n/a	1
261.1070000000	n/a	261107	FrequentFixedSOA	1633	n/a	n/a	1
262.7400000000	n/a	262740	FrequentFixedSOA	1633	n/a	n/a	1
264.3730000000	n/a	264373	FrequentFixedSOA	1633	n/a	n/a	1
266.0070000000	n/a	266007	FrequentFixedSOA	1633	n/a	n/a	1
267.6400000000	n/a	267640	FrequentFixedSOA	1633	n/a	n/a	1
269.2730000000	n/a	269273	NovelFixedSOA	1633	n/a	n/a	1
270.9070000000	n/a	270907	FrequentFixedSOA	1633	n/a	n/a	1
272.5400000000	n/a	272540	FrequentFixedSOA	1633	n/a	n/a	1
274.1730000000	n/a	274173	FrequentFixedSOA	1633	n/a	n/a	1
275.8070000000	n/a	275807	FrequentFixedSOA	1633	n/a	n/a	1
277.4400000000	n/a	277440	FrequentFixedSOA	1633	n/a	n/a	1
279.0730000000	n/a	279073	GoFixedSOA	1633	n/a	n/a	0
280.7070000000	n/a	280707	FrequentFixedSOA	1633	n/a	n/a	1
282.3400000000	n/a	282340	FrequentFixedSOA	1633	n/a	n/a	1
283.9730000000	n/a	283973	GoFixedSOA	1633	n/a	n/a	0
285.6070000000	n/a	285607	FrequentFixedSOA	1633	n/a	n/a	1
287.2400000000	n/a	287240	NovelFixedSOA	1633	n/a	n/a	1
288.8730000000	n/a	288873	FrequentFixedSOA	1633	n/a	n/a	1
290.5070000000	n/a	290507	GoFixedSOA	1633	n/a	n/a	0
292.1400000000	n/a	292140	FrequentFixedSOA	1633	n/a	n/a	1
293.7730000000	n/a	293773	GoFixedSOA	594	n/a	n/a	1
295.4070000000	n/a	295407	FrequentFixedSOA	1633	n/a	n/a	1
297.0400000000	n/a	297040	FrequentFixedSOA	1633	n/a	n/a	1
298.6730000000	n/a	298673	FrequentFixedSOA	1633	n/a	n/a	1
300.3070000000	n/a	300307	FrequentFixedSOA	1633	n/a	n/a	1
301.9400000000	n/a	301940	GoFixedSOA	1633	n/a	n/a	0
303.5730000000	n/a	303573	FrequentFixedSOA	1633	n/a	n/a	1
305.2070000000	n/a	305207	FrequentFixedSOA	1633	n/a	n/a	1
306.8400000000	n/a	306840	FrequentFixedSOA	1633	n/a	n/a	1
308.4730000000	n/a	308473	NovelFixedSOA	1633	n/a	n/a	1
310.1070000000	n/a	310107	FrequentFixedSOA	1633	n/a	n/a	1
311.7400000000	n/a	311740	FrequentFixedSOA	1633	n/a	n/a	1
313.3730000000	n/a	313373	FrequentFixedSOA	1633	n/a	n/a	1
315.0070000000	n/a	315007	FrequentFixedSOA	1633	n/a	n/a	1
316.6400000000	n/a	316640	NovelFixedSOA	1633	n/a	n/a	1
318.2730000000	n/a	318273	FrequentFixedSOA	1633	n/a	n/a	1
319.9070000000	n/a	319907	FrequentFixedSOA	1633	n/a	n/a	1
321.5400000000	n/a	321540	FrequentFixedSOA	1633	n/a	n/a	1
323.1730000000	n/a	323173	FrequentFixedSOA	1633	n/a	n/a	1
324.8070000000	n/a	324807	NovelFixedSOA	1633	n/a	n/a	1
326.4400000000	n/a	326440	FrequentFixedSOA	1633	n/a	n/a	1
328.0730000000	n/a	328073	FrequentFixedSOA	1633	n/a	n/a	1
329.7070000000	n/a	329707	GoFixedSOA	528	n/a	n/a	1
331.3400000000	n/a	331340	FrequentFixedSOA	1633	n/a	n/a	1
332.9730000000	n/a	332973	FrequentFixedSOA	1633	n/a	n/a	1
334.6060000000	n/a	334606	FrequentFixedSOA	1633	n/a	n/a	1
336.2400000000	n/a	336240	FrequentFixedSOA	1633	n/a	n/a	1
337.8730000000	n/a	337873	NovelFixedSOA	1633	n/a	n/a	1
339.5060000000	n/a	339506	FrequentFixedSOA	1633	n/a	n/a	1
341.1400000000	n/a	341140	FrequentFixedSOA	1633	n/a	n/a	1
342.7730000000	n/a	342773	FrequentFixedSOA	1633	n/a	n/a	1
344.4060000000	n/a	344406	FrequentFixedSOA	1633	n/a	n/a	1
346.0400000000	n/a	346040	FrequentFixedSOA	1633	n/a	n/a	1
347.6730000000	n/a	347673	FrequentFixedSOA	1583	n/a	n/a	1
349.2560000000	n/a	349256	FrequentFixedSOA	1716	n/a	n/a	1
350.9730000000	n/a	350973	FrequentFixedSOA	1683	n/a	n/a	1
352.6560000000	n/a	352656	GoVariableSOA	1650	n/a	n/a	0
354.3060000000	n/a	354306	FrequentFixedSOA	1666	n/a	n/a	1
355.9730000000	n/a	355973	FrequentFixedSOA	1633	n/a	n/a	1
357.6060000000	n/a	357606	FrequentFixedSOA	1733	n/a	n/a	1
359.3400000000	n/a	359340	GoVariableSOA	1600	n/a	n/a	0
360.9400000000	n/a	360940	FrequentFixedSOA	1550	n/a	n/a	1
362.4900000000	n/a	362490	FrequentFixedSOA	1500	n/a	n/a	1
363.9900000000	n/a	363990	FrequentFixedSOA	1583	n/a	n/a	1
365.5730000000	n/a	365573	NovelVariableSOA	1583	n/a	n/a	1
367.1560000000	n/a	367156	FrequentFixedSOA	1600	n/a	n/a	1
368.7560000000	n/a	368756	NovelVariableSOA	1616	n/a	n/a	1
370.3730000000	n/a	370373	FrequentFixedSOA	1550	n/a	n/a	1
371.9230000000	n/a	371923	FrequentFixedSOA	1633	n/a	n/a	1
373.5560000000	n/a	373556	NovelVariableSOA	1683	n/a	n/a	1
375.2400000000	n/a	375240	FrequentFixedSOA	1666	n/a	n/a	1
376.9060000000	n/a	376906	FrequentFixedSOA	1600	n/a	n/a	1
378.5060000000	n/a	378506	FrequentFixedSOA	1583	n/a	n/a	1
380.0900000000	n/a	380090	FrequentFixedSOA	1583	n/a	n/a	1
381.6730000000	n/a	381673	FrequentFixedSOA	1683	n/a	n/a	1
383.3560000000	n/a	383356	NovelVariableSOA	1533	n/a	n/a	1
384.8900000000	n/a	384890	FrequentFixedSOA	1550	n/a	n/a	1
386.4400000000	n/a	386440	FrequentFixedSOA	1650	n/a	n/a	1
388.0900000000	n/a	388090	FrequentFixedSOA	1766	n/a	n/a	1
389.8560000000	n/a	389856	FrequentFixedSOA	1633	n/a	n/a	1
391.4900000000	n/a	391490	FrequentFixedSOA	1633	n/a	n/a	1
393.1230000000	n/a	393123	GoVariableSOA	1500	n/a	n/a	0
394.6230000000	n/a	394623	FrequentFixedSOA	1633	n/a	n/a	1
396.2560000000	n/a	396256	FrequentFixedSOA	1716	n/a	n/a	1
397.9730000000	n/a	397973	GoVariableSOA	1700	n/a	n/a	0
399.6730000000	n/a	399673	FrequentFixedSOA	1666	n/a	n/a	1
401.3400000000	n/a	401340	NovelVariableSOA	1683	n/a	n/a	1
403.0230000000	n/a	403023	FrequentFixedSOA	1716	n/a	n/a	1
404.7400000000	n/a	404740	GoVariableSOA	1700	n/a	n/a	0
406.4400000000	n/a	406440	FrequentFixedSOA	1666	n/a	n/a	1
408.1060000000	n/a	408106	GoVariableSOA	1783	n/a	n/a	0
409.8900000000	n/a	409890	FrequentFixedSOA	1783	n/a	n/a	1
411.6730000000	n/a	411673	FrequentFixedSOA	1516	n/a	n/a	1
413.1900000000	n/a	413190	FrequentFixedSOA	1683	n/a	n/a	1
414.8730000000	n/a	414873	FrequentFixedSOA	1800	n/a	n/a	1
416.6730000000	n/a	416673	GoVariableSOA	1533	n/a	n/a	0
418.2060000000	n/a	418206	FrequentFixedSOA	1783	n/a	n/a	1
419.9900000000	n/a	419990	FrequentFixedSOA	1500	n/a	n/a	1
421.4900000000	n/a	421490	FrequentFixedSOA	1600	n/a	n/a	1
423.0900000000	n/a	423090	NovelVariableSOA	1500	n/a	n/a	1
424.5900000000	n/a	424590	FrequentFixedSOA	1783	n/a	n/a	1
426.3730000000	n/a	426373	FrequentFixedSOA	1633	n/a	n/a	1
428.0060000000	n/a	428006	FrequentFixedSOA	1716	n/a	n/a	1
429.7230000000	n/a	429723	FrequentFixedSOA	1650	n/a	n/a	1
431.3730000000	n/a	431373	NovelVariableSOA	1550	n/a	n/a	1
432.9230000000	n/a	432923	FrequentFixedSOA	1516	n/a	n/a	1
434.4400000000	n/a	434440	FrequentFixedSOA	1750	n/a	n/a	1
436.1900000000	n/a	436190	FrequentFixedSOA	1733	n/a	n/a	1
437.9230000000	n/a	437923	FrequentFixedSOA	1516	n/a	n/a	1
439.4400000000	n/a	439440	NovelVariableSOA	1600	n/a	n/a	1
441.0400000000	n/a	441040	FrequentFixedSOA	1500	n/a	n/a	1
442.5400000000	n/a	442540	FrequentFixedSOA	1666	n/a	n/a	1
444.2060000000	n/a	444206	GoVariableSOA	635	n/a	n/a	1
445.7230000000	n/a	445723	FrequentFixedSOA	1533	n/a	n/a	1
447.2560000000	n/a	447256	FrequentFixedSOA	1566	n/a	n/a	1
448.8230000000	n/a	448823	FrequentFixedSOA	1583	n/a	n/a	1
450.4060000000	n/a	450406	FrequentFixedSOA	1516	n/a	n/a	1
451.9230000000	n/a	451923	NovelVariableSOA	1533	n/a	n/a	1
453.4560000000	n/a	453456	FrequentFixedSOA	1633	n/a	n/a	1
455.0900000000	n/a	455090	FrequentFixedSOA	1650	n/a	n/a	1
456.7400000000	n/a	456740	FrequentFixedSOA	1516	n/a	n/a	1
458.2560000000	n/a	458256	FrequentFixedSOA	1733	n/a	n/a	1
459.9900000000	n/a	459990	FrequentFixedSOA	1733	n/a	n/a	1
461.7230000000	n/a	461723	GoFixedSOA	606	n/a	n/a	1
463.3560000000	n/a	463356	FrequentFixedSOA	1633	n/a	n/a	1
464.9900000000	n/a	464990	FrequentFixedSOA	1633	n/a	n/a	1
466.6230000000	n/a	466623	FrequentFixedSOA	1633	n/a	n/a	1
468.2560000000	n/a	468256	FrequentFixedSOA	1633	n/a	n/a	1
469.8900000000	n/a	469890	FrequentFixedSOA	1633	n/a	n/a	1
471.5230000000	n/a	471523	FrequentFixedSOA	1633	n/a	n/a	1
473.1560000000	n/a	473156	NovelFixedSOA	1633	n/a	n/a	1
474.7900000000	n/a	474790	FrequentFixedSOA	1633	n/a	n/a	1
476.4230000000	n/a	476423	FrequentFixedSOA	1633	n/a	n/a	1
478.0560000000	n/a	478056	FrequentFixedSOA	1633	n/a	n/a	1
479.6900000000	n/a	479690	NovelFixedSOA	1633	n/a	n/a	1
481.3230000000	n/a	481323	FrequentFixedSOA	1633	n/a	n/a	1
482.9560000000	n/a	482956	GoFixedSOA	609	n/a	n/a	1
484.5900000000	n/a	484590	FrequentFixedSOA	1633	n/a	n/a	1
486.2230000000	n/a	486223	FrequentFixedSOA	1633	n/a	n/a	1
487.8560000000	n/a	487856	GoFixedSOA	587	n/a	n/a	1
489.4900000000	n/a	489490	FrequentFixedSOA	1633	n/a	n/a	1
491.1230000000	n/a	491123	NovelFixedSOA	1633	n/a	n/a	1
492.7560000000	n/a	492756	FrequentFixedSOA	1633	n/a	n/a	1
494.3900000000	n/a	494390	FrequentFixedSOA	1633	n/a	n/a	1
496.0230000000	n/a	496023	FrequentFixedSOA	1633	n/a	n/a	1
497.6560000000	n/a	497656	FrequentFixedSOA	1633	n/a	n/a	1
499.2900000000	n/a	499290	FrequentFixedSOA	1633	n/a	n/a	1
500.9230000000	n/a	500923	GoFixedSOA	524	n/a	n/a	1
502.5560000000	n/a	502556	FrequentFixedSOA	1633	n/a	n/a	1
504.1900000000	n/a	504190	FrequentFixedSOA	1633	n/a	n/a	1
505.8230000000	n/a	505823	NovelFixedSOA	1633	n/a	n/a	1
507.4560000000	n/a	507456	FrequentFixedSOA	1633	n/a	n/a	1
509.0900000000	n/a	509090	FrequentFixedSOA	1633	n/a	n/a	1
510.7230000000	n/a	510723	FrequentFixedSOA	1633	n/a	n/a	1
512.3560000000	n/a	512356	FrequentFixedSOA	1633	n/a	n/a	1
513.9900000000	n/a	513990	FrequentFixedSOA	1633	n/a	n/a	1
515.6230000000	n/a	515623	NovelFixedSOA	1633	n/a	n/a	1
517.2560000000	n/a	517256	FrequentFixedSOA	1633	n/a	n/a	1
518.8900000000	n/a	518890	FrequentFixedSOA	1633	n/a	n/a	1
520.5230000000	n/a	520523	FrequentFixedSOA	1633	n/a	n/a	1
522.1560000000	n/a	522156	FrequentFixedSOA	1633	n/a	n/a	1
523.7900000000	n/a	523790	GoFixedSOA	566	n/a	n/a	1
525.4230000000	n/a	525423	FrequentFixedSOA	1633	n/a	n/a	1
527.0560000000	n/a	527056	FrequentFixedSOA	1633	n/a	n/a	1
528.6900000000	n/a	528690	NovelFixedSOA	1633	n/a	n/a	1
530.3230000000	n/a	530323	FrequentFixedSOA	1633	n/a	n/a	1
531.9560000000	n/a	531956	FrequentFixedSOA	1633	n/a	n/a	1
533.5900000000	n/a	533590	NovelFixedSOA	1633	n/a	n/a	1
535.2230000000	n/a	535223	FrequentFixedSOA	1633	n/a	n/a	1
536.8560000000	n/a	536856	FrequentFixedSOA	1633	n/a	n/a	1
538.4900000000	n/a	538490	FrequentFixedSOA	1633	n/a	n/a	1
540.1230000000	n/a	540123	FrequentFixedSOA	1633	n/a	n/a	1
541.7560000000	n/a	541756	FrequentFixedSOA	1633	n/a	n/a	1
543.3900000000	n/a	543390	GoFixedSOA	569	n/a	n/a	1
545.0230000000	n/a	545023	FrequentFixedSOA	1633	n/a	n/a	1
546.6560000000	n/a	546656	FrequentFixedSOA	1633	n/a	n/a	1
548.2900000000	n/a	548290	FrequentFixedSOA	1633	n/a	n/a	1
549.9230000000	n/a	549923	FrequentFixedSOA	1633	n/a	n/a	1
551.5560000000	n/a	551556	FrequentFixedSOA	1633	n/a	n/a	1
553.1900000000	n/a	553190	NovelFixedSOA	1633	n/a	n/a	1
554.8230000000	n/a	554823	FrequentFixedSOA	1633	n/a	n/a	1
556.4560000000	n/a	556456	GoFixedSOA	450	n/a	n/a	1
558.0900000000	n/a	558090	FrequentFixedSOA	1633	n/a	n/a	1
559.7230000000	n/a	559723	FrequentFixedSOA	1633	n/a	n/a	1
561.3560000000	n/a	561356	FrequentFixedSOA	1633	n/a	n/a	1
562.9900000000	n/a	562990	FrequentFixedSOA	1633	n/a	n/a	1
564.6230000000	n/a	564623	FrequentFixedSOA	1633	n/a	n/a	1
566.2560000000	n/a	566256	FrequentFixedSOA	1633	n/a	n/a	1
567.8900000000	n/a	567890	FrequentFixedSOA	1633	n/a	n/a	1
569.5230000000	n/a	569523	FrequentFixedSOA	1633	n/a	n/a	1
571.1560000000	n/a	571156	NovelFixedSOA	1633	n/a	n/a	1
572.7900000000	n/a	572790	FrequentFixedSOA	1633	n/a	n/a	1
574.4230000000	n/a	574423	FrequentFixedSOA	1633	n/a	n/a	1
576.0560000000	n/a	576056	GoVariableSOA	663	n/a	n/a	1
577.5900000000	n/a	577590	FrequentFixedSOA	1600	n/a	n/a	1
579.1900000000	n/a	579190	FrequentFixedSOA	1533	n/a	n/a	1
580.7230000000	n/a	580723	FrequentFixedSOA	1616	n/a	n/a	1
582.3400000000	n/a	582340	FrequentFixedSOA	1700	n/a	n/a	1
584.0400000000	n/a	584040	FrequentFixedSOA	1516	n/a	n/a	1
585.5560000000	n/a	585556	FrequentFixedSOA	1683	n/a	n/a	1
587.2400000000	n/a	587240	NovelVariableSOA	1600	n/a	n/a	1
588.8400000000	n/a	588840	FrequentFixedSOA	1666	n/a	n/a	1
590.5060000000	n/a	590506	FrequentFixedSOA	1600	n/a	n/a	1
592.1060000000	n/a	592106	FrequentFixedSOA	1616	n/a	n/a	1
593.7230000000	n/a	593723	NovelVariableSOA	1550	n/a	n/a	1
595.2730000000	n/a	595273	FrequentFixedSOA	1700	n/a	n/a	1
596.9730000000	n/a	596973	GoVariableSOA	555	n/a	n/a	1
598.5230000000	n/a	598523	FrequentFixedSOA	1700	n/a	n/a	1
600.2230000000	n/a	600223	FrequentFixedSOA	1583	n/a	n/a	1
601.8060000000	n/a	601806	GoVariableSOA	472	n/a	n/a	1
603.3230000000	n/a	603323	FrequentFixedSOA	1600	n/a	n/a	1
604.9230000000	n/a	604923	NovelVariableSOA	1750	n/a	n/a	1
606.6730000000	n/a	606673	FrequentFixedSOA	1666	n/a	n/a	1
608.3390000000	n/a	608339	FrequentFixedSOA	1700	n/a	n/a	1
610.0390000000	n/a	610039	FrequentFixedSOA	1683	n/a	n/a	1
611.7230000000	n/a	611723	FrequentFixedSOA	1583	n/a	n/a	1
613.3060000000	n/a	613306	FrequentFixedSOA	1516	n/a	n/a	1
614.8230000000	n/a	614823	GoVariableSOA	482	n/a	n/a	1
616.4560000000	n/a	616456	FrequentFixedSOA	1516	n/a	n/a	1
617.9730000000	n/a	617973	FrequentFixedSOA	1716	n/a	n/a	1
619.6890000000	n/a	619689	NovelVariableSOA	1583	n/a	n/a	1
621.2730000000	n/a	621273	FrequentFixedSOA	1566	n/a	n/a	1
622.8390000000	n/a	622839	FrequentFixedSOA	1550	n/a	n/a	1
624.3890000000	n/a	624389	FrequentFixedSOA	1566	n/a	n/a	1
625.9560000000	n/a	625956	FrequentFixedSOA	1566	n/a	n/a	1
627.5230000000	n/a	627523	FrequentFixedSOA	1766	n/a	n/a	1
629.2890000000	n/a	629289	NovelVariableSOA	1733	n/a	n/a	1
631.0230000000	n/a	631023	FrequentFixedSOA	1583	n/a	n/a	1
632.6060000000	n/a	632606	FrequentFixedSOA	1733	n/a	n/a	1
634.3390000000	n/a	634339	FrequentFixedSOA	1700	n/a	n/a	1
636.0390000000	n/a	636039	FrequentFixedSOA	1733	n/a	n/a	1
637.7730000000	n/a	637773	GoVariableSOA	430	n/a	n/a	1
639.4560000000	n/a	639456	FrequentFixedSOA	1550	n/a	n/a	1
641.0060000000	n/a	641006	FrequentFixedSOA	1616	n/a	n/a	1
642.6230000000	n/a	642623	NovelVariableSOA	1566	n/a	n/a	1
644.1890000000	n/a	644189	FrequentFixedSOA	1500	n/a	n/a	1
645.6890000000	n/a	645689	FrequentFixedSOA	1550	n/a	n/a	1
647.2390000000	n/a	647239	NovelVariableSOA	1516	n/a	n/a	1
648.7560000000	n/a	648756	FrequentFixedSOA	1683	n/a	n/a	1
650.4390000000	n/a	650439	FrequentFixedSOA	1566	n/a	n/a	1
652.0060000000	n/a	652006	FrequentFixedSOA	1716	n/a	n/a	1
653.7230000000	n/a	653723	FrequentFixedSOA	1750	n/a	n/a	1
655.4730000000	n/a	655473	FrequentFixedSOA	1750	n/a	n/a	1
657.2230000000	n/a	657223	GoVariableSOA	434	n/a	n/a	1
658.9890000000	n/a	658989	FrequentFixedSOA	1733	n/a	n/a	1
660.7230000000	n/a	660723	FrequentFixedSOA	1533	n/a	n/a	1
662.2560000000	n/a	662256	FrequentFixedSOA	1800	n/a	n/a	1
664.0560000000	n/a	664056	FrequentFixedSOA	1716	n/a	n/a	1
665.7730000000	n/a	665773	FrequentFixedSOA	1766	n/a	n/a	1
667.5390000000	n/a	667539	NovelVariableSOA	1700	n/a	n/a	1
669.2390000000	n/a	669239	FrequentFixedSOA	1783	n/a	n/a	1
671.0230000000	n/a	671023	GoVariableSOA	619	n/a	n/a	1
672.8060000000	n/a	672806	FrequentFixedSOA	1700	n/a	n/a	1
674.5060000000	n/a	674506	FrequentFixedSOA	1566	n/a	n/a	1
676.0730000000	n/a	676073	FrequentFixedSOA	1566	n/a	n/a	1
677.6390000000	n/a	677639	FrequentFixedSOA	1550	n/a	n/a	1
679.1890000000	n/a	679189	FrequentFixedSOA	1666	n/a	n/a	1
680.8560000000	n/a	680856	FrequentFixedSOA	1616	n/a	n/a	1
682.4730000000	n/a	682473	FrequentFixedSOA	1600	n/a	n/a	1
684.0730000000	n/a	684073	FrequentFixedSOA	1616	n/a	n/a	1
685.6890000000	n/a	685689	NovelVariableSOA	1616	n/a	n/a	1
687.3060000000	n/a	687306	FrequentFixedSOA	1716	n/a	n/a	1
689.0230000000	n/a	689023	FrequentFixedSOA	1600	n/a	n/a	1
690.6230000000	n/a	690623	GoFixedSOA	584	n/a	n/a	1
692.2560000000	n/a	692256	FrequentFixedSOA	1633	n/a	n/a	1
693.8890000000	n/a	693889	FrequentFixedSOA	1633	n/a	n/a	1
695.5230000000	n/a	695523	FrequentFixedSOA	1633	n/a	n/a	1
697.1560000000	n/a	697156	GoFixedSOA	448	n/a	n/a	1
698.7890000000	n/a	698789	FrequentFixedSOA	1633	n/a	n/a	1
700.4230000000	n/a	700423	FrequentFixedSOA	1633	n/a	n/a	1
702.0560000000	n/a	702056	FrequentFixedSOA	1633	n/a	n/a	1
703.6890000000	n/a	703689	FrequentFixedSOA	1633	n/a	n/a	1
705.3230000000	n/a	705323	GoFixedSOA	525	n/a	n/a	1
706.9560000000	n/a	706956	FrequentFixedSOA	1633	n/a	n/a	1
708.5890000000	n/a	708589	FrequentFixedSOA	1633	n/a	n/a	1
710.2230000000	n/a	710223	NovelFixedSOA	1633	n/a	n/a	1
711.8560000000	n/a	711856	FrequentFixedSOA	1633	n/a	n/a	1
713.4890000000	n/a	713489	FrequentFixedSOA	1633	n/a	n/a	1
715.1230000000	n/a	715123	GoFixedSOA	535	n/a	n/a	1
716.7560000000	n/a	716756	FrequentFixedSOA	1633	n/a	n/a	1
718.3890000000	n/a	718389	FrequentFixedSOA	1633	n/a	n/a	1
720.0230000000	n/a	720023	FrequentFixedSOA	1633	n/a	n/a	1
721.6560000000	n/a	721656	NovelFixedSOA	1633	n/a	n/a	1
723.2890000000	n/a	723289	FrequentFixedSOA	1633	n/a	n/a	1
724.9230000000	n/a	724923	NovelFixedSOA	1633	n/a	n/a	1
726.5560000000	n/a	726556	FrequentFixedSOA	1633	n/a	n/a	1
728.1890000000	n/a	728189	FrequentFixedSOA	1633	n/a	n/a	1
729.8230000000	n/a	729823	FrequentFixedSOA	1633	n/a	n/a	1
731.4560000000	n/a	731456	GoFixedSOA	539	n/a	n/a	1
733.0890000000	n/a	733089	FrequentFixedSOA	1633	n/a	n/a	1
734.7230000000	n/a	734723	FrequentFixedSOA	1633	n/a	n/a	1
736.3560000000	n/a	736356	FrequentFixedSOA	1633	n/a	n/a	1
737.9890000000	n/a	737989	GoFixedSOA	483	n/a	n/a	1
739.6230000000	n/a	739623	FrequentFixedSOA	1633	n/a	n/a	1
741.2560000000	n/a	741256	FrequentFixedSOA	1633	n/a	n/a	1
742.8890000000	n/a	742889	NovelFixedSOA	1633	n/a	n/a	1
744.5230000000	n/a	744523	FrequentFixedSOA	1633	n/a	n/a	1
746.1560000000	n/a	746156	GoFixedSOA	507	n/a	n/a	1
747.7890000000	n/a	747789	FrequentFixedSOA	1633	n/a	n/a	1
749.4230000000	n/a	749423	FrequentFixedSOA	1633	n/a	n/a	1
751.0560000000	n/a	751056	FrequentFixedSOA	1633	n/a	n/a	1
752.6890000000	n/a	752689	FrequentFixedSOA	1633	n/a	n/a	1
754.3230000000	n/a	754323	FrequentFixedSOA	1633	n/a	n/a	1
755.9560000000	n/a	755956	FrequentFixedSOA	1633	n/a	n/a	1
757.5890000000	n/a	757589	NovelFixedSOA	1633	n/a	n/a	1
759.2230000000	n/a	759223	FrequentFixedSOA	1633	n/a	n/a	1
760.8560000000	n/a	760856	FrequentFixedSOA	1633	n/a	n/a	1
762.4890000000	n/a	762489	FrequentFixedSOA	1633	n/a	n/a	1
764.1230000000	n/a	764123	GoFixedSOA	552	n/a	n/a	1
765.7560000000	n/a	765756	FrequentFixedSOA	1633	n/a	n/a	1
767.3890000000	n/a	767389	FrequentFixedSOA	1633	n/a	n/a	1
769.0230000000	n/a	769023	FrequentFixedSOA	1633	n/a	n/a	1
770.6560000000	n/a	770656	FrequentFixedSOA	1633	n/a	n/a	1
772.2890000000	n/a	772289	NovelFixedSOA	1633	n/a	n/a	1
773.9230000000	n/a	773923	FrequentFixedSOA	1633	n/a	n/a	1
775.5560000000	n/a	775556	FrequentFixedSOA	1633	n/a	n/a	1
777.1890000000	n/a	777189	NovelFixedSOA	1633	n/a	n/a	1
778.8230000000	n/a	778823	FrequentFixedSOA	1633	n/a	n/a	1
780.4560000000	n/a	780456	NovelFixedSOA	1633	n/a	n/a	1
782.0890000000	n/a	782089	FrequentFixedSOA	1633	n/a	n/a	1
783.7230000000	n/a	783723	FrequentFixedSOA	1633	n/a	n/a	1
785.3560000000	n/a	785356	FrequentFixedSOA	1633	n/a	n/a	1
786.9890000000	n/a	786989	FrequentFixedSOA	1633	n/a	n/a	1
788.6230000000	n/a	788623	FrequentFixedSOA	1633	n/a	n/a	1
790.2560000000	n/a	790256	FrequentFixedSOA	1633	n/a	n/a	1
791.8890000000	n/a	791889	FrequentFixedSOA	1633	n/a	n/a	1
793.5230000000	n/a	793523	GoFixedSOA	593	n/a	n/a	1
795.1560000000	n/a	795156	FrequentFixedSOA	1633	n/a	n/a	1
796.7890000000	n/a	796789	GoFixedSOA	535	n/a	n/a	1
798.4230000000	n/a	798423	FrequentFixedSOA	1633	n/a	n/a	1
800.0560000000	n/a	800056	FrequentFixedSOA	1633	n/a	n/a	1
801.6890000000	n/a	801689	NovelFixedSOA	1633	n/a	n/a	1
803.3230000000	n/a	803323	FrequentFixedSOA	1633	n/a	n/a	1
804.9560000000	n/a	804956	GoVariableSOA	617	n/a	n/a	1
806.6730000000	n/a	806673	FrequentFixedSOA	1783	n/a	n/a	1
808.4560000000	n/a	808456	FrequentFixedSOA	1700	n/a	n/a	1
810.1560000000	n/a	810156	FrequentFixedSOA	1650	n/a	n/a	1
811.8060000000	n/a	811806	GoVariableSOA	453	n/a	n/a	1
813.5390000000	n/a	813539	FrequentFixedSOA	1716	n/a	n/a	1
815.2560000000	n/a	815256	FrequentFixedSOA	1800	n/a	n/a	1
817.0560000000	n/a	817056	FrequentFixedSOA	1750	n/a	n/a	1
818.8060000000	n/a	818806	FrequentFixedSOA	1550	n/a	n/a	1
820.3560000000	n/a	820356	GoVariableSOA	678	n/a	n/a	1
821.8890000000	n/a	821889	FrequentFixedSOA	1616	n/a	n/a	1
823.5060000000	n/a	823506	FrequentFixedSOA	1716	n/a	n/a	1
825.2230000000	n/a	825223	NovelVariableSOA	1583	n/a	n/a	1
826.8060000000	n/a	826806	FrequentFixedSOA	1750	n/a	n/a	1
828.5560000000	n/a	828556	FrequentFixedSOA	1800	n/a	n/a	1
830.3560000000	n/a	830356	GoVariableSOA	551	n/a	n/a	1
832.0560000000	n/a	832056	FrequentFixedSOA	1716	n/a	n/a	1
833.7730000000	n/a	833773	FrequentFixedSOA	1750	n/a	n/a	1
835.5230000000	n/a	835523	FrequentFixedSOA	1716	n/a	n/a	1
837.2390000000	n/a	837239	NovelVariableSOA	1616	n/a	n/a	1
838.8560000000	n/a	838856	FrequentFixedSOA	1500	n/a	n/a	1
840.3560000000	n/a	840356	NovelVariableSOA	1783	n/a	n/a	1
842.1390000000	n/a	842139	FrequentFixedSOA	1766	n/a	n/a	1
843.9060000000	n/a	843906	FrequentFixedSOA	1666	n/a	n/a	1
845.5730000000	n/a	845573	FrequentFixedSOA	1566	n/a	n/a	1
847.1390000000	n/a	847139	GoVariableSOA	541	n/a	n/a	1
848.7730000000	n/a	848773	FrequentFixedSOA	1583	n/a	n/a	1
850.3560000000	n/a	850356	FrequentFixedSOA	1600	n/a	n/a	1
851.9560000000	n/a	851956	FrequentFixedSOA	1683	n/a	n/a	1
853.6390000000	n/a	853639	GoVariableSOA	498	n/a	n/a	1
855.4230000000	n/a	855423	FrequentFixedSOA	1700	n/a	n/a	1
857.1230000000	n/a	857123	FrequentFixedSOA	1733	n/a	n/a	1
858.8560000000	n/a	858856	NovelVariableSOA	1800	n/a	n/a	1
860.6560000000	n/a	860656	FrequentFixedSOA	1750	n/a	n/a	1
862.4060000000	n/a	862406	GoVariableSOA	502	n/a	n/a	1
864.1720000000	n/a	864172	FrequentFixedSOA	1650	n/a	n/a	1
865.8220000000	n/a	865822	FrequentFixedSOA	1766	n/a	n/a	1
867.5890000000	n/a	867589	FrequentFixedSOA	1633	n/a	n/a	1
869.2220000000	n/a	869222	FrequentFixedSOA	1750	n/a	n/a	1
870.9720000000	n/a	870972	FrequentFixedSOA	1800	n/a	n/a	1
872.7720000000	n/a	872772	FrequentFixedSOA	1550	n/a	n/a	1
874.3220000000	n/a	874322	NovelVariableSOA	1683	n/a	n/a	1
876.0060000000	n/a	876006	FrequentFixedSOA	1716	n/a	n/a	1
877.7220000000	n/a	877722	FrequentFixedSOA	1650	n/a	n/a	1
879.3720000000	n/a	879372	FrequentFixedSOA	1650	n/a	n/a	1
881.0220000000	n/a	881022	GoVariableSOA	495	n/a	n/a	1
882.6060000000	n/a	882606	FrequentFixedSOA	1666	n/a	n/a	1
884.2720000000	n/a	884272	FrequentFixedSOA	1583	n/a	n/a	1
885.8560000000	n/a	885856	FrequentFixedSOA	1783	n/a	n/a	1
887.6390000000	n/a	887639	FrequentFixedSOA	1550	n/a	n/a	1
889.1890000000	n/a	889189	NovelVariableSOA	1533	n/a	n/a	1
890.7220000000	n/a	890722	FrequentFixedSOA	1616	n/a	n/a	1
892.3390000000	n/a	892339	FrequentFixedSOA	1516	n/a	n/a	1
893.8560000000	n/a	893856	NovelVariableSOA	1533	n/a	n/a	1
895.3890000000	n/a	895389	FrequentFixedSOA	1650	n/a	n/a	1
897.0390000000	n/a	897039	NovelVariableSOA	1566	n/a	n/a	1
898.6060000000	n/a	898606	FrequentFixedSOA	1550	n/a	n/a	1
900.1560000000	n/a	900156	FrequentFixedSOA	1666	n/a	n/a	1
901.8220000000	n/a	901822	FrequentFixedSOA	1683	n/a	n/a	1
903.5060000000	n/a	903506	FrequentFixedSOA	1683	n/a	n/a	1
905.1890000000	n/a	905189	FrequentFixedSOA	1766	n/a	n/a	1
906.9560000000	n/a	906956	FrequentFixedSOA	1516	n/a	n/a	1
908.4720000000	n/a	908472	FrequentFixedSOA	1550	n/a	n/a	1
910.0220000000	n/a	910022	GoVariableSOA	586	n/a	n/a	1
911.5560000000	n/a	911556	FrequentFixedSOA	1700	n/a	n/a	1
913.2560000000	n/a	913256	GoVariableSOA	691	n/a	n/a	1
914.8220000000	n/a	914822	FrequentFixedSOA	1583	n/a	n/a	1
916.4060000000	n/a	916406	FrequentFixedSOA	1516	n/a	n/a	1
917.9220000000	n/a	917922	NovelVariableSOA	1600	n/a	n/a	1
919.5220000000	n/a	919522	FrequentFixedSOA	1683	n/a	n/a	1
