onset	duration	sample	trial_type	response_time	stim_file	value	correct
15.8950000000	n/a	15895	ignore	6131	n/a	n/a	1
23.0950000000	n/a	23095	ignore	1000	n/a	n/a	1
25.0950000000	n/a	25095	ignore	1700	n/a	n/a	1
26.7950000000	n/a	26795	ignore	1921	n/a	n/a	0
29.7790000000	n/a	29779	ignore	1000	n/a	n/a	1
31.7790000000	n/a	31779	ignore	1700	n/a	n/a	1
33.4780000000	n/a	33478	ignore	1705	n/a	n/a	1
36.2620000000	n/a	36262	ignore	1000	n/a	n/a	1
38.2620000000	n/a	38262	ignore	1700	n/a	n/a	1
39.9620000000	n/a	39962	ignore	841	n/a	n/a	0
41.8780000000	n/a	41878	ignore	1000	n/a	n/a	1
43.8790000000	n/a	43879	ignore	1700	n/a	n/a	1
45.5780000000	n/a	45578	ignore	656	n/a	n/a	1
47.3120000000	n/a	47312	ignore	1000	n/a	n/a	1
49.3120000000	n/a	49312	ignore	1700	n/a	n/a	1
51.0120000000	n/a	51012	ignore	569	n/a	n/a	0
52.6450000000	n/a	52645	ignore	1000	n/a	n/a	1
54.6450000000	n/a	54645	ignore	1700	n/a	n/a	1
56.3450000000	n/a	56345	ignore	584	n/a	n/a	1
57.9950000000	n/a	57995	ignore	1000	n/a	n/a	1
59.9950000000	n/a	59995	ignore	1700	n/a	n/a	1
61.6950000000	n/a	61695	ignore	803	n/a	n/a	0
63.5620000000	n/a	63562	ignore	1000	n/a	n/a	1
65.5620000000	n/a	65562	ignore	1700	n/a	n/a	1
67.2620000000	n/a	67262	ignore	4890	n/a	n/a	1
72.2290000000	n/a	72229	ignore 	2000	n/a	n/a	1
80.1120000000	n/a	80112	ignore	1000	n/a	n/a	1
82.1120000000	n/a	82112	ignore	1700	n/a	n/a	1
83.8120000000	n/a	83812	ignore	3063	n/a	n/a	1
87.9450000000	n/a	87945	ignore	1000	n/a	n/a	1
89.9450000000	n/a	89945	ignore	1700	n/a	n/a	1
91.6450000000	n/a	91645	ignore	1160	n/a	n/a	0
93.8780000000	n/a	93878	ignore	1000	n/a	n/a	1
95.8780000000	n/a	95878	ignore	1700	n/a	n/a	1
97.5780000000	n/a	97578	ignore	1178	n/a	n/a	1
99.8280000000	n/a	99828	ignore	1000	n/a	n/a	1
101.8280000000	n/a	101828	ignore	1700	n/a	n/a	1
103.5280000000	n/a	103528	ignore	705	n/a	n/a	1
105.2950000000	n/a	105295	ignore	1000	n/a	n/a	1
107.2950000000	n/a	107295	ignore	1700	n/a	n/a	1
108.9950000000	n/a	108995	ignore	660	n/a	n/a	0
110.7280000000	n/a	110728	ignore	1000	n/a	n/a	1
112.7280000000	n/a	112728	ignore	1700	n/a	n/a	1
114.4280000000	n/a	114428	ignore	1360	n/a	n/a	0
116.8620000000	n/a	116862	ignore	1000	n/a	n/a	1
118.8620000000	n/a	118862	ignore	1700	n/a	n/a	1
120.5620000000	n/a	120562	ignore	1314	n/a	n/a	0
122.9450000000	n/a	122945	ignore	1000	n/a	n/a	1
124.9450000000	n/a	124945	ignore	1700	n/a	n/a	1
126.6450000000	n/a	126645	ignore	2218	n/a	n/a	1
128.9280000000	n/a	128928	ignore 	2000	n/a	n/a	1
138.0120000000	n/a	138012	PenaltyB1	3361	n/a	n/a	0
142.4450000000	n/a	142445	PunIncorrB1	1000	n/a	n/a	1
144.4450000000	n/a	144445	ignore	1700	n/a	n/a	1
146.1450000000	n/a	146145	PenaltyB1	3096	n/a	n/a	0
150.3120000000	n/a	150312	PunIncorrB1	1000	n/a	n/a	1
152.3120000000	n/a	152312	STATUS	1700	n/a	n/a	1
154.0120000000	n/a	154012	PenaltyB1	786	n/a	n/a	1
155.8620000000	n/a	155862	NeuCorrB1	1000	n/a	n/a	1
157.8620000000	n/a	157862	STATUS	1700	n/a	n/a	1
159.5620000000	n/a	159562	RewardB1	841	n/a	n/a	1
161.4780000000	n/a	161478	RewardCorrB1	1000	n/a	n/a	1
163.4780000000	n/a	163478	ignore	1700	n/a	n/a	1
165.1780000000	n/a	165178	RewardB1	933	n/a	n/a	1
167.1780000000	n/a	167178	RewardCorrB1	1000	n/a	n/a	1
169.1780000000	n/a	169178	ignore	1700	n/a	n/a	1
170.8780000000	n/a	170878	PenaltyB1	554	n/a	n/a	0
172.4950000000	n/a	172495	PunIncorrB1	1000	n/a	n/a	1
174.4950000000	n/a	174495	ignore	1700	n/a	n/a	1
176.1950000000	n/a	176195	PenaltyB1	829	n/a	n/a	0
178.0950000000	n/a	178095	PunIncorrB1	1000	n/a	n/a	1
180.0950000000	n/a	180095	STATUS	1700	n/a	n/a	1
181.7950000000	n/a	181795	PenaltyB1	730	n/a	n/a	1
183.5950000000	n/a	183595	NeuCorrB1	1000	n/a	n/a	1
185.5950000000	n/a	185595	STATUS	1700	n/a	n/a	1
187.2950000000	n/a	187295	PenaltyB1	1954	n/a	n/a	1
190.3120000000	n/a	190312	PunCorrB1	1000	n/a	n/a	1
192.3120000000	n/a	192312	STATUS	1700	n/a	n/a	1
194.0120000000	n/a	194012	RewardB1	927	n/a	n/a	0
196.0120000000	n/a	196012	NeuIncorrB1	1000	n/a	n/a	1
198.0120000000	n/a	198012	STATUS	1700	n/a	n/a	1
199.7120000000	n/a	199712	PenaltyB1	622	n/a	n/a	1
201.4120000000	n/a	201412	NeuCorrB1	1000	n/a	n/a	1
203.4120000000	n/a	203412	STATUS	1700	n/a	n/a	1
205.1120000000	n/a	205112	RewardB1	639	n/a	n/a	0
206.8280000000	n/a	206828	RewIncorrB1	1000	n/a	n/a	1
208.8280000000	n/a	208828	STATUS	1700	n/a	n/a	1
210.5280000000	n/a	210528	PenaltyB1	791	n/a	n/a	0
212.3950000000	n/a	212395	PunIncorrB1	1000	n/a	n/a	1
214.3950000000	n/a	214395	STATUS	1700	n/a	n/a	1
216.0950000000	n/a	216095	RewardB1	893	n/a	n/a	0
218.0620000000	n/a	218062	NeuIncorrB1	1000	n/a	n/a	1
220.0620000000	n/a	220062	STATUS	1700	n/a	n/a	1
221.7620000000	n/a	221762	PenaltyB1	717	n/a	n/a	0
223.5450000000	n/a	223545	PunIncorrB1	1000	n/a	n/a	1
225.5450000000	n/a	225545	STATUS	1700	n/a	n/a	1
227.2450000000	n/a	227245	PenaltyB1	725	n/a	n/a	0
229.0450000000	n/a	229045	PunIncorrB1	1000	n/a	n/a	1
231.0450000000	n/a	231045	STATUS	1700	n/a	n/a	1
232.7450000000	n/a	232745	RewardB1	624	n/a	n/a	1
234.4450000000	n/a	234445	NeuCorrB1	1000	n/a	n/a	1
236.4450000000	n/a	236445	STATUS	1700	n/a	n/a	1
238.1450000000	n/a	238145	PenaltyB1	420	n/a	n/a	1
239.6280000000	n/a	239628	NeuCorrB1	1000	n/a	n/a	1
241.6280000000	n/a	241628	STATUS	1700	n/a	n/a	1
243.3280000000	n/a	243328	RewardB1	707	n/a	n/a	1
245.1120000000	n/a	245112	RewardCorrB1	1000	n/a	n/a	1
247.1120000000	n/a	247112	STATUS	1700	n/a	n/a	1
248.8120000000	n/a	248812	RewardB1	552	n/a	n/a	0
250.4280000000	n/a	250428	NeuIncorrB1	1000	n/a	n/a	1
252.4280000000	n/a	252428	STATUS	1700	n/a	n/a	1
254.1280000000	n/a	254128	RewardB1	1728	n/a	n/a	1
256.9280000000	n/a	256928	NeuCorrB1	1000	n/a	n/a	1
258.9280000000	n/a	258928	STATUS	1700	n/a	n/a	1
260.6280000000	n/a	260628	RewardB1	815	n/a	n/a	1
262.5120000000	n/a	262512	RewardCorrB1	1000	n/a	n/a	1
264.5120000000	n/a	264512	STATUS	1700	n/a	n/a	1
266.2120000000	n/a	266212	RewardB1	1277	n/a	n/a	1
268.5620000000	n/a	268562	RewardCorrB1	1000	n/a	n/a	1
270.5620000000	n/a	270562	STATUS	1700	n/a	n/a	1
272.2620000000	n/a	272262	PenaltyB1	1431	n/a	n/a	1
274.7620000000	n/a	274762	NeuCorrB1	1000	n/a	n/a	1
276.7620000000	n/a	276762	STATUS	1700	n/a	n/a	1
278.4610000000	n/a	278461	RewardB1	811	n/a	n/a	0
280.3450000000	n/a	280345	NeuIncorrB1	1000	n/a	n/a	1
282.3450000000	n/a	282345	STATUS	1700	n/a	n/a	1
284.0450000000	n/a	284045	PenaltyB1	701	n/a	n/a	0
285.8110000000	n/a	285811	NeuIncorrB1	1000	n/a	n/a	1
287.8120000000	n/a	287812	STATUS	1700	n/a	n/a	1
289.5110000000	n/a	289511	RewardB1	624	n/a	n/a	0
291.2110000000	n/a	291211	NeuIncorrB1	1000	n/a	n/a	1
293.2120000000	n/a	293212	STATUS	1700	n/a	n/a	1
294.9110000000	n/a	294911	RewardB1	985	n/a	n/a	1
296.9610000000	n/a	296961	RewardCorrB1	1000	n/a	n/a	1
298.9620000000	n/a	298962	ignore	1700	n/a	n/a	1
300.6610000000	n/a	300661	RewardB1	639	n/a	n/a	1
302.3780000000	n/a	302378	RewardCorrB1	1000	n/a	n/a	1
304.3780000000	n/a	304378	ignore	1700	n/a	n/a	1
306.0780000000	n/a	306078	PenaltyB1	1899	n/a	n/a	1
309.0450000000	n/a	309045	NeuCorrB1	1000	n/a	n/a	1
311.0450000000	n/a	311045	ignore	1700	n/a	n/a	1
312.7450000000	n/a	312745	RewardB1	1169	n/a	n/a	1
314.9780000000	n/a	314978	NeuCorrB1	1000	n/a	n/a	1
316.9780000000	n/a	316978	ignore	1700	n/a	n/a	1
318.6780000000	n/a	318678	PenaltyB1	1298	n/a	n/a	1
321.0450000000	n/a	321045	NeuCorrB1	1000	n/a	n/a	1
323.0450000000	n/a	323045	ignore	1700	n/a	n/a	1
324.7450000000	n/a	324745	RewardB1	167	n/a	n/a	1
325.9780000000	n/a	325978	RewardCorrB1	1000	n/a	n/a	1
327.9780000000	n/a	327978	ignore	1700	n/a	n/a	1
329.6780000000	n/a	329678	PenaltyB1	804	n/a	n/a	0
331.5450000000	n/a	331545	NeuIncorrB1	1000	n/a	n/a	1
333.5450000000	n/a	333545	ignore	1700	n/a	n/a	1
335.2450000000	n/a	335245	RewardB1	1094	n/a	n/a	0
337.4110000000	n/a	337411	NeuIncorrB1	1000	n/a	n/a	1
339.4110000000	n/a	339411	ignore	1700	n/a	n/a	1
341.1110000000	n/a	341111	PenaltyB1	738	n/a	n/a	1
342.9280000000	n/a	342928	NeuCorrB1	1000	n/a	n/a	1
344.9280000000	n/a	344928	ignore	1700	n/a	n/a	1
346.6280000000	n/a	346628	PenaltyB1	712	n/a	n/a	0
348.4110000000	n/a	348411	PunIncorrB1	1000	n/a	n/a	1
350.4110000000	n/a	350411	ignore	1700	n/a	n/a	1
352.1110000000	n/a	352111	RewardB1	1306	n/a	n/a	0
354.4950000000	n/a	354495	NeuIncorrB1	1000	n/a	n/a	1
356.4950000000	n/a	356495	ignore	1700	n/a	n/a	1
358.1950000000	n/a	358195	PenaltyB1	901	n/a	n/a	1
360.1610000000	n/a	360161	PunCorrB1	1000	n/a	n/a	1
362.1610000000	n/a	362161	ignore	1700	n/a	n/a	1
363.8610000000	n/a	363861	RewardB1	685	n/a	n/a	0
365.6110000000	n/a	365611	NeuIncorrB1	1000	n/a	n/a	1
367.6110000000	n/a	367611	ignore	1700	n/a	n/a	1
387.3610000000	n/a	387361	RewardB2	1092	n/a	n/a	0
389.5280000000	n/a	389528	NeuIncorrB2	1000	n/a	n/a	1
391.5280000000	n/a	391528	ignore	1700	n/a	n/a	1
393.2280000000	n/a	393228	PenaltyB2	335	n/a	n/a	1
394.6280000000	n/a	394628	NeuCorrB2	1000	n/a	n/a	1
396.6280000000	n/a	396628	ignore	1700	n/a	n/a	1
398.3280000000	n/a	398328	RewardB2	608	n/a	n/a	0
400.0110000000	n/a	400011	NeuIncorrB2	1000	n/a	n/a	1
402.0110000000	n/a	402011	ignore	1700	n/a	n/a	1
403.7110000000	n/a	403711	RewardB2	551	n/a	n/a	0
405.3280000000	n/a	405328	RewIncorrB2	1000	n/a	n/a	1
407.3280000000	n/a	407328	ignore	1700	n/a	n/a	1
409.0280000000	n/a	409028	PenaltyB2	615	n/a	n/a	1
410.7110000000	n/a	410711	NeuCorrB2	1000	n/a	n/a	1
412.7110000000	n/a	412711	ignore	1700	n/a	n/a	1
414.4110000000	n/a	414411	RewardB2	1298	n/a	n/a	0
416.7780000000	n/a	416778	NeuIncorrB2	1000	n/a	n/a	1
418.7780000000	n/a	418778	ignore	1700	n/a	n/a	1
420.4780000000	n/a	420478	PenaltyB2	871	n/a	n/a	0
422.4110000000	n/a	422411	PunIncorrB2	1000	n/a	n/a	1
424.4110000000	n/a	424411	ignore	1700	n/a	n/a	1
426.1110000000	n/a	426111	RewardB2	1527	n/a	n/a	1
428.7110000000	n/a	428711	RewardCorrB2	1000	n/a	n/a	1
430.7110000000	n/a	430711	ignore	1700	n/a	n/a	1
432.4110000000	n/a	432411	PenaltyB2	1164	n/a	n/a	0
434.6450000000	n/a	434645	PunIncorrB2	1000	n/a	n/a	1
436.6450000000	n/a	436645	ignore	1700	n/a	n/a	1
438.3450000000	n/a	438345	RewardB2	672	n/a	n/a	0
440.0950000000	n/a	440095	NeuIncorrB2	1000	n/a	n/a	1
442.0950000000	n/a	442095	ignore	1700	n/a	n/a	1
443.7950000000	n/a	443795	PenaltyB2	619	n/a	n/a	0
445.4780000000	n/a	445478	NeuIncorrB2	1000	n/a	n/a	1
447.4780000000	n/a	447478	ignore	1700	n/a	n/a	1
449.1780000000	n/a	449178	RewardB2	490	n/a	n/a	1
450.7450000000	n/a	450745	RewardCorrB2	1000	n/a	n/a	1
452.7450000000	n/a	452745	ignore	1700	n/a	n/a	1
454.4450000000	n/a	454445	PenaltyB2	2886	n/a	n/a	1
458.3950000000	n/a	458395	NeuCorrB2	1000	n/a	n/a	1
460.3950000000	n/a	460395	ignore	1700	n/a	n/a	1
462.0950000000	n/a	462095	RewardB2	1333	n/a	n/a	1
464.4950000000	n/a	464495	RewardCorrB2	1000	n/a	n/a	1
466.4950000000	n/a	466495	ignore	1700	n/a	n/a	1
468.1950000000	n/a	468195	PenaltyB2	2286	n/a	n/a	0
471.5450000000	n/a	471545	PunIncorrB2	1000	n/a	n/a	1
473.5450000000	n/a	473545	ignore	1700	n/a	n/a	1
475.2450000000	n/a	475245	RewardB2	953	n/a	n/a	0
477.2610000000	n/a	477261	RewIncorrB2	1000	n/a	n/a	1
479.2610000000	n/a	479261	ignore	1700	n/a	n/a	1
480.9610000000	n/a	480961	PenaltyB2	850	n/a	n/a	1
482.8780000000	n/a	482878	NeuCorrB2	1000	n/a	n/a	1
484.8780000000	n/a	484878	ignore	1700	n/a	n/a	1
486.5780000000	n/a	486578	RewardB2	962	n/a	n/a	0
488.6110000000	n/a	488611	NeuIncorrB2	1000	n/a	n/a	1
490.6110000000	n/a	490611	ignore	1700	n/a	n/a	1
492.3110000000	n/a	492311	PenaltyB2	1606	n/a	n/a	0
494.9950000000	n/a	494995	PunIncorrB2	1000	n/a	n/a	1
496.9950000000	n/a	496995	ignore	1700	n/a	n/a	1
498.6950000000	n/a	498695	RewardB2	1161	n/a	n/a	1
500.9280000000	n/a	500928	RewardCorrB2	1000	n/a	n/a	1
502.9280000000	n/a	502928	ignore	1700	n/a	n/a	1
504.6280000000	n/a	504628	PenaltyB2	1244	n/a	n/a	0
506.9450000000	n/a	506945	NeuIncorrB2	1000	n/a	n/a	1
508.9450000000	n/a	508945	ignore	1700	n/a	n/a	1
510.6450000000	n/a	510645	PenaltyB2	399	n/a	n/a	0
512.1110000000	n/a	512111	PunIncorrB2	1000	n/a	n/a	1
514.1110000000	n/a	514111	ignore	1700	n/a	n/a	1
515.8110000000	n/a	515811	PenaltyB2	1083	n/a	n/a	0
517.9610000000	n/a	517961	PunIncorrB2	1000	n/a	n/a	1
519.9610000000	n/a	519961	ignore	1700	n/a	n/a	1
521.6610000000	n/a	521661	RewardB2	716	n/a	n/a	0
523.4450000000	n/a	523445	NeuIncorrB2	1000	n/a	n/a	1
525.4450000000	n/a	525445	ignore	1700	n/a	n/a	1
527.1440000000	n/a	527144	RewardB2	520	n/a	n/a	1
528.7280000000	n/a	528728	NeuCorrB2	1000	n/a	n/a	1
530.7280000000	n/a	530728	ignore	1700	n/a	n/a	1
532.4280000000	n/a	532428	RewardB2	320	n/a	n/a	1
533.8110000000	n/a	533811	RewardCorrB2	1000	n/a	n/a	1
535.8110000000	n/a	535811	ignore	1700	n/a	n/a	1
537.5110000000	n/a	537511	PenaltyB2	2703	n/a	n/a	0
541.2780000000	n/a	541278	PunIncorrB2	1000	n/a	n/a	1
543.2780000000	n/a	543278	ignore	1700	n/a	n/a	1
544.9780000000	n/a	544978	PenaltyB2	1442	n/a	n/a	1
547.4940000000	n/a	547494	NeuCorrB2	1000	n/a	n/a	1
549.4950000000	n/a	549495	ignore	1700	n/a	n/a	1
551.1940000000	n/a	551194	RewardB2	798	n/a	n/a	0
553.0610000000	n/a	553061	NeuIncorrB2	1000	n/a	n/a	1
555.0610000000	n/a	555061	ignore	1700	n/a	n/a	1
556.7610000000	n/a	556761	PenaltyB2	726	n/a	n/a	1
558.5610000000	n/a	558561	NeuCorrB2	1000	n/a	n/a	1
560.5610000000	n/a	560561	ignore	1700	n/a	n/a	1
562.2610000000	n/a	562261	RewardB2	584	n/a	n/a	1
563.9110000000	n/a	563911	NeuCorrB2	1000	n/a	n/a	1
565.9110000000	n/a	565911	ignore	1700	n/a	n/a	1
567.6110000000	n/a	567611	PenaltyB2	774	n/a	n/a	0
569.4610000000	n/a	569461	PunIncorrB2	1000	n/a	n/a	1
571.4610000000	n/a	571461	STATUS	1700	n/a	n/a	1
573.1610000000	n/a	573161	RewardB2	640	n/a	n/a	1
574.8780000000	n/a	574878	RewardCorrB2	1000	n/a	n/a	1
576.8780000000	n/a	576878	ignore	1700	n/a	n/a	1
578.5780000000	n/a	578578	PenaltyB2	445	n/a	n/a	1
580.0940000000	n/a	580094	NeuCorrB2	1000	n/a	n/a	1
582.0940000000	n/a	582094	ignore	1700	n/a	n/a	1
583.7940000000	n/a	583794	PenaltyB2	794	n/a	n/a	1
585.6610000000	n/a	585661	PunCorrB2	1000	n/a	n/a	1
587.6610000000	n/a	587661	STATUS	1700	n/a	n/a	1
589.3610000000	n/a	589361	RewardB2	568	n/a	n/a	1
590.9940000000	n/a	590994	RewardCorrB2	1000	n/a	n/a	1
592.9940000000	n/a	592994	ignore	1700	n/a	n/a	1
594.6940000000	n/a	594694	PenaltyB2	1320	n/a	n/a	0
597.0780000000	n/a	597078	PunIncorrB2	1000	n/a	n/a	1
599.0780000000	n/a	599078	STATUS	1700	n/a	n/a	1
600.7780000000	n/a	600778	RewardB2	760	n/a	n/a	0
602.6110000000	n/a	602611	NeuIncorrB2	1000	n/a	n/a	1
604.6110000000	n/a	604611	STATUS	1700	n/a	n/a	1
606.3110000000	n/a	606311	PenaltyB2	707	n/a	n/a	0
608.0940000000	n/a	608094	NeuIncorrB2	1000	n/a	n/a	1
610.0940000000	n/a	610094	STATUS	1700	n/a	n/a	1
611.7940000000	n/a	611794	RewardB2	933	n/a	n/a	0
613.7940000000	n/a	613794	NeuIncorrB2	1000	n/a	n/a	1
615.7940000000	n/a	615794	STATUS	1700	n/a	n/a	1
635.6940000000	n/a	635694	RewardB3	1167	n/a	n/a	1
637.9280000000	n/a	637928	RewardCorrB3	1000	n/a	n/a	1
639.9280000000	n/a	639928	ignore	1700	n/a	n/a	1
641.6280000000	n/a	641628	PenaltyB3	941	n/a	n/a	1
643.6440000000	n/a	643644	PunCorrB3	1000	n/a	n/a	1
645.6440000000	n/a	645644	STATUS	1700	n/a	n/a	1
647.3440000000	n/a	647344	RewardB3	1276	n/a	n/a	1
649.6940000000	n/a	649694	RewardCorrB3	1000	n/a	n/a	1
651.6940000000	n/a	651694	ignore	1700	n/a	n/a	1
653.3940000000	n/a	653394	PenaltyB3	1136	n/a	n/a	1
655.5940000000	n/a	655594	NeuCorrB3	1000	n/a	n/a	1
657.5940000000	n/a	657594	ignore	1700	n/a	n/a	1
659.2940000000	n/a	659294	PenaltyB3	579	n/a	n/a	1
660.9440000000	n/a	660944	NeuCorrB3	1000	n/a	n/a	1
662.9440000000	n/a	662944	ignore	1700	n/a	n/a	1
664.6440000000	n/a	664644	RewardB3	514	n/a	n/a	0
666.2280000000	n/a	666228	NeuIncorrB3	1000	n/a	n/a	1
668.2280000000	n/a	668228	ignore	1700	n/a	n/a	1
669.9280000000	n/a	669928	PenaltyB3	701	n/a	n/a	1
671.6940000000	n/a	671694	PunCorrB3	1000	n/a	n/a	1
673.6940000000	n/a	673694	STATUS	1700	n/a	n/a	1
675.3940000000	n/a	675394	RewardB3	823	n/a	n/a	0
677.2940000000	n/a	677294	NeuIncorrB3	1000	n/a	n/a	1
679.2940000000	n/a	679294	STATUS	1700	n/a	n/a	1
680.9940000000	n/a	680994	PenaltyB3	434	n/a	n/a	0
682.4940000000	n/a	682494	PunIncorrB3	1000	n/a	n/a	1
684.4940000000	n/a	684494	STATUS	1700	n/a	n/a	1
686.1940000000	n/a	686194	RewardB3	1071	n/a	n/a	0
688.3280000000	n/a	688328	RewIncorrB3	1000	n/a	n/a	1
690.3280000000	n/a	690328	STATUS	1700	n/a	n/a	1
692.0280000000	n/a	692028	PenaltyB3	972	n/a	n/a	1
694.0780000000	n/a	694078	NeuCorrB3	1000	n/a	n/a	1
696.0780000000	n/a	696078	STATUS	1700	n/a	n/a	1
697.7780000000	n/a	697778	RewardB3	638	n/a	n/a	1
699.4940000000	n/a	699494	RewardCorrB3	1000	n/a	n/a	1
701.4940000000	n/a	701494	ignore	1700	n/a	n/a	1
703.1940000000	n/a	703194	RewardB3	646	n/a	n/a	0
704.9110000000	n/a	704911	NeuIncorrB3	1000	n/a	n/a	1
706.9110000000	n/a	706911	ignore	1700	n/a	n/a	1
708.6110000000	n/a	708611	RewardB3	896	n/a	n/a	0
710.5780000000	n/a	710578	NeuIncorrB3	1000	n/a	n/a	1
712.5780000000	n/a	712578	ignore	1700	n/a	n/a	1
714.2780000000	n/a	714278	PenaltyB3	804	n/a	n/a	1
716.1440000000	n/a	716144	PunCorrB3	1000	n/a	n/a	1
718.1440000000	n/a	718144	STATUS	1700	n/a	n/a	1
719.8440000000	n/a	719844	RewardB3	1502	n/a	n/a	0
722.4110000000	n/a	722411	NeuIncorrB3	1000	n/a	n/a	1
724.4110000000	n/a	724411	STATUS	1700	n/a	n/a	1
726.1110000000	n/a	726111	PenaltyB3	602	n/a	n/a	1
727.7780000000	n/a	727778	NeuCorrB3	1000	n/a	n/a	1
729.7780000000	n/a	729778	STATUS	1700	n/a	n/a	1
731.4780000000	n/a	731478	RewardB3	966	n/a	n/a	0
733.5110000000	n/a	733511	NeuIncorrB3	1000	n/a	n/a	1
735.5110000000	n/a	735511	STATUS	1700	n/a	n/a	1
737.2110000000	n/a	737211	RewardB3	530	n/a	n/a	0
738.8110000000	n/a	738811	NeuIncorrB3	1000	n/a	n/a	1
740.8110000000	n/a	740811	STATUS	1700	n/a	n/a	1
742.5110000000	n/a	742511	RewardB3	1647	n/a	n/a	1
745.2280000000	n/a	745228	NeuCorrB3	1000	n/a	n/a	1
747.2280000000	n/a	747228	STATUS	1700	n/a	n/a	1
748.9280000000	n/a	748928	RewardB3	554	n/a	n/a	1
750.5440000000	n/a	750544	RewardCorrB3	1000	n/a	n/a	1
752.5440000000	n/a	752544	ignore	1700	n/a	n/a	1
754.2440000000	n/a	754244	RewardB3	1329	n/a	n/a	1
756.6440000000	n/a	756644	RewardCorrB3	1000	n/a	n/a	1
758.6440000000	n/a	758644	ignore	1700	n/a	n/a	1
760.3440000000	n/a	760344	PenaltyB3	2179	n/a	n/a	0
763.5940000000	n/a	763594	PunIncorrB3	1000	n/a	n/a	1
765.5940000000	n/a	765594	ignore	1700	n/a	n/a	1
767.2940000000	n/a	767294	RewardB3	864	n/a	n/a	0
769.2280000000	n/a	769228	RewIncorrB3	1000	n/a	n/a	1
771.2280000000	n/a	771228	ignore	1700	n/a	n/a	1
772.9280000000	n/a	772928	PenaltyB3	874	n/a	n/a	1
774.8770000000	n/a	774877	NeuCorrB3	1000	n/a	n/a	1
776.8780000000	n/a	776878	ignore	1700	n/a	n/a	1
778.5770000000	n/a	778577	PenaltyB3	2210	n/a	n/a	0
781.8610000000	n/a	781861	PunIncorrB3	1000	n/a	n/a	1
783.8610000000	n/a	783861	ignore	1700	n/a	n/a	1
785.5610000000	n/a	785561	RewardB3	727	n/a	n/a	1
787.3610000000	n/a	787361	RewardCorrB3	1000	n/a	n/a	1
789.3610000000	n/a	789361	ignore	1700	n/a	n/a	1
791.0610000000	n/a	791061	PenaltyB3	2734	n/a	n/a	1
794.8610000000	n/a	794861	NeuCorrB3	1000	n/a	n/a	1
796.8610000000	n/a	796861	ignore	1700	n/a	n/a	1
798.5610000000	n/a	798561	RewardB3	850	n/a	n/a	0
800.4770000000	n/a	800477	RewIncorrB3	1000	n/a	n/a	1
802.4780000000	n/a	802478	ignore	1700	n/a	n/a	1
804.1770000000	n/a	804177	PenaltyB3	1299	n/a	n/a	0
806.5440000000	n/a	806544	PunIncorrB3	1000	n/a	n/a	1
808.5440000000	n/a	808544	ignore	1700	n/a	n/a	1
810.2440000000	n/a	810244	RewardB3	1260	n/a	n/a	1
812.5770000000	n/a	812577	RewardCorrB3	1000	n/a	n/a	1
814.5780000000	n/a	814578	ignore	1700	n/a	n/a	1
816.2770000000	n/a	816277	PenaltyB3	734	n/a	n/a	0
818.0770000000	n/a	818077	NeuIncorrB3	1000	n/a	n/a	1
820.0770000000	n/a	820077	ignore	1700	n/a	n/a	1
821.7770000000	n/a	821777	PenaltyB3	1546	n/a	n/a	1
824.3940000000	n/a	824394	NeuCorrB3	1000	n/a	n/a	1
826.3940000000	n/a	826394	ignore	1700	n/a	n/a	1
828.0940000000	n/a	828094	PenaltyB3	742	n/a	n/a	1
829.9110000000	n/a	829911	NeuCorrB3	1000	n/a	n/a	1
831.9110000000	n/a	831911	ignore	1700	n/a	n/a	1
833.6110000000	n/a	833611	PenaltyB3	789	n/a	n/a	0
835.4770000000	n/a	835477	PunIncorrB3	1000	n/a	n/a	1
837.4770000000	n/a	837477	ignore	1700	n/a	n/a	1
839.1770000000	n/a	839177	RewardB3	925	n/a	n/a	0
841.1770000000	n/a	841177	NeuIncorrB3	1000	n/a	n/a	1
843.1770000000	n/a	843177	ignore	1700	n/a	n/a	1
844.8770000000	n/a	844877	RewardB3	726	n/a	n/a	1
846.6770000000	n/a	846677	RewardCorrB3	1000	n/a	n/a	1
848.6770000000	n/a	848677	ignore	1700	n/a	n/a	1
850.3770000000	n/a	850377	PenaltyB3	789	n/a	n/a	1
852.2440000000	n/a	852244	NeuCorrB3	1000	n/a	n/a	1
854.2440000000	n/a	854244	ignore	1700	n/a	n/a	1
855.9440000000	n/a	855944	PenaltyB3	811	n/a	n/a	1
857.8270000000	n/a	857827	NeuCorrB3	1000	n/a	n/a	1
859.8270000000	n/a	859827	ignore	1700	n/a	n/a	1
861.5270000000	n/a	861527	PenaltyB3	2575	n/a	n/a	1
865.1770000000	n/a	865177	NeuCorrB3	1000	n/a	n/a	1
867.1770000000	n/a	867177	ignore	1700	n/a	n/a	1
883.8110000000	n/a	883811	RewardB4	1058	n/a	n/a	1
885.9440000000	n/a	885944	RewardCorrB4	1000	n/a	n/a	1
887.9440000000	n/a	887944	ignore	1700	n/a	n/a	1
889.6440000000	n/a	889644	PenaltyB4	1367	n/a	n/a	0
892.0770000000	n/a	892077	NeuIncorrB4	1000	n/a	n/a	1
894.0770000000	n/a	894077	ignore	1700	n/a	n/a	1
895.7770000000	n/a	895777	RewardB4	717	n/a	n/a	1
897.5610000000	n/a	897561	RewardCorrB4	1000	n/a	n/a	1
899.5610000000	n/a	899561	ignore	1700	n/a	n/a	1
901.2610000000	n/a	901261	PenaltyB4	1309	n/a	n/a	1
903.6440000000	n/a	903644	NeuCorrB4	1000	n/a	n/a	1
905.6440000000	n/a	905644	ignore	1700	n/a	n/a	1
907.3440000000	n/a	907344	RewardB4	675	n/a	n/a	1
909.0940000000	n/a	909094	RewardCorrB4	1000	n/a	n/a	1
911.0940000000	n/a	911094	ignore	1700	n/a	n/a	1
912.7940000000	n/a	912794	PenaltyB4	1783	n/a	n/a	1
915.6440000000	n/a	915644	PunCorrB4	1000	n/a	n/a	1
917.6440000000	n/a	917644	ignore	1700	n/a	n/a	1
919.3440000000	n/a	919344	PenaltyB4	776	n/a	n/a	0
921.1940000000	n/a	921194	PunIncorrB4	1000	n/a	n/a	1
923.1940000000	n/a	923194	ignore	1700	n/a	n/a	1
924.8940000000	n/a	924894	RewardB4	455	n/a	n/a	0
926.4270000000	n/a	926427	NeuIncorrB4	1000	n/a	n/a	1
928.4270000000	n/a	928427	ignore	1700	n/a	n/a	1
930.1270000000	n/a	930127	PenaltyB4	565	n/a	n/a	0
931.7610000000	n/a	931761	PunIncorrB4	1000	n/a	n/a	1
933.7610000000	n/a	933761	ignore	1700	n/a	n/a	1
935.4610000000	n/a	935461	RewardB4	619	n/a	n/a	1
937.1440000000	n/a	937144	NeuCorrB4	1000	n/a	n/a	1
939.1440000000	n/a	939144	ignore	1700	n/a	n/a	1
940.8440000000	n/a	940844	PenaltyB4	559	n/a	n/a	1
942.4770000000	n/a	942477	NeuCorrB4	1000	n/a	n/a	1
944.4770000000	n/a	944477	ignore	1700	n/a	n/a	1
946.1770000000	n/a	946177	RewardB4	568	n/a	n/a	0
947.8110000000	n/a	947811	NeuIncorrB4	1000	n/a	n/a	1
949.8110000000	n/a	949811	ignore	1700	n/a	n/a	1
951.5110000000	n/a	951511	PenaltyB4	820	n/a	n/a	1
953.3940000000	n/a	953394	NeuCorrB4	1000	n/a	n/a	1
955.3940000000	n/a	955394	ignore	1700	n/a	n/a	1
957.0940000000	n/a	957094	PenaltyB4	1661	n/a	n/a	1
959.8270000000	n/a	959827	NeuCorrB4	1000	n/a	n/a	1
961.8270000000	n/a	961827	ignore	1700	n/a	n/a	1
963.5270000000	n/a	963527	RewardB4	409	n/a	n/a	1
965.0110000000	n/a	965011	RewardCorrB4	1000	n/a	n/a	1
967.0110000000	n/a	967011	ignore	1700	n/a	n/a	1
968.7110000000	n/a	968711	RewardB4	760	n/a	n/a	0
970.5440000000	n/a	970544	RewIncorrB4	1000	n/a	n/a	1
972.5440000000	n/a	972544	ignore	1700	n/a	n/a	1
974.2440000000	n/a	974244	RewardB4	725	n/a	n/a	0
976.0440000000	n/a	976044	NeuIncorrB4	1000	n/a	n/a	1
978.0440000000	n/a	978044	ignore	1700	n/a	n/a	1
979.7440000000	n/a	979744	PenaltyB4	965	n/a	n/a	0
981.7770000000	n/a	981777	PunIncorrB4	1000	n/a	n/a	1
983.7770000000	n/a	983777	ignore	1700	n/a	n/a	1
985.4770000000	n/a	985477	PenaltyB4	867	n/a	n/a	0
987.4110000000	n/a	987411	PunIncorrB4	1000	n/a	n/a	1
989.4110000000	n/a	989411	ignore	1700	n/a	n/a	1
991.1110000000	n/a	991111	PenaltyB4	742	n/a	n/a	0
992.9270000000	n/a	992927	NeuIncorrB4	1000	n/a	n/a	1
994.9270000000	n/a	994927	ignore	1700	n/a	n/a	1
996.6270000000	n/a	996627	RewardB4	971	n/a	n/a	0
998.6610000000	n/a	998661	NeuIncorrB4	1000	n/a	n/a	1
1000.6610000000	n/a	1000661	ignore	1700	n/a	n/a	1
1002.3610000000	n/a	1002361	PenaltyB4	766	n/a	n/a	1
1004.1940000000	n/a	1004194	NeuCorrB4	1000	n/a	n/a	1
1006.1940000000	n/a	1006194	ignore	1700	n/a	n/a	1
1007.8940000000	n/a	1007894	RewardB4	742	n/a	n/a	0
1009.7110000000	n/a	1009711	NeuIncorrB4	1000	n/a	n/a	1
1011.7110000000	n/a	1011711	ignore	1700	n/a	n/a	1
1013.4110000000	n/a	1013411	PenaltyB4	503	n/a	n/a	1
1014.9770000000	n/a	1014977	NeuCorrB4	1000	n/a	n/a	1
1016.9770000000	n/a	1016977	ignore	1700	n/a	n/a	1
1018.6770000000	n/a	1018677	RewardB4	587	n/a	n/a	1
1020.3270000000	n/a	1020327	NeuCorrB4	1000	n/a	n/a	1
1022.3270000000	n/a	1022327	ignore	1700	n/a	n/a	1
1024.0270000000	n/a	1024027	PenaltyB4	382	n/a	n/a	0
1025.4770000000	n/a	1025477	PunIncorrB4	1000	n/a	n/a	1
1027.4770000000	n/a	1027477	ignore	1700	n/a	n/a	1
1029.1770000000	n/a	1029177	RewardB4	756	n/a	n/a	1
1031.0100000000	n/a	1031010	RewardCorrB4	1000	n/a	n/a	1
1033.0110000000	n/a	1033011	ignore	1700	n/a	n/a	1
1034.7100000000	n/a	1034710	PenaltyB4	976	n/a	n/a	0
1036.7600000000	n/a	1036760	PunIncorrB4	1000	n/a	n/a	1
1038.7610000000	n/a	1038761	ignore	1700	n/a	n/a	1
1040.4600000000	n/a	1040460	RewardB4	717	n/a	n/a	0
1042.2440000000	n/a	1042244	NeuIncorrB4	1000	n/a	n/a	1
1044.2440000000	n/a	1044244	ignore	1700	n/a	n/a	1
1045.9440000000	n/a	1045944	PenaltyB4	771	n/a	n/a	1
1047.7770000000	n/a	1047777	PunCorrB4	1000	n/a	n/a	1
1049.7770000000	n/a	1049777	ignore	1700	n/a	n/a	1
1051.4770000000	n/a	1051477	RewardB4	608	n/a	n/a	1
1053.1600000000	n/a	1053160	RewardCorrB4	1000	n/a	n/a	1
1055.1610000000	n/a	1055161	ignore	1700	n/a	n/a	1
1056.8600000000	n/a	1056860	PenaltyB4	1739	n/a	n/a	0
1059.6770000000	n/a	1059677	PunIncorrB4	1000	n/a	n/a	1
1061.6770000000	n/a	1061677	ignore	1700	n/a	n/a	1
1063.3770000000	n/a	1063377	RewardB4	460	n/a	n/a	1
1064.9100000000	n/a	1064910	RewardCorrB4	1000	n/a	n/a	1
1066.9110000000	n/a	1066911	ignore	1700	n/a	n/a	1
1068.6100000000	n/a	1068610	PenaltyB4	1780	n/a	n/a	0
1071.4600000000	n/a	1071460	PunIncorrB4	1000	n/a	n/a	1
1073.4610000000	n/a	1073461	ignore	1700	n/a	n/a	1
1075.1600000000	n/a	1075160	RewardB4	626	n/a	n/a	0
1076.8600000000	n/a	1076860	NeuIncorrB4	1000	n/a	n/a	1
1078.8600000000	n/a	1078860	ignore	1700	n/a	n/a	1
1080.5600000000	n/a	1080560	PenaltyB4	382	n/a	n/a	0
1082.0100000000	n/a	1082010	PunIncorrB4	1000	n/a	n/a	1
1084.0100000000	n/a	1084010	STATUS	1700	n/a	n/a	1
1085.7100000000	n/a	1085710	RewardB4	620	n/a	n/a	1
1087.3940000000	n/a	1087394	NeuCorrB4	1000	n/a	n/a	1
1089.3940000000	n/a	1089394	STATUS	1700	n/a	n/a	1
1091.0940000000	n/a	1091094	RewardB4	517	n/a	n/a	0
1092.6770000000	n/a	1092677	NeuIncorrB4	1000	n/a	n/a	1
1094.6770000000	n/a	1094677	STATUS	1700	n/a	n/a	1
1096.3770000000	n/a	1096377	PenaltyB4	921	n/a	n/a	0
1098.3600000000	n/a	1098360	PunIncorrB4	1000	n/a	n/a	1
1100.3600000000	n/a	1100360	STATUS	1700	n/a	n/a	1
1102.0600000000	n/a	1102060	RewardB4	620	n/a	n/a	1
1103.7440000000	n/a	1103744	RewardCorrB4	1000	n/a	n/a	1
1105.7440000000	n/a	1105744	STATUS	1700	n/a	n/a	1
1123.0770000000	n/a	1123077	STATUS	1700	n/a	n/a	1
