onset	duration	sample	trial_type	response_time	stim_file	value	correct
2.8940000000	n/a	2894	ignore	8713	n/a	n/a	1
12.6770000000	n/a	12677	ignore	1000	n/a	n/a	1
14.6770000000	n/a	14677	ignore	1700	n/a	n/a	1
16.3770000000	n/a	16377	ignore	3676	n/a	n/a	0
21.1270000000	n/a	21127	ignore	1000	n/a	n/a	1
23.1270000000	n/a	23127	ignore	1700	n/a	n/a	1
24.8270000000	n/a	24827	ignore	6442	n/a	n/a	1
32.3440000000	n/a	32344	ignore	1000	n/a	n/a	1
34.3440000000	n/a	34344	ignore	1700	n/a	n/a	1
36.0440000000	n/a	36044	ignore	5443	n/a	n/a	1
42.5610000000	n/a	42561	ignore	1000	n/a	n/a	1
44.5610000000	n/a	44561	ignore	1700	n/a	n/a	1
46.2610000000	n/a	46261	ignore	4415	n/a	n/a	1
51.7440000000	n/a	51744	ignore	1000	n/a	n/a	1
53.7440000000	n/a	53744	ignore	1700	n/a	n/a	1
55.4440000000	n/a	55444	ignore	7007	n/a	n/a	0
63.5270000000	n/a	63527	ignore	1000	n/a	n/a	1
65.5270000000	n/a	65527	ignore	1700	n/a	n/a	1
67.2270000000	n/a	67227	ignore	2046	n/a	n/a	1
70.3440000000	n/a	70344	ignore	1000	n/a	n/a	1
72.3440000000	n/a	72344	ignore	1700	n/a	n/a	1
74.0440000000	n/a	74044	ignore	1267	n/a	n/a	1
76.3770000000	n/a	76377	ignore	1000	n/a	n/a	1
78.3770000000	n/a	78377	ignore	1700	n/a	n/a	1
80.0770000000	n/a	80077	ignore	7762	n/a	n/a	1
87.9110000000	n/a	87911	ignore 	2000	n/a	n/a	1
98.9440000000	n/a	98944	ignore	1000	n/a	n/a	1
100.9440000000	n/a	100944	ignore	1700	n/a	n/a	1
102.6440000000	n/a	102644	ignore	2925	n/a	n/a	0
106.6440000000	n/a	106644	ignore	1000	n/a	n/a	1
108.6440000000	n/a	108644	ignore	1700	n/a	n/a	1
110.3440000000	n/a	110344	ignore	5609	n/a	n/a	0
117.0270000000	n/a	117027	ignore	1000	n/a	n/a	1
119.0270000000	n/a	119027	ignore	1700	n/a	n/a	1
120.7270000000	n/a	120727	ignore	1027	n/a	n/a	1
122.8270000000	n/a	122827	ignore	1000	n/a	n/a	1
124.8270000000	n/a	124827	ignore	1700	n/a	n/a	1
126.5270000000	n/a	126527	ignore	10090	n/a	n/a	0
137.6940000000	n/a	137694	ignore	1000	n/a	n/a	1
139.6940000000	n/a	139694	ignore	1700	n/a	n/a	1
141.3940000000	n/a	141394	ignore	3213	n/a	n/a	0
145.6770000000	n/a	145677	ignore	1000	n/a	n/a	1
147.6770000000	n/a	147677	ignore	1700	n/a	n/a	1
149.3770000000	n/a	149377	ignore	1362	n/a	n/a	1
151.8110000000	n/a	151811	ignore	1000	n/a	n/a	1
153.8110000000	n/a	153811	ignore	1700	n/a	n/a	1
155.5110000000	n/a	155511	ignore	407	n/a	n/a	1
156.9940000000	n/a	156994	ignore	1000	n/a	n/a	1
158.9940000000	n/a	158994	ignore	1700	n/a	n/a	1
160.6940000000	n/a	160694	ignore	2570	n/a	n/a	1
163.3270000000	n/a	163327	ignore 	2000	n/a	n/a	1
194.1610000000	n/a	194161	PenaltyB1	2712	n/a	n/a	1
197.9440000000	n/a	197944	NeuCorrB1	1000	n/a	n/a	1
199.9440000000	n/a	199944	ignore	1700	n/a	n/a	1
201.6440000000	n/a	201644	PenaltyB1	8111	n/a	n/a	0
210.8270000000	n/a	210827	PunIncorrB1	1000	n/a	n/a	1
212.8270000000	n/a	212827	ignore	1700	n/a	n/a	1
214.5270000000	n/a	214527	PenaltyB1	1862	n/a	n/a	0
217.4610000000	n/a	217461	PunIncorrB1	1000	n/a	n/a	1
219.4610000000	n/a	219461	STATUS	1700	n/a	n/a	1
221.1610000000	n/a	221161	RewardB1	8710	n/a	n/a	0
230.9440000000	n/a	230944	NeuIncorrB1	1000	n/a	n/a	1
232.9440000000	n/a	232944	STATUS	1700	n/a	n/a	1
234.6440000000	n/a	234644	RewardB1	8427	n/a	n/a	0
244.1440000000	n/a	244144	NeuIncorrB1	1000	n/a	n/a	1
246.1440000000	n/a	246144	STATUS	1700	n/a	n/a	1
247.8440000000	n/a	247844	PenaltyB1	6221	n/a	n/a	0
255.1270000000	n/a	255127	PunIncorrB1	1000	n/a	n/a	1
257.1270000000	n/a	257127	STATUS	1700	n/a	n/a	1
258.8270000000	n/a	258827	PenaltyB1	2738	n/a	n/a	0
262.6440000000	n/a	262644	PunIncorrB1	1000	n/a	n/a	1
264.6440000000	n/a	264644	STATUS	1700	n/a	n/a	1
266.3440000000	n/a	266344	PenaltyB1	2498	n/a	n/a	1
269.9100000000	n/a	269910	NeuCorrB1	1000	n/a	n/a	1
271.9110000000	n/a	271911	STATUS	1700	n/a	n/a	1
273.6100000000	n/a	273610	PenaltyB1	4231	n/a	n/a	0
278.9100000000	n/a	278910	NeuIncorrB1	1000	n/a	n/a	1
280.9110000000	n/a	280911	STATUS	1700	n/a	n/a	1
282.6100000000	n/a	282610	RewardB1	3811	n/a	n/a	0
287.4940000000	n/a	287494	NeuIncorrB1	1000	n/a	n/a	1
289.4940000000	n/a	289494	STATUS	1700	n/a	n/a	1
291.1940000000	n/a	291194	PenaltyB1	6337	n/a	n/a	0
298.5940000000	n/a	298594	PunIncorrB1	1000	n/a	n/a	1
300.5940000000	n/a	300594	STATUS	1700	n/a	n/a	1
302.2940000000	n/a	302294	RewardB1	1389	n/a	n/a	0
304.7600000000	n/a	304760	RewIncorrB1	1000	n/a	n/a	1
306.7600000000	n/a	306760	STATUS	1700	n/a	n/a	1
308.4600000000	n/a	308460	PenaltyB1	2126	n/a	n/a	1
311.6600000000	n/a	311660	NeuCorrB1	1000	n/a	n/a	1
313.6600000000	n/a	313660	STATUS	1700	n/a	n/a	1
315.3600000000	n/a	315360	RewardB1	6854	n/a	n/a	0
323.2770000000	n/a	323277	NeuIncorrB1	1000	n/a	n/a	1
325.2770000000	n/a	325277	STATUS	1700	n/a	n/a	1
326.9770000000	n/a	326977	PenaltyB1	2791	n/a	n/a	1
330.8440000000	n/a	330844	NeuCorrB1	1000	n/a	n/a	1
332.8440000000	n/a	332844	STATUS	1700	n/a	n/a	1
334.5440000000	n/a	334544	PenaltyB1	874	n/a	n/a	1
336.4940000000	n/a	336494	NeuCorrB1	1000	n/a	n/a	1
338.4940000000	n/a	338494	STATUS	1700	n/a	n/a	1
340.1940000000	n/a	340194	RewardB1	3337	n/a	n/a	1
344.5940000000	n/a	344594	NeuCorrB1	1000	n/a	n/a	1
346.5940000000	n/a	346594	STATUS	1700	n/a	n/a	1
348.2940000000	n/a	348294	PenaltyB1	1672	n/a	n/a	0
351.0440000000	n/a	351044	PunIncorrB1	1000	n/a	n/a	1
353.0440000000	n/a	353044	STATUS	1700	n/a	n/a	1
354.7440000000	n/a	354744	RewardB1	1416	n/a	n/a	0
357.2270000000	n/a	357227	NeuIncorrB1	1000	n/a	n/a	1
359.2270000000	n/a	359227	STATUS	1700	n/a	n/a	1
360.9270000000	n/a	360927	RewardB1	2866	n/a	n/a	1
364.8600000000	n/a	364860	RewardCorrB1	1000	n/a	n/a	1
366.8600000000	n/a	366860	STATUS	1700	n/a	n/a	1
368.5600000000	n/a	368560	RewardB1	4396	n/a	n/a	1
374.0270000000	n/a	374027	NeuCorrB1	1000	n/a	n/a	1
376.0270000000	n/a	376027	STATUS	1700	n/a	n/a	1
377.7270000000	n/a	377727	RewardB1	4204	n/a	n/a	1
382.9940000000	n/a	382994	RewardCorrB1	1000	n/a	n/a	1
384.9940000000	n/a	384994	STATUS	1700	n/a	n/a	1
386.6940000000	n/a	386694	RewardB1	2539	n/a	n/a	0
390.3100000000	n/a	390310	NeuIncorrB1	1000	n/a	n/a	1
392.3100000000	n/a	392310	STATUS	1700	n/a	n/a	1
394.0100000000	n/a	394010	PenaltyB1	2331	n/a	n/a	1
397.4100000000	n/a	397410	NeuCorrB1	1000	n/a	n/a	1
399.4100000000	n/a	399410	STATUS	1700	n/a	n/a	1
401.1100000000	n/a	401110	RewardB1	1359	n/a	n/a	1
403.5440000000	n/a	403544	RewardCorrB1	1000	n/a	n/a	1
405.5440000000	n/a	405544	STATUS	1700	n/a	n/a	1
407.2440000000	n/a	407244	PenaltyB1	1481	n/a	n/a	1
409.7940000000	n/a	409794	PunCorrB1	1000	n/a	n/a	1
411.7940000000	n/a	411794	STATUS	1700	n/a	n/a	1
413.4940000000	n/a	413494	RewardB1	966	n/a	n/a	1
415.5270000000	n/a	415527	RewardCorrB1	1000	n/a	n/a	1
417.5270000000	n/a	417527	STATUS	1700	n/a	n/a	1
419.2270000000	n/a	419227	RewardB1	4429	n/a	n/a	0
424.7270000000	n/a	424727	NeuIncorrB1	1000	n/a	n/a	1
426.7270000000	n/a	426727	STATUS	1700	n/a	n/a	1
428.4270000000	n/a	428427	RewardB1	802	n/a	n/a	1
430.2940000000	n/a	430294	RewardCorrB1	1000	n/a	n/a	1
432.2940000000	n/a	432294	ignore	1700	n/a	n/a	1
433.9940000000	n/a	433994	PenaltyB1	1537	n/a	n/a	0
436.5940000000	n/a	436594	PunIncorrB1	1000	n/a	n/a	1
438.5940000000	n/a	438594	STATUS	1700	n/a	n/a	1
440.2940000000	n/a	440294	RewardB1	671	n/a	n/a	1
442.0270000000	n/a	442027	NeuCorrB1	1000	n/a	n/a	1
444.0270000000	n/a	444027	STATUS	1700	n/a	n/a	1
445.7270000000	n/a	445727	PenaltyB1	1491	n/a	n/a	1
448.2940000000	n/a	448294	NeuCorrB1	1000	n/a	n/a	1
450.2940000000	n/a	450294	STATUS	1700	n/a	n/a	1
451.9940000000	n/a	451994	RewardB1	922	n/a	n/a	0
453.9940000000	n/a	453994	NeuIncorrB1	1000	n/a	n/a	1
455.9940000000	n/a	455994	STATUS	1700	n/a	n/a	1
457.6940000000	n/a	457694	PenaltyB1	4336	n/a	n/a	1
463.0940000000	n/a	463094	PunCorrB1	1000	n/a	n/a	1
465.0940000000	n/a	465094	STATUS	1700	n/a	n/a	1
466.7940000000	n/a	466794	RewardB1	633	n/a	n/a	1
468.4940000000	n/a	468494	RewardCorrB1	1000	n/a	n/a	1
470.4940000000	n/a	470494	STATUS	1700	n/a	n/a	1
472.1940000000	n/a	472194	PenaltyB1	2103	n/a	n/a	0
475.3600000000	n/a	475360	PunIncorrB1	1000	n/a	n/a	1
477.3600000000	n/a	477360	STATUS	1700	n/a	n/a	1
479.0600000000	n/a	479060	PenaltyB1	851	n/a	n/a	0
480.9770000000	n/a	480977	PunIncorrB1	1000	n/a	n/a	1
482.9770000000	n/a	482977	STATUS	1700	n/a	n/a	1
484.6770000000	n/a	484677	RewardB1	340	n/a	n/a	1
486.0940000000	n/a	486094	RewardCorrB1	1000	n/a	n/a	1
488.0940000000	n/a	488094	STATUS	1700	n/a	n/a	1
489.7940000000	n/a	489794	PenaltyB1	837	n/a	n/a	1
491.6940000000	n/a	491694	PunCorrB1	1000	n/a	n/a	1
493.6940000000	n/a	493694	STATUS	1700	n/a	n/a	1
495.3940000000	n/a	495394	RewardB1	999	n/a	n/a	0
497.4600000000	n/a	497460	NeuIncorrB1	1000	n/a	n/a	1
499.4600000000	n/a	499460	STATUS	1700	n/a	n/a	1
518.4100000000	n/a	518410	RewardB2	3531	n/a	n/a	0
523.0100000000	n/a	523010	NeuIncorrB2	1000	n/a	n/a	1
525.0100000000	n/a	525010	STATUS	1700	n/a	n/a	1
526.7100000000	n/a	526710	PenaltyB2	4039	n/a	n/a	0
531.8270000000	n/a	531827	PunIncorrB2	1000	n/a	n/a	1
533.8270000000	n/a	533827	STATUS	1700	n/a	n/a	1
535.5270000000	n/a	535527	RewardB2	833	n/a	n/a	0
537.4270000000	n/a	537427	NeuIncorrB2	1000	n/a	n/a	1
539.4270000000	n/a	539427	STATUS	1700	n/a	n/a	1
541.1270000000	n/a	541127	RewardB2	851	n/a	n/a	1
543.0430000000	n/a	543043	NeuCorrB2	1000	n/a	n/a	1
545.0440000000	n/a	545044	STATUS	1700	n/a	n/a	1
546.7430000000	n/a	546743	PenaltyB2	5582	n/a	n/a	1
553.3930000000	n/a	553393	NeuCorrB2	1000	n/a	n/a	1
555.3940000000	n/a	555394	STATUS	1700	n/a	n/a	1
557.0930000000	n/a	557093	RewardB2	551	n/a	n/a	1
558.7100000000	n/a	558710	RewardCorrB2	1000	n/a	n/a	1
560.7100000000	n/a	560710	STATUS	1700	n/a	n/a	1
562.4100000000	n/a	562410	PenaltyB2	12968	n/a	n/a	1
576.4430000000	n/a	576443	NeuCorrB2	1000	n/a	n/a	1
578.4430000000	n/a	578443	STATUS	1700	n/a	n/a	1
580.1430000000	n/a	580143	RewardB2	630	n/a	n/a	1
581.8430000000	n/a	581843	RewardCorrB2	1000	n/a	n/a	1
583.8430000000	n/a	583843	STATUS	1700	n/a	n/a	1
585.5430000000	n/a	585543	PenaltyB2	3228	n/a	n/a	1
589.8430000000	n/a	589843	NeuCorrB2	1000	n/a	n/a	1
591.8430000000	n/a	591843	STATUS	1700	n/a	n/a	1
593.5430000000	n/a	593543	RewardB2	919	n/a	n/a	0
595.5270000000	n/a	595527	NeuIncorrB2	1000	n/a	n/a	1
597.5270000000	n/a	597527	STATUS	1700	n/a	n/a	1
599.2270000000	n/a	599227	PenaltyB2	7780	n/a	n/a	0
608.0770000000	n/a	608077	NeuIncorrB2	1000	n/a	n/a	1
610.0770000000	n/a	610077	STATUS	1700	n/a	n/a	1
611.7770000000	n/a	611777	RewardB2	1163	n/a	n/a	0
614.0100000000	n/a	614010	NeuIncorrB2	1000	n/a	n/a	1
616.0100000000	n/a	616010	STATUS	1700	n/a	n/a	1
617.7100000000	n/a	617710	PenaltyB2	5304	n/a	n/a	0
624.0770000000	n/a	624077	PunIncorrB2	1000	n/a	n/a	1
626.0770000000	n/a	626077	STATUS	1700	n/a	n/a	1
627.7770000000	n/a	627777	RewardB2	437	n/a	n/a	1
629.2770000000	n/a	629277	RewardCorrB2	1000	n/a	n/a	1
631.2770000000	n/a	631277	STATUS	1700	n/a	n/a	1
632.9770000000	n/a	632977	PenaltyB2	5626	n/a	n/a	0
639.6770000000	n/a	639677	PunIncorrB2	1000	n/a	n/a	1
641.6770000000	n/a	641677	STATUS	1700	n/a	n/a	1
643.3770000000	n/a	643377	RewardB2	1723	n/a	n/a	1
646.1770000000	n/a	646177	NeuCorrB2	1000	n/a	n/a	1
648.1770000000	n/a	648177	STATUS	1700	n/a	n/a	1
649.8770000000	n/a	649877	PenaltyB2	10266	n/a	n/a	1
661.2100000000	n/a	661210	NeuCorrB2	1000	n/a	n/a	1
663.2100000000	n/a	663210	STATUS	1700	n/a	n/a	1
664.9100000000	n/a	664910	RewardB2	1347	n/a	n/a	1
667.3270000000	n/a	667327	RewardCorrB2	1000	n/a	n/a	1
669.3270000000	n/a	669327	STATUS	1700	n/a	n/a	1
671.0270000000	n/a	671027	PenaltyB2	7470	n/a	n/a	1
679.5600000000	n/a	679560	NeuCorrB2	1000	n/a	n/a	1
681.5600000000	n/a	681560	STATUS	1700	n/a	n/a	1
683.2600000000	n/a	683260	RewardB2	4985	n/a	n/a	0
689.3100000000	n/a	689310	NeuIncorrB2	1000	n/a	n/a	1
691.3100000000	n/a	691310	STATUS	1700	n/a	n/a	1
693.0100000000	n/a	693010	PenaltyB2	15057	n/a	n/a	1
709.1430000000	n/a	709143	PunCorrB2	1000	n/a	n/a	1
711.1430000000	n/a	711143	STATUS	1700	n/a	n/a	1
712.8430000000	n/a	712843	PenaltyB2	2967	n/a	n/a	1
716.8770000000	n/a	716877	NeuCorrB2	1000	n/a	n/a	1
718.8770000000	n/a	718877	STATUS	1700	n/a	n/a	1
720.5770000000	n/a	720577	PenaltyB2	1806	n/a	n/a	0
723.4600000000	n/a	723460	PunIncorrB2	1000	n/a	n/a	1
725.4600000000	n/a	725460	STATUS	1700	n/a	n/a	1
727.1600000000	n/a	727160	RewardB2	629	n/a	n/a	1
728.8600000000	n/a	728860	RewardCorrB2	1000	n/a	n/a	1
730.8600000000	n/a	730860	STATUS	1700	n/a	n/a	1
732.5600000000	n/a	732560	RewardB2	1084	n/a	n/a	0
734.7100000000	n/a	734710	RewIncorrB2	1000	n/a	n/a	1
736.7100000000	n/a	736710	STATUS	1700	n/a	n/a	1
738.4100000000	n/a	738410	RewardB2	1869	n/a	n/a	1
741.3430000000	n/a	741343	RewardCorrB2	1000	n/a	n/a	1
743.3430000000	n/a	743343	STATUS	1700	n/a	n/a	1
745.0430000000	n/a	745043	PenaltyB2	1421	n/a	n/a	1
747.5270000000	n/a	747527	NeuCorrB2	1000	n/a	n/a	1
749.5270000000	n/a	749527	STATUS	1700	n/a	n/a	1
751.2270000000	n/a	751227	PenaltyB2	6381	n/a	n/a	1
758.6770000000	n/a	758677	NeuCorrB2	1000	n/a	n/a	1
760.6770000000	n/a	760677	STATUS	1700	n/a	n/a	1
762.3770000000	n/a	762377	RewardB2	640	n/a	n/a	1
764.0930000000	n/a	764093	RewardCorrB2	1000	n/a	n/a	1
766.0930000000	n/a	766093	ignore	1700	n/a	n/a	1
767.7930000000	n/a	767793	PenaltyB2	7113	n/a	n/a	1
775.9770000000	n/a	775977	NeuCorrB2	1000	n/a	n/a	1
777.9770000000	n/a	777977	ignore	1700	n/a	n/a	1
779.6760000000	n/a	779676	RewardB2	1271	n/a	n/a	0
782.0100000000	n/a	782010	RewIncorrB2	1000	n/a	n/a	1
784.0100000000	n/a	784010	ignore	1700	n/a	n/a	1
785.7100000000	n/a	785710	PenaltyB2	4365	n/a	n/a	0
791.1430000000	n/a	791143	PunIncorrB2	1000	n/a	n/a	1
793.1430000000	n/a	793143	ignore	1700	n/a	n/a	1
794.8430000000	n/a	794843	RewardB2	1195	n/a	n/a	1
797.1100000000	n/a	797110	RewardCorrB2	1000	n/a	n/a	1
799.1100000000	n/a	799110	ignore	1700	n/a	n/a	1
800.8100000000	n/a	800810	PenaltyB2	7154	n/a	n/a	1
809.0260000000	n/a	809026	NeuCorrB2	1000	n/a	n/a	1
811.0270000000	n/a	811027	ignore	1700	n/a	n/a	1
812.7260000000	n/a	812726	PenaltyB2	1729	n/a	n/a	1
815.5260000000	n/a	815526	PunCorrB2	1000	n/a	n/a	1
817.5270000000	n/a	817527	ignore	1700	n/a	n/a	1
819.2260000000	n/a	819226	RewardB2	965	n/a	n/a	0
821.2600000000	n/a	821260	NeuIncorrB2	1000	n/a	n/a	1
823.2600000000	n/a	823260	ignore	1700	n/a	n/a	1
824.9600000000	n/a	824960	PenaltyB2	2186	n/a	n/a	1
828.2100000000	n/a	828210	NeuCorrB2	1000	n/a	n/a	1
830.2100000000	n/a	830210	ignore	1700	n/a	n/a	1
831.9100000000	n/a	831910	RewardB2	1177	n/a	n/a	1
834.1600000000	n/a	834160	RewardCorrB2	1000	n/a	n/a	1
836.1600000000	n/a	836160	ignore	1700	n/a	n/a	1
837.8600000000	n/a	837860	PenaltyB2	7097	n/a	n/a	1
846.0260000000	n/a	846026	PunCorrB2	1000	n/a	n/a	1
848.0260000000	n/a	848026	ignore	1700	n/a	n/a	1
849.7260000000	n/a	849726	RewardB2	433	n/a	n/a	0
851.2260000000	n/a	851226	NeuIncorrB2	1000	n/a	n/a	1
853.2260000000	n/a	853226	ignore	1700	n/a	n/a	1
865.3100000000	n/a	865310	RewardB3	3165	n/a	n/a	0
869.5430000000	n/a	869543	NeuIncorrB3	1000	n/a	n/a	1
871.5430000000	n/a	871543	ignore	1700	n/a	n/a	1
873.2430000000	n/a	873243	PenaltyB3	5391	n/a	n/a	0
879.7100000000	n/a	879710	NeuIncorrB3	1000	n/a	n/a	1
881.7100000000	n/a	881710	ignore	1700	n/a	n/a	1
883.4100000000	n/a	883410	RewardB3	613	n/a	n/a	1
885.0930000000	n/a	885093	RewardCorrB3	1000	n/a	n/a	1
887.0930000000	n/a	887093	ignore	1700	n/a	n/a	1
888.7930000000	n/a	888793	PenaltyB3	6075	n/a	n/a	0
895.9430000000	n/a	895943	PunIncorrB3	1000	n/a	n/a	1
897.9430000000	n/a	897943	ignore	1700	n/a	n/a	1
899.6430000000	n/a	899643	PenaltyB3	1406	n/a	n/a	0
902.1260000000	n/a	902126	PunIncorrB3	1000	n/a	n/a	1
904.1260000000	n/a	904126	STATUS	1700	n/a	n/a	1
905.8260000000	n/a	905826	RewardB3	1392	n/a	n/a	1
908.2930000000	n/a	908293	RewardCorrB3	1000	n/a	n/a	1
910.2930000000	n/a	910293	ignore	1700	n/a	n/a	1
911.9930000000	n/a	911993	PenaltyB3	928	n/a	n/a	1
913.9930000000	n/a	913993	PunCorrB3	1000	n/a	n/a	1
915.9930000000	n/a	915993	STATUS	1700	n/a	n/a	1
917.6930000000	n/a	917693	RewardB3	563	n/a	n/a	0
919.3260000000	n/a	919326	NeuIncorrB3	1000	n/a	n/a	1
921.3260000000	n/a	921326	STATUS	1700	n/a	n/a	1
923.0260000000	n/a	923026	PenaltyB3	1296	n/a	n/a	1
925.3930000000	n/a	925393	NeuCorrB3	1000	n/a	n/a	1
927.3930000000	n/a	927393	STATUS	1700	n/a	n/a	1
929.0930000000	n/a	929093	RewardB3	577	n/a	n/a	1
930.7430000000	n/a	930743	NeuCorrB3	1000	n/a	n/a	1
932.7430000000	n/a	932743	STATUS	1700	n/a	n/a	1
934.4430000000	n/a	934443	PenaltyB3	2261	n/a	n/a	1
937.7760000000	n/a	937776	NeuCorrB3	1000	n/a	n/a	1
939.7760000000	n/a	939776	STATUS	1700	n/a	n/a	1
941.4760000000	n/a	941476	RewardB3	699	n/a	n/a	1
943.2430000000	n/a	943243	RewardCorrB3	1000	n/a	n/a	1
945.2430000000	n/a	945243	ignore	1700	n/a	n/a	1
946.9430000000	n/a	946943	RewardB3	2470	n/a	n/a	0
950.4760000000	n/a	950476	NeuIncorrB3	1000	n/a	n/a	1
952.4760000000	n/a	952476	ignore	1700	n/a	n/a	1
954.1760000000	n/a	954176	RewardB3	680	n/a	n/a	1
955.9260000000	n/a	955926	RewardCorrB3	1000	n/a	n/a	1
957.9260000000	n/a	957926	ignore	1700	n/a	n/a	1
959.6260000000	n/a	959626	PenaltyB3	2858	n/a	n/a	1
963.5600000000	n/a	963560	PunCorrB3	1000	n/a	n/a	1
965.5600000000	n/a	965560	ignore	1700	n/a	n/a	1
967.2600000000	n/a	967260	RewardB3	589	n/a	n/a	1
968.9260000000	n/a	968926	RewardCorrB3	1000	n/a	n/a	1
970.9260000000	n/a	970926	ignore	1700	n/a	n/a	1
972.6260000000	n/a	972626	PenaltyB3	3772	n/a	n/a	0
977.4760000000	n/a	977476	PunIncorrB3	1000	n/a	n/a	1
979.4760000000	n/a	979476	ignore	1700	n/a	n/a	1
981.1760000000	n/a	981176	RewardB3	2701	n/a	n/a	0
984.9430000000	n/a	984943	NeuIncorrB3	1000	n/a	n/a	1
986.9430000000	n/a	986943	ignore	1700	n/a	n/a	1
988.6430000000	n/a	988643	RewardB3	393	n/a	n/a	1
990.1100000000	n/a	990110	RewardCorrB3	1000	n/a	n/a	1
992.1100000000	n/a	992110	ignore	1700	n/a	n/a	1
993.8100000000	n/a	993810	RewardB3	1212	n/a	n/a	1
996.0930000000	n/a	996093	NeuCorrB3	1000	n/a	n/a	1
998.0930000000	n/a	998093	ignore	1700	n/a	n/a	1
999.7930000000	n/a	999793	RewardB3	3318	n/a	n/a	0
1004.1760000000	n/a	1004176	NeuIncorrB3	1000	n/a	n/a	1
1006.1760000000	n/a	1006176	ignore	1700	n/a	n/a	1
1007.8760000000	n/a	1007876	RewardB3	1666	n/a	n/a	0
1010.6100000000	n/a	1010610	NeuIncorrB3	1000	n/a	n/a	1
1012.6100000000	n/a	1012610	ignore	1700	n/a	n/a	1
1014.3100000000	n/a	1014310	PenaltyB3	2700	n/a	n/a	1
1018.0760000000	n/a	1018076	NeuCorrB3	1000	n/a	n/a	1
1020.0760000000	n/a	1020076	ignore	1700	n/a	n/a	1
1021.7760000000	n/a	1021776	RewardB3	924	n/a	n/a	0
1023.7760000000	n/a	1023776	RewIncorrB3	1000	n/a	n/a	1
1025.7760000000	n/a	1025776	ignore	1700	n/a	n/a	1
1027.4760000000	n/a	1027476	PenaltyB3	8010	n/a	n/a	1
1036.5600000000	n/a	1036560	NeuCorrB3	1000	n/a	n/a	1
1038.5600000000	n/a	1038560	ignore	1700	n/a	n/a	1
1040.2600000000	n/a	1040260	PenaltyB3	726	n/a	n/a	1
1042.0600000000	n/a	1042060	NeuCorrB3	1000	n/a	n/a	1
1044.0600000000	n/a	1044060	ignore	1700	n/a	n/a	1
1045.7600000000	n/a	1045760	RewardB3	1516	n/a	n/a	0
1048.3430000000	n/a	1048343	NeuIncorrB3	1000	n/a	n/a	1
1050.3430000000	n/a	1050343	ignore	1700	n/a	n/a	1
1052.0430000000	n/a	1052043	PenaltyB3	6438	n/a	n/a	0
1059.5430000000	n/a	1059543	PunIncorrB3	1000	n/a	n/a	1
1061.5430000000	n/a	1061543	ignore	1700	n/a	n/a	1
1063.2430000000	n/a	1063243	RewardB3	511	n/a	n/a	0
1064.8260000000	n/a	1064826	RewIncorrB3	1000	n/a	n/a	1
1066.8260000000	n/a	1066826	ignore	1700	n/a	n/a	1
1068.5260000000	n/a	1068526	PenaltyB3	4938	n/a	n/a	1
1074.5430000000	n/a	1074543	NeuCorrB3	1000	n/a	n/a	1
1076.5430000000	n/a	1076543	ignore	1700	n/a	n/a	1
1078.2430000000	n/a	1078243	RewardB3	607	n/a	n/a	1
1079.9260000000	n/a	1079926	RewardCorrB3	1000	n/a	n/a	1
1081.9260000000	n/a	1081926	ignore	1700	n/a	n/a	1
1083.6260000000	n/a	1083626	PenaltyB3	9543	n/a	n/a	0
1094.2430000000	n/a	1094243	NeuIncorrB3	1000	n/a	n/a	1
1096.2430000000	n/a	1096243	ignore	1700	n/a	n/a	1
1097.9430000000	n/a	1097943	PenaltyB3	8071	n/a	n/a	1
1107.0760000000	n/a	1107076	NeuCorrB3	1000	n/a	n/a	1
1109.0760000000	n/a	1109076	ignore	1700	n/a	n/a	1
1110.7760000000	n/a	1110776	PenaltyB3	9442	n/a	n/a	1
1121.2930000000	n/a	1121293	NeuCorrB3	1000	n/a	n/a	1
1123.2930000000	n/a	1123293	ignore	1700	n/a	n/a	1
1124.9930000000	n/a	1124993	PenaltyB3	3579	n/a	n/a	0
1129.6430000000	n/a	1129643	PunIncorrB3	1000	n/a	n/a	1
1131.6430000000	n/a	1131643	ignore	1700	n/a	n/a	1
1133.3430000000	n/a	1133343	RewardB3	685	n/a	n/a	1
1135.0930000000	n/a	1135093	RewardCorrB3	1000	n/a	n/a	1
1137.0930000000	n/a	1137093	ignore	1700	n/a	n/a	1
1138.7930000000	n/a	1138793	RewardB3	2070	n/a	n/a	0
1141.9260000000	n/a	1141926	NeuIncorrB3	1000	n/a	n/a	1
1143.9260000000	n/a	1143926	ignore	1700	n/a	n/a	1
1145.6260000000	n/a	1145626	PenaltyB3	2279	n/a	n/a	0
1148.9760000000	n/a	1148976	PunIncorrB3	1000	n/a	n/a	1
1150.9760000000	n/a	1150976	ignore	1700	n/a	n/a	1
1152.6760000000	n/a	1152676	PenaltyB3	1689	n/a	n/a	1
1155.4430000000	n/a	1155443	NeuCorrB3	1000	n/a	n/a	1
1157.4430000000	n/a	1157443	ignore	1700	n/a	n/a	1
1159.1430000000	n/a	1159143	PenaltyB3	2543	n/a	n/a	0
1162.7590000000	n/a	1162759	PunIncorrB3	1000	n/a	n/a	1
1164.7590000000	n/a	1164759	ignore	1700	n/a	n/a	1
1180.9760000000	n/a	1180976	RewardB4	2516	n/a	n/a	0
1184.5590000000	n/a	1184559	NeuIncorrB4	1000	n/a	n/a	1
1186.5590000000	n/a	1186559	ignore	1700	n/a	n/a	1
1188.2590000000	n/a	1188259	PenaltyB4	3061	n/a	n/a	1
1192.3930000000	n/a	1192393	PunCorrB4	1000	n/a	n/a	1
1194.3930000000	n/a	1194393	ignore	1700	n/a	n/a	1
1196.0930000000	n/a	1196093	RewardB4	650	n/a	n/a	1
1197.8090000000	n/a	1197809	RewardCorrB4	1000	n/a	n/a	1
1199.8090000000	n/a	1199809	ignore	1700	n/a	n/a	1
1201.5090000000	n/a	1201509	PenaltyB4	2399	n/a	n/a	1
1204.9760000000	n/a	1204976	NeuCorrB4	1000	n/a	n/a	1
1206.9760000000	n/a	1206976	ignore	1700	n/a	n/a	1
1208.6760000000	n/a	1208676	RewardB4	703	n/a	n/a	0
1210.4430000000	n/a	1210443	NeuIncorrB4	1000	n/a	n/a	1
1212.4430000000	n/a	1212443	ignore	1700	n/a	n/a	1
1214.1430000000	n/a	1214143	PenaltyB4	3085	n/a	n/a	0
1218.2930000000	n/a	1218293	NeuIncorrB4	1000	n/a	n/a	1
1220.2930000000	n/a	1220293	ignore	1700	n/a	n/a	1
1221.9930000000	n/a	1221993	PenaltyB4	5455	n/a	n/a	0
1228.5260000000	n/a	1228526	PunIncorrB4	1000	n/a	n/a	1
1230.5260000000	n/a	1230526	ignore	1700	n/a	n/a	1
1232.2260000000	n/a	1232226	RewardB4	775	n/a	n/a	1
1234.0760000000	n/a	1234076	RewardCorrB4	1000	n/a	n/a	1
1236.0760000000	n/a	1236076	ignore	1700	n/a	n/a	1
1237.7760000000	n/a	1237776	PenaltyB4	2010	n/a	n/a	0
1240.8590000000	n/a	1240859	PunIncorrB4	1000	n/a	n/a	1
1242.8590000000	n/a	1242859	ignore	1700	n/a	n/a	1
1244.5590000000	n/a	1244559	RewardB4	533	n/a	n/a	0
1246.1590000000	n/a	1246159	RewIncorrB4	1000	n/a	n/a	1
1248.1590000000	n/a	1248159	ignore	1700	n/a	n/a	1
1249.8590000000	n/a	1249859	PenaltyB4	2541	n/a	n/a	1
1253.4760000000	n/a	1253476	NeuCorrB4	1000	n/a	n/a	1
1255.4760000000	n/a	1255476	ignore	1700	n/a	n/a	1
1257.1760000000	n/a	1257176	RewardB4	688	n/a	n/a	1
1258.9260000000	n/a	1258926	RewardCorrB4	1000	n/a	n/a	1
1260.9260000000	n/a	1260926	ignore	1700	n/a	n/a	1
1262.6260000000	n/a	1262626	PenaltyB4	2275	n/a	n/a	1
1265.9760000000	n/a	1265976	NeuCorrB4	1000	n/a	n/a	1
1267.9760000000	n/a	1267976	ignore	1700	n/a	n/a	1
1269.6760000000	n/a	1269676	PenaltyB4	8061	n/a	n/a	0
1278.8090000000	n/a	1278809	PunIncorrB4	1000	n/a	n/a	1
1280.8090000000	n/a	1280809	ignore	1700	n/a	n/a	1
1282.5090000000	n/a	1282509	RewardB4	2280	n/a	n/a	0
1285.8590000000	n/a	1285859	NeuIncorrB4	1000	n/a	n/a	1
1287.8590000000	n/a	1287859	ignore	1700	n/a	n/a	1
1289.5590000000	n/a	1289559	RewardB4	3783	n/a	n/a	0
1294.4090000000	n/a	1294409	RewIncorrB4	1000	n/a	n/a	1
1296.4090000000	n/a	1296409	ignore	1700	n/a	n/a	1
1298.1090000000	n/a	1298109	RewardB4	1053	n/a	n/a	1
1300.2260000000	n/a	1300226	RewardCorrB4	1000	n/a	n/a	1
1302.2260000000	n/a	1302226	ignore	1700	n/a	n/a	1
1303.9260000000	n/a	1303926	PenaltyB4	4205	n/a	n/a	0
1309.2090000000	n/a	1309209	PunIncorrB4	1000	n/a	n/a	1
1311.2090000000	n/a	1311209	ignore	1700	n/a	n/a	1
1312.9090000000	n/a	1312909	PenaltyB4	3040	n/a	n/a	0
1317.0260000000	n/a	1317026	PunIncorrB4	1000	n/a	n/a	1
1319.0260000000	n/a	1319026	ignore	1700	n/a	n/a	1
1320.7260000000	n/a	1320726	PenaltyB4	6990	n/a	n/a	1
1328.7930000000	n/a	1328793	PunCorrB4	1000	n/a	n/a	1
1330.7930000000	n/a	1330793	ignore	1700	n/a	n/a	1
1332.4920000000	n/a	1332492	RewardB4	633	n/a	n/a	0
1334.1920000000	n/a	1334192	NeuIncorrB4	1000	n/a	n/a	1
1336.1930000000	n/a	1336193	ignore	1700	n/a	n/a	1
1337.8920000000	n/a	1337892	PenaltyB4	3833	n/a	n/a	0
1342.7920000000	n/a	1342792	PunIncorrB4	1000	n/a	n/a	1
1344.7930000000	n/a	1344793	STATUS	1700	n/a	n/a	1
1346.4920000000	n/a	1346492	RewardB4	423	n/a	n/a	1
1347.9920000000	n/a	1347992	RewardCorrB4	1000	n/a	n/a	1
1349.9930000000	n/a	1349993	ignore	1700	n/a	n/a	1
1351.6920000000	n/a	1351692	PenaltyB4	589	n/a	n/a	0
1353.3590000000	n/a	1353359	PunIncorrB4	1000	n/a	n/a	1
1355.3590000000	n/a	1355359	STATUS	1700	n/a	n/a	1
1357.0590000000	n/a	1357059	RewardB4	1383	n/a	n/a	1
1359.5090000000	n/a	1359509	NeuCorrB4	1000	n/a	n/a	1
1361.5090000000	n/a	1361509	STATUS	1700	n/a	n/a	1
1363.2090000000	n/a	1363209	PenaltyB4	3114	n/a	n/a	0
1367.3920000000	n/a	1367392	PunIncorrB4	1000	n/a	n/a	1
1369.3930000000	n/a	1369393	STATUS	1700	n/a	n/a	1
1371.0920000000	n/a	1371092	RewardB4	533	n/a	n/a	1
1372.6920000000	n/a	1372692	RewardCorrB4	1000	n/a	n/a	1
1374.6930000000	n/a	1374693	STATUS	1700	n/a	n/a	1
1376.3920000000	n/a	1376392	PenaltyB4	8886	n/a	n/a	1
1386.3420000000	n/a	1386342	NeuCorrB4	1000	n/a	n/a	1
1388.3420000000	n/a	1388342	STATUS	1700	n/a	n/a	1
1390.0420000000	n/a	1390042	RewardB4	2475	n/a	n/a	0
1393.5920000000	n/a	1393592	NeuIncorrB4	1000	n/a	n/a	1
1395.5920000000	n/a	1395592	STATUS	1700	n/a	n/a	1
1397.2920000000	n/a	1397292	PenaltyB4	1807	n/a	n/a	1
1400.1760000000	n/a	1400176	PunCorrB4	1000	n/a	n/a	1
1402.1760000000	n/a	1402176	STATUS	1700	n/a	n/a	1
1403.8760000000	n/a	1403876	RewardB4	772	n/a	n/a	0
1405.7260000000	n/a	1405726	NeuIncorrB4	1000	n/a	n/a	1
1407.7260000000	n/a	1407726	STATUS	1700	n/a	n/a	1
1409.4260000000	n/a	1409426	PenaltyB4	9656	n/a	n/a	0
1420.1590000000	n/a	1420159	PunIncorrB4	1000	n/a	n/a	1
1422.1590000000	n/a	1422159	STATUS	1700	n/a	n/a	1
1423.8590000000	n/a	1423859	RewardB4	484	n/a	n/a	1
1425.4090000000	n/a	1425409	RewardCorrB4	1000	n/a	n/a	1
1427.4090000000	n/a	1427409	STATUS	1700	n/a	n/a	1
1429.1090000000	n/a	1429109	PenaltyB4	4166	n/a	n/a	0
1434.3420000000	n/a	1434342	PunIncorrB4	1000	n/a	n/a	1
1436.3420000000	n/a	1436342	STATUS	1700	n/a	n/a	1
1438.0420000000	n/a	1438042	RewardB4	551	n/a	n/a	1
1439.6590000000	n/a	1439659	RewardCorrB4	1000	n/a	n/a	1
1441.6590000000	n/a	1441659	STATUS	1700	n/a	n/a	1
1443.3590000000	n/a	1443359	PenaltyB4	3328	n/a	n/a	0
1447.7590000000	n/a	1447759	PunIncorrB4	1000	n/a	n/a	1
1449.7590000000	n/a	1449759	STATUS	1700	n/a	n/a	1
1451.4590000000	n/a	1451459	RewardB4	513	n/a	n/a	1
1453.0420000000	n/a	1453042	NeuCorrB4	1000	n/a	n/a	1
1455.0420000000	n/a	1455042	STATUS	1700	n/a	n/a	1
1456.7420000000	n/a	1456742	RewardB4	481	n/a	n/a	0
1458.2920000000	n/a	1458292	NeuIncorrB4	1000	n/a	n/a	1
1460.2920000000	n/a	1460292	STATUS	1700	n/a	n/a	1
1461.9920000000	n/a	1461992	PenaltyB4	6351	n/a	n/a	0
1469.4090000000	n/a	1469409	PunIncorrB4	1000	n/a	n/a	1
1471.4090000000	n/a	1471409	STATUS	1700	n/a	n/a	1
1473.1090000000	n/a	1473109	RewardB4	584	n/a	n/a	0
1474.7590000000	n/a	1474759	NeuIncorrB4	1000	n/a	n/a	1
1476.7590000000	n/a	1476759	STATUS	1700	n/a	n/a	1
1482.7590000000	n/a	1482759	STATUS	1700	n/a	n/a	1
