onset	duration	sample	trial_type	response_time	stim_file	value	correct
4.8270000000	n/a	4827	FrequentFixedSOA	1633	n/a	n/a	1
6.4600000000	n/a	6460	FrequentFixedSOA	1633	n/a	n/a	1
8.0940000000	n/a	8094	FrequentFixedSOA	1633	n/a	n/a	1
9.7270000000	n/a	9727	FrequentFixedSOA	1633	n/a	n/a	1
11.3600000000	n/a	11360	FrequentFixedSOA	1633	n/a	n/a	1
12.9940000000	n/a	12994	FrequentFixedSOA	1633	n/a	n/a	1
14.6270000000	n/a	14627	FrequentFixedSOA	1633	n/a	n/a	1
16.2600000000	n/a	16260	FrequentFixedSOA	1633	n/a	n/a	1
17.8940000000	n/a	17894	FrequentFixedSOA	1633	n/a	n/a	1
19.5270000000	n/a	19527	FrequentFixedSOA	1633	n/a	n/a	1
21.1600000000	n/a	21160	NovelFixedSOA	1633	n/a	n/a	1
22.7940000000	n/a	22794	FrequentFixedSOA	1633	n/a	n/a	1
24.4270000000	n/a	24427	GoFixedSOA	549	n/a	n/a	1
26.0600000000	n/a	26060	FrequentFixedSOA	1633	n/a	n/a	1
27.6940000000	n/a	27694	FrequentFixedSOA	1633	n/a	n/a	1
29.3270000000	n/a	29327	FrequentFixedSOA	1633	n/a	n/a	1
30.9600000000	n/a	30960	GoFixedSOA	471	n/a	n/a	1
32.5940000000	n/a	32594	FrequentFixedSOA	1633	n/a	n/a	1
34.2270000000	n/a	34227	FrequentFixedSOA	1633	n/a	n/a	1
35.8600000000	n/a	35860	FrequentFixedSOA	1633	n/a	n/a	1
37.4940000000	n/a	37494	NovelFixedSOA	1633	n/a	n/a	1
39.1270000000	n/a	39127	FrequentFixedSOA	1633	n/a	n/a	1
40.7600000000	n/a	40760	FrequentFixedSOA	1633	n/a	n/a	1
42.3940000000	n/a	42394	FrequentFixedSOA	1633	n/a	n/a	1
44.0270000000	n/a	44027	GoFixedSOA	365	n/a	n/a	1
45.6600000000	n/a	45660	FrequentFixedSOA	1633	n/a	n/a	1
47.2940000000	n/a	47294	NovelFixedSOA	1633	n/a	n/a	1
48.9270000000	n/a	48927	FrequentFixedSOA	1633	n/a	n/a	1
50.5600000000	n/a	50560	FrequentFixedSOA	1633	n/a	n/a	1
52.1930000000	n/a	52193	FrequentFixedSOA	1633	n/a	n/a	1
53.8270000000	n/a	53827	GoFixedSOA	405	n/a	n/a	1
55.4600000000	n/a	55460	FrequentFixedSOA	1633	n/a	n/a	1
57.0930000000	n/a	57093	GoFixedSOA	405	n/a	n/a	1
58.7270000000	n/a	58727	FrequentFixedSOA	1633	n/a	n/a	1
60.3600000000	n/a	60360	FrequentFixedSOA	1633	n/a	n/a	1
61.9930000000	n/a	61993	GoFixedSOA	425	n/a	n/a	1
63.6270000000	n/a	63627	FrequentFixedSOA	1633	n/a	n/a	1
65.2600000000	n/a	65260	FrequentFixedSOA	1633	n/a	n/a	1
66.8930000000	n/a	66893	FrequentFixedSOA	1633	n/a	n/a	1
68.5270000000	n/a	68527	FrequentFixedSOA	1633	n/a	n/a	1
70.1600000000	n/a	70160	NovelFixedSOA	1633	n/a	n/a	1
71.7930000000	n/a	71793	FrequentFixedSOA	1633	n/a	n/a	1
73.4270000000	n/a	73427	NovelFixedSOA	1633	n/a	n/a	1
75.0600000000	n/a	75060	FrequentFixedSOA	1633	n/a	n/a	1
76.6930000000	n/a	76693	FrequentFixedSOA	1633	n/a	n/a	1
78.3270000000	n/a	78327	GoFixedSOA	427	n/a	n/a	1
79.9600000000	n/a	79960	FrequentFixedSOA	1633	n/a	n/a	1
81.5930000000	n/a	81593	FrequentFixedSOA	1633	n/a	n/a	1
83.2270000000	n/a	83227	FrequentFixedSOA	1633	n/a	n/a	1
84.8600000000	n/a	84860	FrequentFixedSOA	1633	n/a	n/a	1
86.4930000000	n/a	86493	NovelFixedSOA	1633	n/a	n/a	1
88.1270000000	n/a	88127	FrequentFixedSOA	1633	n/a	n/a	1
89.7600000000	n/a	89760	FrequentFixedSOA	1633	n/a	n/a	1
91.3930000000	n/a	91393	FrequentFixedSOA	1633	n/a	n/a	1
93.0270000000	n/a	93027	FrequentFixedSOA	1633	n/a	n/a	1
94.6600000000	n/a	94660	GoFixedSOA	503	n/a	n/a	1
96.2930000000	n/a	96293	FrequentFixedSOA	1633	n/a	n/a	1
97.9270000000	n/a	97927	FrequentFixedSOA	1633	n/a	n/a	1
99.5600000000	n/a	99560	NovelFixedSOA	1633	n/a	n/a	1
101.1930000000	n/a	101193	FrequentFixedSOA	1633	n/a	n/a	1
102.8270000000	n/a	102827	FrequentFixedSOA	1633	n/a	n/a	1
104.4600000000	n/a	104460	GoFixedSOA	315	n/a	n/a	1
106.0930000000	n/a	106093	FrequentFixedSOA	1633	n/a	n/a	1
107.7270000000	n/a	107727	FrequentFixedSOA	1633	n/a	n/a	1
109.3600000000	n/a	109360	FrequentFixedSOA	1633	n/a	n/a	1
110.9930000000	n/a	110993	FrequentFixedSOA	1633	n/a	n/a	1
112.6270000000	n/a	112627	NovelFixedSOA	1633	n/a	n/a	1
114.2600000000	n/a	114260	FrequentFixedSOA	1633	n/a	n/a	1
115.8930000000	n/a	115893	FrequentFixedSOA	1633	n/a	n/a	1
117.5270000000	n/a	117527	GoFixedSOA	321	n/a	n/a	1
119.1600000000	n/a	119160	FrequentVariableSOA	1566	n/a	n/a	1
120.7270000000	n/a	120727	FrequentVariableSOA	1783	n/a	n/a	1
122.5100000000	n/a	122510	FrequentVariableSOA	1766	n/a	n/a	1
124.2770000000	n/a	124277	FrequentVariableSOA	1516	n/a	n/a	1
125.7930000000	n/a	125793	FrequentVariableSOA	1700	n/a	n/a	1
127.4930000000	n/a	127493	FrequentVariableSOA	1650	n/a	n/a	1
129.1430000000	n/a	129143	FrequentVariableSOA	1550	n/a	n/a	1
130.6930000000	n/a	130693	FrequentVariableSOA	1516	n/a	n/a	1
132.2100000000	n/a	132210	FrequentVariableSOA	1633	n/a	n/a	1
133.8430000000	n/a	133843	FrequentVariableSOA	1633	n/a	n/a	1
135.4770000000	n/a	135477	NovelVariableSOA	1550	n/a	n/a	1
137.0270000000	n/a	137027	FrequentVariableSOA	1583	n/a	n/a	1
138.6100000000	n/a	138610	GoVariableSOA	357	n/a	n/a	1
140.1770000000	n/a	140177	FrequentVariableSOA	1716	n/a	n/a	1
141.8930000000	n/a	141893	FrequentVariableSOA	1566	n/a	n/a	1
143.4600000000	n/a	143460	FrequentVariableSOA	1633	n/a	n/a	1
145.0930000000	n/a	145093	GoVariableSOA	673	n/a	n/a	1
146.8600000000	n/a	146860	FrequentVariableSOA	1666	n/a	n/a	1
148.5270000000	n/a	148527	FrequentVariableSOA	1666	n/a	n/a	1
150.1930000000	n/a	150193	FrequentVariableSOA	1700	n/a	n/a	1
151.8930000000	n/a	151893	NovelVariableSOA	1666	n/a	n/a	1
153.5600000000	n/a	153560	FrequentVariableSOA	1583	n/a	n/a	1
155.1430000000	n/a	155143	FrequentVariableSOA	1583	n/a	n/a	1
156.7270000000	n/a	156727	FrequentVariableSOA	1550	n/a	n/a	1
158.2770000000	n/a	158277	GoVariableSOA	571	n/a	n/a	1
159.9430000000	n/a	159943	FrequentVariableSOA	1533	n/a	n/a	1
161.4770000000	n/a	161477	NovelVariableSOA	1650	n/a	n/a	1
163.1270000000	n/a	163127	FrequentVariableSOA	1516	n/a	n/a	1
164.6430000000	n/a	164643	FrequentVariableSOA	1766	n/a	n/a	1
166.4100000000	n/a	166410	FrequentVariableSOA	1533	n/a	n/a	1
167.9430000000	n/a	167943	GoVariableSOA	720	n/a	n/a	1
169.7100000000	n/a	169710	FrequentVariableSOA	1683	n/a	n/a	1
171.3930000000	n/a	171393	GoVariableSOA	796	n/a	n/a	1
173.1270000000	n/a	173127	FrequentVariableSOA	1550	n/a	n/a	1
174.6770000000	n/a	174677	FrequentVariableSOA	1500	n/a	n/a	1
176.1770000000	n/a	176177	GoVariableSOA	377	n/a	n/a	1
177.9270000000	n/a	177927	FrequentVariableSOA	1516	n/a	n/a	1
179.4430000000	n/a	179443	FrequentVariableSOA	1633	n/a	n/a	1
181.0770000000	n/a	181077	FrequentVariableSOA	1666	n/a	n/a	1
182.7430000000	n/a	182743	FrequentVariableSOA	1683	n/a	n/a	1
184.4270000000	n/a	184427	NovelVariableSOA	1683	n/a	n/a	1
186.1100000000	n/a	186110	FrequentVariableSOA	1566	n/a	n/a	1
187.6770000000	n/a	187677	NovelVariableSOA	1683	n/a	n/a	1
189.3600000000	n/a	189360	FrequentVariableSOA	1766	n/a	n/a	1
191.1270000000	n/a	191127	FrequentVariableSOA	1633	n/a	n/a	1
192.7600000000	n/a	192760	GoVariableSOA	435	n/a	n/a	1
194.4930000000	n/a	194493	FrequentVariableSOA	1750	n/a	n/a	1
196.2430000000	n/a	196243	FrequentVariableSOA	1650	n/a	n/a	1
197.8930000000	n/a	197893	FrequentVariableSOA	1766	n/a	n/a	1
199.6600000000	n/a	199660	FrequentVariableSOA	1533	n/a	n/a	1
201.1930000000	n/a	201193	NovelVariableSOA	1583	n/a	n/a	1
202.7770000000	n/a	202777	FrequentVariableSOA	1516	n/a	n/a	1
204.2930000000	n/a	204293	FrequentVariableSOA	1516	n/a	n/a	1
205.8100000000	n/a	205810	FrequentVariableSOA	1566	n/a	n/a	1
207.3770000000	n/a	207377	FrequentVariableSOA	1500	n/a	n/a	1
208.8770000000	n/a	208877	GoVariableSOA	426	n/a	n/a	1
210.5100000000	n/a	210510	FrequentVariableSOA	1766	n/a	n/a	1
212.2770000000	n/a	212277	FrequentVariableSOA	1650	n/a	n/a	1
213.9270000000	n/a	213927	NovelVariableSOA	1700	n/a	n/a	1
215.6270000000	n/a	215627	FrequentVariableSOA	1566	n/a	n/a	1
217.1930000000	n/a	217193	FrequentVariableSOA	1666	n/a	n/a	1
218.8600000000	n/a	218860	GoVariableSOA	398	n/a	n/a	1
220.5430000000	n/a	220543	FrequentVariableSOA	1800	n/a	n/a	1
222.3430000000	n/a	222343	FrequentVariableSOA	1766	n/a	n/a	1
224.1100000000	n/a	224110	FrequentVariableSOA	1533	n/a	n/a	1
225.6430000000	n/a	225643	FrequentVariableSOA	1716	n/a	n/a	1
227.3600000000	n/a	227360	NovelVariableSOA	1550	n/a	n/a	1
228.9100000000	n/a	228910	FrequentVariableSOA	1766	n/a	n/a	1
230.6770000000	n/a	230677	FrequentVariableSOA	1716	n/a	n/a	1
232.3930000000	n/a	232393	GoVariableSOA	277	n/a	n/a	1
233.9100000000	n/a	233910	FrequentFixedSOA	1633	n/a	n/a	1
235.5430000000	n/a	235543	FrequentFixedSOA	1633	n/a	n/a	1
237.1760000000	n/a	237176	FrequentFixedSOA	1633	n/a	n/a	1
238.8100000000	n/a	238810	GoFixedSOA	401	n/a	n/a	1
240.4430000000	n/a	240443	FrequentFixedSOA	1633	n/a	n/a	1
242.0760000000	n/a	242076	FrequentFixedSOA	1633	n/a	n/a	1
243.7100000000	n/a	243710	FrequentFixedSOA	1633	n/a	n/a	1
245.3430000000	n/a	245343	GoFixedSOA	399	n/a	n/a	1
246.9760000000	n/a	246976	FrequentFixedSOA	1633	n/a	n/a	1
248.6100000000	n/a	248610	FrequentFixedSOA	1633	n/a	n/a	1
250.2430000000	n/a	250243	FrequentFixedSOA	1633	n/a	n/a	1
251.8760000000	n/a	251876	NovelFixedSOA	1633	n/a	n/a	1
253.5100000000	n/a	253510	FrequentFixedSOA	1633	n/a	n/a	1
255.1430000000	n/a	255143	NovelFixedSOA	1633	n/a	n/a	1
256.7760000000	n/a	256776	FrequentFixedSOA	1633	n/a	n/a	1
258.4100000000	n/a	258410	FrequentFixedSOA	1633	n/a	n/a	1
260.0430000000	n/a	260043	NovelFixedSOA	1633	n/a	n/a	1
261.6760000000	n/a	261676	FrequentFixedSOA	1633	n/a	n/a	1
263.3100000000	n/a	263310	FrequentFixedSOA	1633	n/a	n/a	1
264.9430000000	n/a	264943	FrequentFixedSOA	1633	n/a	n/a	1
266.5760000000	n/a	266576	FrequentFixedSOA	1633	n/a	n/a	1
268.2100000000	n/a	268210	FrequentFixedSOA	1633	n/a	n/a	1
269.8430000000	n/a	269843	NovelFixedSOA	1633	n/a	n/a	1
271.4760000000	n/a	271476	FrequentFixedSOA	1633	n/a	n/a	1
273.1100000000	n/a	273110	FrequentFixedSOA	1633	n/a	n/a	1
274.7430000000	n/a	274743	FrequentFixedSOA	1633	n/a	n/a	1
276.3760000000	n/a	276376	FrequentFixedSOA	1633	n/a	n/a	1
278.0100000000	n/a	278010	FrequentFixedSOA	1633	n/a	n/a	1
279.6430000000	n/a	279643	GoFixedSOA	699	n/a	n/a	1
281.2760000000	n/a	281276	FrequentFixedSOA	1633	n/a	n/a	1
282.9100000000	n/a	282910	FrequentFixedSOA	1633	n/a	n/a	1
284.5430000000	n/a	284543	GoFixedSOA	1633	n/a	n/a	0
286.1760000000	n/a	286176	FrequentFixedSOA	1633	n/a	n/a	1
287.8100000000	n/a	287810	NovelFixedSOA	1633	n/a	n/a	1
289.4430000000	n/a	289443	FrequentFixedSOA	1633	n/a	n/a	1
291.0760000000	n/a	291076	GoFixedSOA	394	n/a	n/a	1
292.7100000000	n/a	292710	FrequentFixedSOA	1633	n/a	n/a	1
294.3430000000	n/a	294343	GoFixedSOA	344	n/a	n/a	1
295.9760000000	n/a	295976	FrequentFixedSOA	1633	n/a	n/a	1
297.6100000000	n/a	297610	FrequentFixedSOA	1633	n/a	n/a	1
299.2430000000	n/a	299243	FrequentFixedSOA	1633	n/a	n/a	1
300.8760000000	n/a	300876	FrequentFixedSOA	1633	n/a	n/a	1
302.5100000000	n/a	302510	GoFixedSOA	462	n/a	n/a	1
304.1430000000	n/a	304143	FrequentFixedSOA	1633	n/a	n/a	1
305.7760000000	n/a	305776	FrequentFixedSOA	1633	n/a	n/a	1
307.4100000000	n/a	307410	FrequentFixedSOA	1633	n/a	n/a	1
309.0430000000	n/a	309043	NovelFixedSOA	1633	n/a	n/a	1
310.6760000000	n/a	310676	FrequentFixedSOA	1633	n/a	n/a	1
312.3100000000	n/a	312310	FrequentFixedSOA	1633	n/a	n/a	1
313.9430000000	n/a	313943	FrequentFixedSOA	1633	n/a	n/a	1
315.5760000000	n/a	315576	FrequentFixedSOA	1633	n/a	n/a	1
317.2100000000	n/a	317210	NovelFixedSOA	1633	n/a	n/a	1
318.8430000000	n/a	318843	FrequentFixedSOA	1633	n/a	n/a	1
320.4760000000	n/a	320476	FrequentFixedSOA	1633	n/a	n/a	1
322.1100000000	n/a	322110	FrequentFixedSOA	1633	n/a	n/a	1
323.7430000000	n/a	323743	FrequentFixedSOA	1633	n/a	n/a	1
325.3760000000	n/a	325376	NovelFixedSOA	1633	n/a	n/a	1
327.0100000000	n/a	327010	FrequentFixedSOA	1633	n/a	n/a	1
328.6430000000	n/a	328643	FrequentFixedSOA	1633	n/a	n/a	1
330.2760000000	n/a	330276	GoFixedSOA	390	n/a	n/a	1
331.9100000000	n/a	331910	FrequentFixedSOA	1633	n/a	n/a	1
333.5430000000	n/a	333543	FrequentFixedSOA	1633	n/a	n/a	1
335.1760000000	n/a	335176	FrequentFixedSOA	1633	n/a	n/a	1
336.8100000000	n/a	336810	FrequentFixedSOA	1633	n/a	n/a	1
338.4430000000	n/a	338443	NovelFixedSOA	1633	n/a	n/a	1
340.0760000000	n/a	340076	FrequentFixedSOA	1633	n/a	n/a	1
341.7100000000	n/a	341710	FrequentFixedSOA	1633	n/a	n/a	1
343.3430000000	n/a	343343	FrequentFixedSOA	1633	n/a	n/a	1
344.9760000000	n/a	344976	FrequentFixedSOA	1633	n/a	n/a	1
346.6100000000	n/a	346610	FrequentFixedSOA	1633	n/a	n/a	1
348.2430000000	n/a	348243	FrequentVariableSOA	1600	n/a	n/a	1
349.8430000000	n/a	349843	FrequentVariableSOA	1550	n/a	n/a	1
351.3930000000	n/a	351393	FrequentVariableSOA	1750	n/a	n/a	1
353.1430000000	n/a	353143	GoVariableSOA	449	n/a	n/a	1
354.8760000000	n/a	354876	FrequentVariableSOA	1650	n/a	n/a	1
356.5260000000	n/a	356526	FrequentVariableSOA	1500	n/a	n/a	1
358.0260000000	n/a	358026	FrequentVariableSOA	1716	n/a	n/a	1
359.7430000000	n/a	359743	GoVariableSOA	423	n/a	n/a	1
361.3100000000	n/a	361310	FrequentVariableSOA	1700	n/a	n/a	1
363.0100000000	n/a	363010	FrequentVariableSOA	1500	n/a	n/a	1
364.5100000000	n/a	364510	FrequentVariableSOA	1783	n/a	n/a	1
366.2930000000	n/a	366293	NovelVariableSOA	1633	n/a	n/a	1
367.9260000000	n/a	367926	FrequentVariableSOA	1566	n/a	n/a	1
369.4930000000	n/a	369493	NovelVariableSOA	1600	n/a	n/a	1
371.0930000000	n/a	371093	FrequentVariableSOA	1716	n/a	n/a	1
372.8100000000	n/a	372810	FrequentVariableSOA	1566	n/a	n/a	1
374.3760000000	n/a	374376	NovelVariableSOA	1700	n/a	n/a	1
376.0760000000	n/a	376076	FrequentVariableSOA	1650	n/a	n/a	1
377.7260000000	n/a	377726	FrequentVariableSOA	1666	n/a	n/a	1
379.3930000000	n/a	379393	FrequentVariableSOA	1666	n/a	n/a	1
381.0600000000	n/a	381060	FrequentVariableSOA	1500	n/a	n/a	1
382.5600000000	n/a	382560	FrequentVariableSOA	1700	n/a	n/a	1
384.2600000000	n/a	384260	NovelVariableSOA	1616	n/a	n/a	1
385.8760000000	n/a	385876	FrequentVariableSOA	1566	n/a	n/a	1
387.4430000000	n/a	387443	FrequentVariableSOA	1766	n/a	n/a	1
389.2100000000	n/a	389210	FrequentVariableSOA	1783	n/a	n/a	1
390.9930000000	n/a	390993	FrequentVariableSOA	1533	n/a	n/a	1
392.5260000000	n/a	392526	FrequentVariableSOA	1516	n/a	n/a	1
394.0430000000	n/a	394043	GoVariableSOA	392	n/a	n/a	1
395.8260000000	n/a	395826	FrequentVariableSOA	1666	n/a	n/a	1
397.4930000000	n/a	397493	FrequentVariableSOA	1516	n/a	n/a	1
399.0100000000	n/a	399010	GoVariableSOA	427	n/a	n/a	1
400.6260000000	n/a	400626	FrequentVariableSOA	1766	n/a	n/a	1
402.3930000000	n/a	402393	NovelVariableSOA	1800	n/a	n/a	1
404.1930000000	n/a	404193	FrequentVariableSOA	1666	n/a	n/a	1
405.8600000000	n/a	405860	GoVariableSOA	544	n/a	n/a	1
407.5930000000	n/a	407593	FrequentVariableSOA	1783	n/a	n/a	1
409.3760000000	n/a	409376	GoVariableSOA	1683	n/a	n/a	0
411.0590000000	n/a	411059	FrequentVariableSOA	1550	n/a	n/a	1
412.6090000000	n/a	412609	FrequentVariableSOA	1783	n/a	n/a	1
414.3930000000	n/a	414393	FrequentVariableSOA	1633	n/a	n/a	1
416.0260000000	n/a	416026	FrequentVariableSOA	1683	n/a	n/a	1
417.7090000000	n/a	417709	GoVariableSOA	1616	n/a	n/a	0
419.3260000000	n/a	419326	FrequentVariableSOA	1733	n/a	n/a	1
421.0590000000	n/a	421059	FrequentVariableSOA	1516	n/a	n/a	1
422.5760000000	n/a	422576	FrequentVariableSOA	1666	n/a	n/a	1
424.2430000000	n/a	424243	NovelVariableSOA	1700	n/a	n/a	1
425.9430000000	n/a	425943	FrequentVariableSOA	1566	n/a	n/a	1
427.5090000000	n/a	427509	FrequentVariableSOA	1750	n/a	n/a	1
429.2590000000	n/a	429259	FrequentVariableSOA	1683	n/a	n/a	1
430.9430000000	n/a	430943	FrequentVariableSOA	1516	n/a	n/a	1
432.4590000000	n/a	432459	NovelVariableSOA	1566	n/a	n/a	1
434.0260000000	n/a	434026	FrequentVariableSOA	1583	n/a	n/a	1
435.6090000000	n/a	435609	FrequentVariableSOA	1733	n/a	n/a	1
437.3430000000	n/a	437343	FrequentVariableSOA	1750	n/a	n/a	1
439.0930000000	n/a	439093	FrequentVariableSOA	1516	n/a	n/a	1
440.6090000000	n/a	440609	NovelVariableSOA	1550	n/a	n/a	1
442.1590000000	n/a	442159	FrequentVariableSOA	1783	n/a	n/a	1
443.9430000000	n/a	443943	FrequentVariableSOA	1700	n/a	n/a	1
445.6430000000	n/a	445643	GoVariableSOA	387	n/a	n/a	1
447.1760000000	n/a	447176	FrequentVariableSOA	1566	n/a	n/a	1
448.7430000000	n/a	448743	FrequentVariableSOA	1683	n/a	n/a	1
450.4260000000	n/a	450426	FrequentVariableSOA	1783	n/a	n/a	1
452.2090000000	n/a	452209	FrequentVariableSOA	1550	n/a	n/a	1
453.7590000000	n/a	453759	NovelVariableSOA	1566	n/a	n/a	1
455.3260000000	n/a	455326	FrequentVariableSOA	1616	n/a	n/a	1
456.9430000000	n/a	456943	FrequentVariableSOA	1550	n/a	n/a	1
458.4930000000	n/a	458493	FrequentVariableSOA	1583	n/a	n/a	1
460.0760000000	n/a	460076	FrequentVariableSOA	1550	n/a	n/a	1
461.6260000000	n/a	461626	FrequentVariableSOA	1583	n/a	n/a	1
463.2090000000	n/a	463209	GoFixedSOA	421	n/a	n/a	1
464.8430000000	n/a	464843	FrequentFixedSOA	1633	n/a	n/a	1
466.4760000000	n/a	466476	FrequentFixedSOA	1633	n/a	n/a	1
468.1090000000	n/a	468109	FrequentFixedSOA	1633	n/a	n/a	1
469.7430000000	n/a	469743	FrequentFixedSOA	1633	n/a	n/a	1
471.3760000000	n/a	471376	FrequentFixedSOA	1633	n/a	n/a	1
473.0090000000	n/a	473009	FrequentFixedSOA	1633	n/a	n/a	1
474.6430000000	n/a	474643	NovelFixedSOA	1633	n/a	n/a	1
476.2760000000	n/a	476276	FrequentFixedSOA	1633	n/a	n/a	1
477.9090000000	n/a	477909	FrequentFixedSOA	1633	n/a	n/a	1
479.5430000000	n/a	479543	FrequentFixedSOA	1633	n/a	n/a	1
481.1760000000	n/a	481176	NovelFixedSOA	1633	n/a	n/a	1
482.8090000000	n/a	482809	FrequentFixedSOA	1633	n/a	n/a	1
484.4430000000	n/a	484443	GoFixedSOA	679	n/a	n/a	1
486.0760000000	n/a	486076	FrequentFixedSOA	1633	n/a	n/a	1
487.7090000000	n/a	487709	FrequentFixedSOA	1633	n/a	n/a	1
489.3430000000	n/a	489343	GoFixedSOA	552	n/a	n/a	1
490.9760000000	n/a	490976	FrequentFixedSOA	1633	n/a	n/a	1
492.6090000000	n/a	492609	NovelFixedSOA	1633	n/a	n/a	1
494.2430000000	n/a	494243	FrequentFixedSOA	1633	n/a	n/a	1
495.8760000000	n/a	495876	FrequentFixedSOA	1633	n/a	n/a	1
497.5090000000	n/a	497509	FrequentFixedSOA	1633	n/a	n/a	1
499.1430000000	n/a	499143	FrequentFixedSOA	1633	n/a	n/a	1
500.7760000000	n/a	500776	FrequentFixedSOA	1633	n/a	n/a	1
502.4090000000	n/a	502409	GoFixedSOA	486	n/a	n/a	1
504.0430000000	n/a	504043	FrequentFixedSOA	1633	n/a	n/a	1
505.6760000000	n/a	505676	FrequentFixedSOA	1633	n/a	n/a	1
507.3090000000	n/a	507309	NovelFixedSOA	1633	n/a	n/a	1
508.9430000000	n/a	508943	FrequentFixedSOA	1633	n/a	n/a	1
510.5760000000	n/a	510576	FrequentFixedSOA	1633	n/a	n/a	1
512.2090000000	n/a	512209	FrequentFixedSOA	1633	n/a	n/a	1
513.8430000000	n/a	513843	FrequentFixedSOA	1633	n/a	n/a	1
515.4760000000	n/a	515476	FrequentFixedSOA	1633	n/a	n/a	1
517.1090000000	n/a	517109	NovelFixedSOA	1633	n/a	n/a	1
518.7430000000	n/a	518743	FrequentFixedSOA	1633	n/a	n/a	1
520.3760000000	n/a	520376	FrequentFixedSOA	1633	n/a	n/a	1
522.0090000000	n/a	522009	FrequentFixedSOA	1633	n/a	n/a	1
523.6430000000	n/a	523643	FrequentFixedSOA	1633	n/a	n/a	1
525.2760000000	n/a	525276	GoFixedSOA	480	n/a	n/a	1
526.9090000000	n/a	526909	FrequentFixedSOA	1633	n/a	n/a	1
528.5430000000	n/a	528543	FrequentFixedSOA	1633	n/a	n/a	1
530.1760000000	n/a	530176	NovelFixedSOA	1633	n/a	n/a	1
531.8090000000	n/a	531809	FrequentFixedSOA	1633	n/a	n/a	1
533.4430000000	n/a	533443	FrequentFixedSOA	1633	n/a	n/a	1
535.0760000000	n/a	535076	NovelFixedSOA	1633	n/a	n/a	1
536.7090000000	n/a	536709	FrequentFixedSOA	1633	n/a	n/a	1
538.3430000000	n/a	538343	FrequentFixedSOA	1633	n/a	n/a	1
539.9760000000	n/a	539976	FrequentFixedSOA	1633	n/a	n/a	1
541.6090000000	n/a	541609	FrequentFixedSOA	1633	n/a	n/a	1
543.2430000000	n/a	543243	FrequentFixedSOA	1633	n/a	n/a	1
544.8760000000	n/a	544876	GoFixedSOA	500	n/a	n/a	1
546.5090000000	n/a	546509	FrequentFixedSOA	1633	n/a	n/a	1
548.1430000000	n/a	548143	FrequentFixedSOA	1633	n/a	n/a	1
549.7760000000	n/a	549776	FrequentFixedSOA	1633	n/a	n/a	1
551.4090000000	n/a	551409	FrequentFixedSOA	1633	n/a	n/a	1
553.0430000000	n/a	553043	FrequentFixedSOA	1633	n/a	n/a	1
554.6760000000	n/a	554676	NovelFixedSOA	1633	n/a	n/a	1
556.3090000000	n/a	556309	FrequentFixedSOA	1633	n/a	n/a	1
557.9430000000	n/a	557943	GoFixedSOA	658	n/a	n/a	1
559.5760000000	n/a	559576	FrequentFixedSOA	1633	n/a	n/a	1
561.2090000000	n/a	561209	FrequentFixedSOA	1633	n/a	n/a	1
562.8430000000	n/a	562843	FrequentFixedSOA	1633	n/a	n/a	1
564.4760000000	n/a	564476	FrequentFixedSOA	1633	n/a	n/a	1
566.1090000000	n/a	566109	FrequentFixedSOA	1633	n/a	n/a	1
567.7430000000	n/a	567743	FrequentFixedSOA	1633	n/a	n/a	1
569.3760000000	n/a	569376	FrequentFixedSOA	1633	n/a	n/a	1
571.0090000000	n/a	571009	FrequentFixedSOA	1633	n/a	n/a	1
572.6430000000	n/a	572643	NovelFixedSOA	1633	n/a	n/a	1
574.2760000000	n/a	574276	FrequentFixedSOA	1633	n/a	n/a	1
575.9090000000	n/a	575909	FrequentFixedSOA	1633	n/a	n/a	1
577.5430000000	n/a	577543	GoVariableSOA	586	n/a	n/a	1
579.1590000000	n/a	579159	FrequentVariableSOA	1616	n/a	n/a	1
580.7760000000	n/a	580776	FrequentVariableSOA	1750	n/a	n/a	1
582.5260000000	n/a	582526	FrequentVariableSOA	1783	n/a	n/a	1
584.3090000000	n/a	584309	FrequentVariableSOA	1633	n/a	n/a	1
585.9430000000	n/a	585943	FrequentVariableSOA	1650	n/a	n/a	1
587.5930000000	n/a	587593	FrequentVariableSOA	1700	n/a	n/a	1
589.2920000000	n/a	589292	NovelVariableSOA	1566	n/a	n/a	1
590.8590000000	n/a	590859	FrequentVariableSOA	1633	n/a	n/a	1
592.4920000000	n/a	592492	FrequentVariableSOA	1750	n/a	n/a	1
594.2420000000	n/a	594242	FrequentVariableSOA	1766	n/a	n/a	1
596.0090000000	n/a	596009	NovelVariableSOA	1500	n/a	n/a	1
597.5090000000	n/a	597509	FrequentVariableSOA	1750	n/a	n/a	1
599.2590000000	n/a	599259	GoVariableSOA	465	n/a	n/a	1
600.9260000000	n/a	600926	FrequentVariableSOA	1550	n/a	n/a	1
602.4760000000	n/a	602476	FrequentVariableSOA	1583	n/a	n/a	1
604.0590000000	n/a	604059	GoVariableSOA	446	n/a	n/a	1
605.7260000000	n/a	605726	FrequentVariableSOA	1550	n/a	n/a	1
607.2760000000	n/a	607276	NovelVariableSOA	1583	n/a	n/a	1
608.8590000000	n/a	608859	FrequentVariableSOA	1516	n/a	n/a	1
610.3760000000	n/a	610376	FrequentVariableSOA	1650	n/a	n/a	1
612.0260000000	n/a	612026	FrequentVariableSOA	1766	n/a	n/a	1
613.7920000000	n/a	613792	FrequentVariableSOA	1766	n/a	n/a	1
615.5590000000	n/a	615559	FrequentVariableSOA	1616	n/a	n/a	1
617.1760000000	n/a	617176	GoVariableSOA	466	n/a	n/a	1
618.8420000000	n/a	618842	FrequentVariableSOA	1766	n/a	n/a	1
620.6090000000	n/a	620609	FrequentVariableSOA	1783	n/a	n/a	1
622.3920000000	n/a	622392	NovelVariableSOA	1683	n/a	n/a	1
624.0760000000	n/a	624076	FrequentVariableSOA	1516	n/a	n/a	1
625.5920000000	n/a	625592	FrequentVariableSOA	1666	n/a	n/a	1
627.2590000000	n/a	627259	FrequentVariableSOA	1633	n/a	n/a	1
628.8920000000	n/a	628892	FrequentVariableSOA	1550	n/a	n/a	1
630.4420000000	n/a	630442	FrequentVariableSOA	1600	n/a	n/a	1
632.0420000000	n/a	632042	NovelVariableSOA	1800	n/a	n/a	1
633.8420000000	n/a	633842	FrequentVariableSOA	1766	n/a	n/a	1
635.6090000000	n/a	635609	FrequentVariableSOA	1716	n/a	n/a	1
637.3260000000	n/a	637326	FrequentVariableSOA	1583	n/a	n/a	1
638.9090000000	n/a	638909	FrequentVariableSOA	1600	n/a	n/a	1
640.5090000000	n/a	640509	GoVariableSOA	657	n/a	n/a	1
642.0420000000	n/a	642042	FrequentVariableSOA	1650	n/a	n/a	1
643.6920000000	n/a	643692	FrequentVariableSOA	1800	n/a	n/a	1
645.4920000000	n/a	645492	NovelVariableSOA	1633	n/a	n/a	1
647.1260000000	n/a	647126	FrequentVariableSOA	1733	n/a	n/a	1
648.8590000000	n/a	648859	FrequentVariableSOA	1533	n/a	n/a	1
650.3920000000	n/a	650392	NovelVariableSOA	1516	n/a	n/a	1
651.9090000000	n/a	651909	FrequentVariableSOA	1533	n/a	n/a	1
653.4420000000	n/a	653442	FrequentVariableSOA	1716	n/a	n/a	1
655.1590000000	n/a	655159	FrequentVariableSOA	1666	n/a	n/a	1
656.8260000000	n/a	656826	FrequentVariableSOA	1716	n/a	n/a	1
658.5420000000	n/a	658542	FrequentVariableSOA	1566	n/a	n/a	1
660.1090000000	n/a	660109	GoVariableSOA	771	n/a	n/a	1
661.6760000000	n/a	661676	FrequentVariableSOA	1616	n/a	n/a	1
663.2920000000	n/a	663292	FrequentVariableSOA	1533	n/a	n/a	1
664.8260000000	n/a	664826	FrequentVariableSOA	1716	n/a	n/a	1
666.5420000000	n/a	666542	FrequentVariableSOA	1550	n/a	n/a	1
668.0920000000	n/a	668092	FrequentVariableSOA	1733	n/a	n/a	1
669.8260000000	n/a	669826	NovelVariableSOA	1666	n/a	n/a	1
671.4920000000	n/a	671492	FrequentVariableSOA	1766	n/a	n/a	1
673.2590000000	n/a	673259	GoVariableSOA	568	n/a	n/a	1
674.8590000000	n/a	674859	FrequentVariableSOA	1516	n/a	n/a	1
676.3760000000	n/a	676376	FrequentVariableSOA	1616	n/a	n/a	1
677.9920000000	n/a	677992	FrequentVariableSOA	1550	n/a	n/a	1
679.5420000000	n/a	679542	FrequentVariableSOA	1650	n/a	n/a	1
681.1920000000	n/a	681192	FrequentVariableSOA	1733	n/a	n/a	1
682.9260000000	n/a	682926	FrequentVariableSOA	1616	n/a	n/a	1
684.5420000000	n/a	684542	FrequentVariableSOA	1750	n/a	n/a	1
686.2920000000	n/a	686292	FrequentVariableSOA	1650	n/a	n/a	1
687.9420000000	n/a	687942	NovelVariableSOA	1716	n/a	n/a	1
689.6590000000	n/a	689659	FrequentVariableSOA	1516	n/a	n/a	1
691.1760000000	n/a	691176	FrequentVariableSOA	1600	n/a	n/a	1
692.7760000000	n/a	692776	GoFixedSOA	613	n/a	n/a	1
694.4090000000	n/a	694409	FrequentFixedSOA	1633	n/a	n/a	1
696.0420000000	n/a	696042	FrequentFixedSOA	1633	n/a	n/a	1
697.6760000000	n/a	697676	FrequentFixedSOA	1633	n/a	n/a	1
699.3090000000	n/a	699309	GoFixedSOA	1633	n/a	n/a	0
700.9420000000	n/a	700942	FrequentFixedSOA	1633	n/a	n/a	1
702.5760000000	n/a	702576	FrequentFixedSOA	1633	n/a	n/a	1
704.2090000000	n/a	704209	FrequentFixedSOA	1633	n/a	n/a	1
705.8420000000	n/a	705842	FrequentFixedSOA	1633	n/a	n/a	1
707.4760000000	n/a	707476	GoFixedSOA	512	n/a	n/a	1
709.1090000000	n/a	709109	FrequentFixedSOA	1633	n/a	n/a	1
710.7420000000	n/a	710742	FrequentFixedSOA	1633	n/a	n/a	1
712.3760000000	n/a	712376	NovelFixedSOA	1633	n/a	n/a	1
714.0090000000	n/a	714009	FrequentFixedSOA	1633	n/a	n/a	1
715.6420000000	n/a	715642	FrequentFixedSOA	1633	n/a	n/a	1
717.2760000000	n/a	717276	GoFixedSOA	479	n/a	n/a	1
718.9090000000	n/a	718909	FrequentFixedSOA	1633	n/a	n/a	1
720.5420000000	n/a	720542	FrequentFixedSOA	1633	n/a	n/a	1
722.1760000000	n/a	722176	FrequentFixedSOA	1633	n/a	n/a	1
723.8090000000	n/a	723809	NovelFixedSOA	1633	n/a	n/a	1
725.4420000000	n/a	725442	FrequentFixedSOA	1633	n/a	n/a	1
727.0760000000	n/a	727076	NovelFixedSOA	1633	n/a	n/a	1
728.7090000000	n/a	728709	FrequentFixedSOA	1633	n/a	n/a	1
730.3420000000	n/a	730342	FrequentFixedSOA	1633	n/a	n/a	1
731.9760000000	n/a	731976	FrequentFixedSOA	1633	n/a	n/a	1
733.6090000000	n/a	733609	GoFixedSOA	517	n/a	n/a	1
735.2420000000	n/a	735242	FrequentFixedSOA	1633	n/a	n/a	1
736.8760000000	n/a	736876	FrequentFixedSOA	1633	n/a	n/a	1
738.5090000000	n/a	738509	FrequentFixedSOA	1633	n/a	n/a	1
740.1420000000	n/a	740142	GoFixedSOA	481	n/a	n/a	1
741.7760000000	n/a	741776	FrequentFixedSOA	1633	n/a	n/a	1
743.4090000000	n/a	743409	FrequentFixedSOA	1633	n/a	n/a	1
745.0420000000	n/a	745042	NovelFixedSOA	1633	n/a	n/a	1
746.6760000000	n/a	746676	FrequentFixedSOA	1633	n/a	n/a	1
748.3090000000	n/a	748309	GoFixedSOA	419	n/a	n/a	1
749.9420000000	n/a	749942	FrequentFixedSOA	1633	n/a	n/a	1
751.5760000000	n/a	751576	FrequentFixedSOA	1633	n/a	n/a	1
753.2090000000	n/a	753209	FrequentFixedSOA	1633	n/a	n/a	1
754.8420000000	n/a	754842	FrequentFixedSOA	1633	n/a	n/a	1
756.4760000000	n/a	756476	FrequentFixedSOA	1633	n/a	n/a	1
758.1090000000	n/a	758109	FrequentFixedSOA	1633	n/a	n/a	1
759.7420000000	n/a	759742	NovelFixedSOA	1633	n/a	n/a	1
761.3760000000	n/a	761376	FrequentFixedSOA	1633	n/a	n/a	1
763.0090000000	n/a	763009	FrequentFixedSOA	1633	n/a	n/a	1
764.6420000000	n/a	764642	FrequentFixedSOA	1633	n/a	n/a	1
766.2760000000	n/a	766276	GoFixedSOA	448	n/a	n/a	1
767.9090000000	n/a	767909	FrequentFixedSOA	1633	n/a	n/a	1
769.5420000000	n/a	769542	FrequentFixedSOA	1633	n/a	n/a	1
771.1760000000	n/a	771176	FrequentFixedSOA	1633	n/a	n/a	1
772.8090000000	n/a	772809	FrequentFixedSOA	1633	n/a	n/a	1
774.4420000000	n/a	774442	NovelFixedSOA	1633	n/a	n/a	1
776.0750000000	n/a	776075	FrequentFixedSOA	1633	n/a	n/a	1
777.7090000000	n/a	777709	FrequentFixedSOA	1633	n/a	n/a	1
779.3420000000	n/a	779342	NovelFixedSOA	1633	n/a	n/a	1
780.9750000000	n/a	780975	FrequentFixedSOA	1633	n/a	n/a	1
782.6090000000	n/a	782609	NovelFixedSOA	1633	n/a	n/a	1
784.2420000000	n/a	784242	FrequentFixedSOA	1633	n/a	n/a	1
785.8750000000	n/a	785875	FrequentFixedSOA	1633	n/a	n/a	1
787.5090000000	n/a	787509	FrequentFixedSOA	1633	n/a	n/a	1
789.1420000000	n/a	789142	FrequentFixedSOA	1633	n/a	n/a	1
790.7750000000	n/a	790775	FrequentFixedSOA	1633	n/a	n/a	1
792.4090000000	n/a	792409	FrequentFixedSOA	1633	n/a	n/a	1
794.0420000000	n/a	794042	FrequentFixedSOA	1633	n/a	n/a	1
795.6750000000	n/a	795675	GoFixedSOA	533	n/a	n/a	1
797.3090000000	n/a	797309	FrequentFixedSOA	1633	n/a	n/a	1
798.9420000000	n/a	798942	GoFixedSOA	349	n/a	n/a	1
800.5750000000	n/a	800575	FrequentFixedSOA	1633	n/a	n/a	1
802.2090000000	n/a	802209	FrequentFixedSOA	1633	n/a	n/a	1
803.8420000000	n/a	803842	NovelFixedSOA	1633	n/a	n/a	1
805.4750000000	n/a	805475	FrequentFixedSOA	1633	n/a	n/a	1
807.1090000000	n/a	807109	GoVariableSOA	458	n/a	n/a	1
808.8090000000	n/a	808809	FrequentVariableSOA	1500	n/a	n/a	1
810.3090000000	n/a	810309	FrequentVariableSOA	1700	n/a	n/a	1
812.0090000000	n/a	812009	FrequentVariableSOA	1600	n/a	n/a	1
813.6090000000	n/a	813609	GoVariableSOA	467	n/a	n/a	1
815.1590000000	n/a	815159	FrequentVariableSOA	1550	n/a	n/a	1
816.7090000000	n/a	816709	FrequentVariableSOA	1800	n/a	n/a	1
818.5090000000	n/a	818509	FrequentVariableSOA	1650	n/a	n/a	1
820.1590000000	n/a	820159	FrequentVariableSOA	1516	n/a	n/a	1
821.6750000000	n/a	821675	GoVariableSOA	578	n/a	n/a	1
823.3420000000	n/a	823342	FrequentVariableSOA	1800	n/a	n/a	1
825.1420000000	n/a	825142	FrequentVariableSOA	1750	n/a	n/a	1
826.8920000000	n/a	826892	NovelVariableSOA	1683	n/a	n/a	1
828.5750000000	n/a	828575	FrequentVariableSOA	1600	n/a	n/a	1
830.1750000000	n/a	830175	FrequentVariableSOA	1550	n/a	n/a	1
831.7250000000	n/a	831725	GoVariableSOA	480	n/a	n/a	1
833.3420000000	n/a	833342	FrequentVariableSOA	1583	n/a	n/a	1
834.9250000000	n/a	834925	FrequentVariableSOA	1550	n/a	n/a	1
836.4750000000	n/a	836475	FrequentVariableSOA	1516	n/a	n/a	1
837.9920000000	n/a	837992	NovelVariableSOA	1583	n/a	n/a	1
839.5750000000	n/a	839575	FrequentVariableSOA	1633	n/a	n/a	1
841.2090000000	n/a	841209	NovelVariableSOA	1516	n/a	n/a	1
842.7250000000	n/a	842725	FrequentVariableSOA	1600	n/a	n/a	1
844.3250000000	n/a	844325	FrequentVariableSOA	1500	n/a	n/a	1
845.8250000000	n/a	845825	FrequentVariableSOA	1750	n/a	n/a	1
847.5750000000	n/a	847575	GoVariableSOA	483	n/a	n/a	1
849.1920000000	n/a	849192	FrequentVariableSOA	1583	n/a	n/a	1
850.7750000000	n/a	850775	FrequentVariableSOA	1766	n/a	n/a	1
852.5420000000	n/a	852542	FrequentVariableSOA	1566	n/a	n/a	1
854.1090000000	n/a	854109	GoVariableSOA	435	n/a	n/a	1
855.7920000000	n/a	855792	FrequentVariableSOA	1700	n/a	n/a	1
857.4920000000	n/a	857492	FrequentVariableSOA	1750	n/a	n/a	1
859.2420000000	n/a	859242	NovelVariableSOA	1683	n/a	n/a	1
860.9250000000	n/a	860925	FrequentVariableSOA	1766	n/a	n/a	1
862.6920000000	n/a	862692	GoVariableSOA	682	n/a	n/a	1
864.2590000000	n/a	864259	FrequentVariableSOA	1616	n/a	n/a	1
865.8750000000	n/a	865875	FrequentVariableSOA	1583	n/a	n/a	1
867.4590000000	n/a	867459	FrequentVariableSOA	1700	n/a	n/a	1
869.1590000000	n/a	869159	FrequentVariableSOA	1700	n/a	n/a	1
870.8590000000	n/a	870859	FrequentVariableSOA	1716	n/a	n/a	1
872.5750000000	n/a	872575	FrequentVariableSOA	1616	n/a	n/a	1
874.1920000000	n/a	874192	NovelVariableSOA	1683	n/a	n/a	1
875.8750000000	n/a	875875	FrequentVariableSOA	1583	n/a	n/a	1
877.4590000000	n/a	877459	FrequentVariableSOA	1566	n/a	n/a	1
879.0250000000	n/a	879025	FrequentVariableSOA	1750	n/a	n/a	1
880.7750000000	n/a	880775	GoVariableSOA	469	n/a	n/a	1
882.2920000000	n/a	882292	FrequentVariableSOA	1516	n/a	n/a	1
883.8090000000	n/a	883809	FrequentVariableSOA	1733	n/a	n/a	1
885.5420000000	n/a	885542	FrequentVariableSOA	1700	n/a	n/a	1
887.2420000000	n/a	887242	FrequentVariableSOA	1633	n/a	n/a	1
888.8750000000	n/a	888875	NovelVariableSOA	1616	n/a	n/a	1
890.4920000000	n/a	890492	FrequentVariableSOA	1783	n/a	n/a	1
892.2750000000	n/a	892275	FrequentVariableSOA	1733	n/a	n/a	1
894.0090000000	n/a	894009	NovelVariableSOA	1516	n/a	n/a	1
895.5250000000	n/a	895525	FrequentVariableSOA	1783	n/a	n/a	1
897.3090000000	n/a	897309	NovelVariableSOA	1550	n/a	n/a	1
898.8590000000	n/a	898859	FrequentVariableSOA	1650	n/a	n/a	1
900.5090000000	n/a	900509	FrequentVariableSOA	1700	n/a	n/a	1
902.2090000000	n/a	902209	FrequentVariableSOA	1566	n/a	n/a	1
903.7750000000	n/a	903775	FrequentVariableSOA	1750	n/a	n/a	1
905.5250000000	n/a	905525	FrequentVariableSOA	1533	n/a	n/a	1
907.0590000000	n/a	907059	FrequentVariableSOA	1550	n/a	n/a	1
908.6090000000	n/a	908609	FrequentVariableSOA	1516	n/a	n/a	1
910.1250000000	n/a	910125	GoVariableSOA	567	n/a	n/a	1
911.7250000000	n/a	911725	FrequentVariableSOA	1650	n/a	n/a	1
913.3750000000	n/a	913375	GoVariableSOA	516	n/a	n/a	1
915.1420000000	n/a	915142	FrequentVariableSOA	1733	n/a	n/a	1
916.8750000000	n/a	916875	FrequentVariableSOA	1650	n/a	n/a	1
918.5250000000	n/a	918525	NovelVariableSOA	1533	n/a	n/a	1
920.0590000000	n/a	920059	FrequentVariableSOA	1800	n/a	n/a	1
