onset	duration	sample	trial_type	response_time	stim_file	value	correct
6.6200000000	n/a	6620	ignore	n/a	n/a	n/a	n/a
9.7200000000	n/a	9720	ignore	n/a	n/a	n/a	n/a
12.7260000000	n/a	12726	ignore	n/a	n/a	n/a	n/a
28.7360000000	n/a	28736	ignore	n/a	n/a	n/a	n/a
31.8360000000	n/a	31836	ignore	n/a	n/a	n/a	n/a
34.8230000000	n/a	34823	ignore	n/a	n/a	n/a	n/a
51.9030000000	n/a	51903	NeuStim	n/a	n/a	n/a	n/a
55.0030000000	n/a	55003	NeuNonAlcP1000	n/a	n/a	n/a	n/a
59.9900000000	n/a	59990	NeuNonAlcP1000	n/a	n/a	n/a	n/a
69.3530000000	n/a	69353	PosStim	n/a	n/a	n/a	n/a
72.3860000000	n/a	72386	PosAlcStimWithoutStartle	n/a	n/a	n/a	n/a
87.8190000000	n/a	87819	NeuStim	n/a	n/a	n/a	n/a
90.9190000000	n/a	90919	NeuAlcP2000	n/a	n/a	n/a	n/a
94.9060000000	n/a	94906	NeuAlcP2000	n/a	n/a	n/a	n/a
105.6690000000	n/a	105669	NegStim	n/a	n/a	n/a	n/a
108.7690000000	n/a	108769	NegNonAlcP2000	n/a	n/a	n/a	n/a
112.7560000000	n/a	112756	NegNonAlcP2000	n/a	n/a	n/a	n/a
123.6530000000	n/a	123653	NeuStim	n/a	n/a	n/a	n/a
126.6860000000	n/a	126686	NeuNonAlcStimWithoutStartle	n/a	n/a	n/a	n/a
139.8030000000	n/a	139803	PosStim	n/a	n/a	n/a	n/a
142.9030000000	n/a	142903	PosNonAlcP1000	n/a	n/a	n/a	n/a
147.8900000000	n/a	147890	PosNonAlcP1000	n/a	n/a	n/a	n/a
157.1360000000	n/a	157136	NeuStim	n/a	n/a	n/a	n/a
160.2360000000	n/a	160236	NeuAlcP1000	n/a	n/a	n/a	n/a
165.2230000000	n/a	165223	NeuAlcP1000	n/a	n/a	n/a	n/a
174.0190000000	n/a	174019	NegStim	n/a	n/a	n/a	n/a
177.0530000000	n/a	177053	NegNonAlcStimWithoutStartle	n/a	n/a	n/a	n/a
190.4530000000	n/a	190453	NeuStim	n/a	n/a	n/a	n/a
193.5530000000	n/a	193553	NeuNonAlcP1000	n/a	n/a	n/a	n/a
198.5400000000	n/a	198540	NeuNonAlcP1000	n/a	n/a	n/a	n/a
206.6690000000	n/a	206669	NegStim	n/a	n/a	n/a	n/a
209.7690000000	n/a	209769	NegNonAlcP3000	n/a	n/a	n/a	n/a
212.7560000000	n/a	212756	NegNonAlcP3000	n/a	n/a	n/a	n/a
225.7190000000	n/a	225719	PosStim	n/a	n/a	n/a	n/a
228.8190000000	n/a	228819	PosNonAlcP3000	n/a	n/a	n/a	n/a
231.8060000000	n/a	231806	PosNonAlcP3000	n/a	n/a	n/a	n/a
243.3030000000	n/a	243303	NeuStim	n/a	n/a	n/a	n/a
246.4030000000	n/a	246403	NeuAlcP1000	n/a	n/a	n/a	n/a
251.3900000000	n/a	251390	NeuAlcP1000	n/a	n/a	n/a	n/a
259.7020000000	n/a	259702	NegStim	n/a	n/a	n/a	n/a
262.7360000000	n/a	262736	NegAlcStimWithoutStartle	n/a	n/a	n/a	n/a
275.9190000000	n/a	275919	PosStim	n/a	n/a	n/a	n/a
278.9520000000	n/a	278952	PosNonAlcStimWithoutStartle	n/a	n/a	n/a	n/a
294.3690000000	n/a	294369	NegStim	n/a	n/a	n/a	n/a
297.4690000000	n/a	297469	NegAlcP3000	n/a	n/a	n/a	n/a
300.4560000000	n/a	300456	NegAlcP3000	n/a	n/a	n/a	n/a
313.2190000000	n/a	313219	NeuStim	n/a	n/a	n/a	n/a
316.2520000000	n/a	316252	NeuAlcStimWithoutStartle	n/a	n/a	n/a	n/a
329.6190000000	n/a	329619	PosStim	n/a	n/a	n/a	n/a
332.7190000000	n/a	332719	PosNonAlcP1000	n/a	n/a	n/a	n/a
337.7060000000	n/a	337706	PosNonAlcP1000	n/a	n/a	n/a	n/a
348.8860000000	n/a	348886	NegStim	n/a	n/a	n/a	n/a
351.9860000000	n/a	351986	NegAlcP3000	n/a	n/a	n/a	n/a
354.9730000000	n/a	354973	NegAlcP3000	n/a	n/a	n/a	n/a
368.6690000000	n/a	368669	NegStim	n/a	n/a	n/a	n/a
371.7020000000	n/a	371702	NegNonAlcStimWithoutStartle	n/a	n/a	n/a	n/a
386.4360000000	n/a	386436	PosStim	n/a	n/a	n/a	n/a
389.5360000000	n/a	389536	PosAlcP1000	n/a	n/a	n/a	n/a
394.5230000000	n/a	394523	PosAlcP1000	n/a	n/a	n/a	n/a
406.3020000000	n/a	406302	NeuStim	n/a	n/a	n/a	n/a
409.3360000000	n/a	409336	NeuAlcStimWithoutStartle	n/a	n/a	n/a	n/a
424.0520000000	n/a	424052	NegStim	n/a	n/a	n/a	n/a
427.1520000000	n/a	427152	NegNonAlcP1000	n/a	n/a	n/a	n/a
432.1390000000	n/a	432139	NegNonAlcP1000	n/a	n/a	n/a	n/a
444.1360000000	n/a	444136	PosStim	n/a	n/a	n/a	n/a
447.2350000000	n/a	447235	PosAlcP3000	n/a	n/a	n/a	n/a
450.2220000000	n/a	450222	PosAlcP3000	n/a	n/a	n/a	n/a
462.1690000000	n/a	462169	NeuStim	n/a	n/a	n/a	n/a
465.2690000000	n/a	465269	NeuAlcP3000	n/a	n/a	n/a	n/a
468.2560000000	n/a	468256	NeuAlcP3000	n/a	n/a	n/a	n/a
478.5350000000	n/a	478535	NegStim	n/a	n/a	n/a	n/a
481.5690000000	n/a	481569	NegAlcStimWithoutStartle	n/a	n/a	n/a	n/a
494.6350000000	n/a	494635	PosStim	n/a	n/a	n/a	n/a
497.7350000000	n/a	497735	PosNonAlcP2000	n/a	n/a	n/a	n/a
501.7220000000	n/a	501722	PosNonAlcP2000	n/a	n/a	n/a	n/a
511.0190000000	n/a	511019	NegStim	n/a	n/a	n/a	n/a
514.1190000000	n/a	514119	NegAlcP2000	n/a	n/a	n/a	n/a
518.1060000000	n/a	518106	NegAlcP2000	n/a	n/a	n/a	n/a
529.5190000000	n/a	529519	PosStim	n/a	n/a	n/a	n/a
532.6190000000	n/a	532619	PosAlcP2000	n/a	n/a	n/a	n/a
536.6060000000	n/a	536606	PosAlcP2000	n/a	n/a	n/a	n/a
546.3850000000	n/a	546385	NeuStim	n/a	n/a	n/a	n/a
549.4190000000	n/a	549419	NeuAlcStimWithoutStartle	n/a	n/a	n/a	n/a
565.3690000000	n/a	565369	NegStim	n/a	n/a	n/a	n/a
568.4690000000	n/a	568469	NegNonAlcP1000	n/a	n/a	n/a	n/a
573.4560000000	n/a	573456	NegNonAlcP1000	n/a	n/a	n/a	n/a
585.3850000000	n/a	585385	NeuStim	n/a	n/a	n/a	n/a
588.4850000000	n/a	588485	NeuNonAlcP1000	n/a	n/a	n/a	n/a
593.4720000000	n/a	593472	NeuNonAlcP1000	n/a	n/a	n/a	n/a
603.6850000000	n/a	603685	PosStim	n/a	n/a	n/a	n/a
606.7850000000	n/a	606785	PosNonAlcP3000	n/a	n/a	n/a	n/a
609.7720000000	n/a	609772	PosNonAlcP3000	n/a	n/a	n/a	n/a
622.6520000000	n/a	622652	NeuStim	n/a	n/a	n/a	n/a
625.6850000000	n/a	625685	NeuNonAlcStimWithoutStartle	n/a	n/a	n/a	n/a
642.1850000000	n/a	642185	NegStim	n/a	n/a	n/a	n/a
645.2180000000	n/a	645218	NegNonAlcStimWithoutStartle	n/a	n/a	n/a	n/a
662.0520000000	n/a	662052	NeuStim	n/a	n/a	n/a	n/a
665.1520000000	n/a	665152	NeuNonAlcP3000	n/a	n/a	n/a	n/a
668.1390000000	n/a	668139	NeuNonAlcP3000	n/a	n/a	n/a	n/a
681.3520000000	n/a	681352	PosStim	n/a	n/a	n/a	n/a
684.4520000000	n/a	684452	PosAlcP1000	n/a	n/a	n/a	n/a
689.4390000000	n/a	689439	PosAlcP1000	n/a	n/a	n/a	n/a
698.1180000000	n/a	698118	NegStim	n/a	n/a	n/a	n/a
701.2180000000	n/a	701218	NegNonAlcP1000	n/a	n/a	n/a	n/a
706.2050000000	n/a	706205	NegNonAlcP1000	n/a	n/a	n/a	n/a
716.4180000000	n/a	716418	PosStim	n/a	n/a	n/a	n/a
719.4520000000	n/a	719452	PosNonAlcStimWithoutStartle	n/a	n/a	n/a	n/a
732.8850000000	n/a	732885	NeuStim	n/a	n/a	n/a	n/a
735.9850000000	n/a	735985	NeuAlcP2000	n/a	n/a	n/a	n/a
739.9720000000	n/a	739972	NeuAlcP2000	n/a	n/a	n/a	n/a
750.1680000000	n/a	750168	PosStim	n/a	n/a	n/a	n/a
753.2680000000	n/a	753268	PosAlcP1000	n/a	n/a	n/a	n/a
758.2550000000	n/a	758255	PosAlcP1000	n/a	n/a	n/a	n/a
768.3350000000	n/a	768335	NegStim	n/a	n/a	n/a	n/a
771.3680000000	n/a	771368	NegNonAlcStimWithoutStartle	n/a	n/a	n/a	n/a
787.7350000000	n/a	787735	PosStim	n/a	n/a	n/a	n/a
790.8350000000	n/a	790835	PosNonAlcP2000	n/a	n/a	n/a	n/a
794.8220000000	n/a	794822	PosNonAlcP2000	n/a	n/a	n/a	n/a
805.9020000000	n/a	805902	NegStim	n/a	n/a	n/a	n/a
809.0020000000	n/a	809002	NegNonAlcP3000	n/a	n/a	n/a	n/a
811.9890000000	n/a	811989	NegNonAlcP3000	n/a	n/a	n/a	n/a
822.7520000000	n/a	822752	NeuStim	n/a	n/a	n/a	n/a
825.8520000000	n/a	825852	NeuNonAlcP2000	n/a	n/a	n/a	n/a
829.8390000000	n/a	829839	NeuNonAlcP2000	n/a	n/a	n/a	n/a
841.5180000000	n/a	841518	NegStim	n/a	n/a	n/a	n/a
844.5510000000	n/a	844551	NegAlcStimWithoutStartle	n/a	n/a	n/a	n/a
859.9510000000	n/a	859951	PosStim	n/a	n/a	n/a	n/a
862.9850000000	n/a	862985	PosAlcStimWithoutStartle	n/a	n/a	n/a	n/a
878.3180000000	n/a	878318	NeuStim	n/a	n/a	n/a	n/a
881.4180000000	n/a	881418	NeuAlcP3000	n/a	n/a	n/a	n/a
884.4050000000	n/a	884405	NeuAlcP3000	n/a	n/a	n/a	n/a
898.0010000000	n/a	898001	NegStim	n/a	n/a	n/a	n/a
901.1010000000	n/a	901101	NegNonAlcP1000	n/a	n/a	n/a	n/a
906.0880000000	n/a	906088	NegNonAlcP1000	n/a	n/a	n/a	n/a
917.2680000000	n/a	917268	NeuStim	n/a	n/a	n/a	n/a
920.3680000000	n/a	920368	NeuNonAlcP2000	n/a	n/a	n/a	n/a
924.3550000000	n/a	924355	NeuNonAlcP2000	n/a	n/a	n/a	n/a
935.1010000000	n/a	935101	PosStim	n/a	n/a	n/a	n/a
938.1350000000	n/a	938135	PosAlcStimWithoutStartle	n/a	n/a	n/a	n/a
953.8010000000	n/a	953801	NegStim	n/a	n/a	n/a	n/a
956.9010000000	n/a	956901	NegNonAlcP2000	n/a	n/a	n/a	n/a
960.8880000000	n/a	960888	NegNonAlcP2000	n/a	n/a	n/a	n/a
971.8510000000	n/a	971851	NeuStim	n/a	n/a	n/a	n/a
974.9510000000	n/a	974951	NeuAlcP1000	n/a	n/a	n/a	n/a
979.9380000000	n/a	979938	NeuAlcP1000	n/a	n/a	n/a	n/a
