onset	duration	sample	trial_type	response_time	stim_file	value	correct
2.6010000000	n/a	2601	FrequentFixedSOA	1633	n/a	n/a	1
4.2340000000	n/a	4234	FrequentFixedSOA	1633	n/a	n/a	1
5.8680000000	n/a	5868	FrequentFixedSOA	1633	n/a	n/a	1
7.5010000000	n/a	7501	FrequentFixedSOA	1633	n/a	n/a	1
9.1340000000	n/a	9134	FrequentFixedSOA	1633	n/a	n/a	1
10.7680000000	n/a	10768	FrequentFixedSOA	1633	n/a	n/a	1
12.4010000000	n/a	12401	FrequentFixedSOA	1633	n/a	n/a	1
14.0340000000	n/a	14034	FrequentFixedSOA	1633	n/a	n/a	1
15.6670000000	n/a	15667	FrequentFixedSOA	1633	n/a	n/a	1
17.3010000000	n/a	17301	FrequentFixedSOA	1633	n/a	n/a	1
18.9340000000	n/a	18934	NovelFixedSOA	309	n/a	n/a	0
20.5670000000	n/a	20567	FrequentFixedSOA	1633	n/a	n/a	1
22.2010000000	n/a	22201	GoFixedSOA	419	n/a	n/a	1
23.8340000000	n/a	23834	FrequentFixedSOA	1633	n/a	n/a	1
25.4670000000	n/a	25467	FrequentFixedSOA	1633	n/a	n/a	1
27.1010000000	n/a	27101	FrequentFixedSOA	1633	n/a	n/a	1
28.7340000000	n/a	28734	GoFixedSOA	336	n/a	n/a	1
30.3670000000	n/a	30367	FrequentFixedSOA	1633	n/a	n/a	1
32.0010000000	n/a	32001	FrequentFixedSOA	1633	n/a	n/a	1
33.6340000000	n/a	33634	FrequentFixedSOA	1633	n/a	n/a	1
35.2670000000	n/a	35267	NovelFixedSOA	1633	n/a	n/a	1
36.9010000000	n/a	36901	FrequentFixedSOA	1633	n/a	n/a	1
38.5340000000	n/a	38534	FrequentFixedSOA	1633	n/a	n/a	1
40.1670000000	n/a	40167	FrequentFixedSOA	1633	n/a	n/a	1
41.8010000000	n/a	41801	GoFixedSOA	321	n/a	n/a	1
43.4340000000	n/a	43434	FrequentFixedSOA	1633	n/a	n/a	1
45.0670000000	n/a	45067	NovelFixedSOA	1633	n/a	n/a	1
46.7010000000	n/a	46701	FrequentFixedSOA	1633	n/a	n/a	1
48.3340000000	n/a	48334	FrequentFixedSOA	1633	n/a	n/a	1
49.9670000000	n/a	49967	FrequentFixedSOA	1633	n/a	n/a	1
51.6010000000	n/a	51601	GoFixedSOA	311	n/a	n/a	1
53.2340000000	n/a	53234	FrequentFixedSOA	1633	n/a	n/a	1
54.8670000000	n/a	54867	GoFixedSOA	389	n/a	n/a	1
56.5010000000	n/a	56501	FrequentFixedSOA	1633	n/a	n/a	1
58.1340000000	n/a	58134	FrequentFixedSOA	1633	n/a	n/a	1
59.7670000000	n/a	59767	GoFixedSOA	256	n/a	n/a	1
61.4010000000	n/a	61401	FrequentFixedSOA	1633	n/a	n/a	1
63.0340000000	n/a	63034	FrequentFixedSOA	1633	n/a	n/a	1
64.6670000000	n/a	64667	FrequentFixedSOA	1633	n/a	n/a	1
66.3010000000	n/a	66301	FrequentFixedSOA	1633	n/a	n/a	1
67.9340000000	n/a	67934	NovelFixedSOA	1633	n/a	n/a	1
69.5670000000	n/a	69567	FrequentFixedSOA	1633	n/a	n/a	1
71.2010000000	n/a	71201	NovelFixedSOA	1633	n/a	n/a	1
72.8340000000	n/a	72834	FrequentFixedSOA	1633	n/a	n/a	1
74.4670000000	n/a	74467	FrequentFixedSOA	1633	n/a	n/a	1
76.1010000000	n/a	76101	GoFixedSOA	267	n/a	n/a	1
77.7340000000	n/a	77734	FrequentFixedSOA	1633	n/a	n/a	1
79.3670000000	n/a	79367	FrequentFixedSOA	1633	n/a	n/a	1
81.0010000000	n/a	81001	FrequentFixedSOA	1633	n/a	n/a	1
82.6340000000	n/a	82634	FrequentFixedSOA	1633	n/a	n/a	1
84.2670000000	n/a	84267	NovelFixedSOA	1633	n/a	n/a	1
85.9010000000	n/a	85901	FrequentFixedSOA	1633	n/a	n/a	1
87.5340000000	n/a	87534	FrequentFixedSOA	1633	n/a	n/a	1
89.1670000000	n/a	89167	FrequentFixedSOA	1633	n/a	n/a	1
90.8010000000	n/a	90801	FrequentFixedSOA	1633	n/a	n/a	1
92.4340000000	n/a	92434	GoFixedSOA	317	n/a	n/a	1
94.0670000000	n/a	94067	FrequentFixedSOA	1633	n/a	n/a	1
95.7010000000	n/a	95701	FrequentFixedSOA	1633	n/a	n/a	1
97.3340000000	n/a	97334	NovelFixedSOA	1633	n/a	n/a	1
98.9670000000	n/a	98967	FrequentFixedSOA	1633	n/a	n/a	1
100.6010000000	n/a	100601	FrequentFixedSOA	1633	n/a	n/a	1
102.2340000000	n/a	102234	GoFixedSOA	344	n/a	n/a	1
103.8670000000	n/a	103867	FrequentFixedSOA	1633	n/a	n/a	1
105.5010000000	n/a	105501	FrequentFixedSOA	1633	n/a	n/a	1
107.1340000000	n/a	107134	FrequentFixedSOA	1633	n/a	n/a	1
108.7670000000	n/a	108767	FrequentFixedSOA	1633	n/a	n/a	1
110.4010000000	n/a	110401	NovelFixedSOA	1633	n/a	n/a	1
112.0340000000	n/a	112034	FrequentFixedSOA	1633	n/a	n/a	1
113.6670000000	n/a	113667	FrequentFixedSOA	1633	n/a	n/a	1
115.3010000000	n/a	115301	GoFixedSOA	257	n/a	n/a	1
116.9340000000	n/a	116934	FrequentVariableSOA	1550	n/a	n/a	1
118.4840000000	n/a	118484	FrequentVariableSOA	1750	n/a	n/a	1
120.2340000000	n/a	120234	FrequentVariableSOA	1633	n/a	n/a	1
121.8670000000	n/a	121867	FrequentVariableSOA	1716	n/a	n/a	1
123.5840000000	n/a	123584	FrequentVariableSOA	1783	n/a	n/a	1
125.3670000000	n/a	125367	FrequentVariableSOA	1733	n/a	n/a	1
127.1010000000	n/a	127101	FrequentVariableSOA	1650	n/a	n/a	1
128.7510000000	n/a	128751	FrequentVariableSOA	1783	n/a	n/a	1
130.5340000000	n/a	130534	FrequentVariableSOA	1633	n/a	n/a	1
132.1670000000	n/a	132167	FrequentVariableSOA	1633	n/a	n/a	1
133.8010000000	n/a	133801	NovelVariableSOA	1533	n/a	n/a	1
135.3340000000	n/a	135334	FrequentVariableSOA	1666	n/a	n/a	1
137.0010000000	n/a	137001	GoVariableSOA	308	n/a	n/a	1
138.6840000000	n/a	138684	FrequentVariableSOA	1750	n/a	n/a	1
140.4340000000	n/a	140434	FrequentVariableSOA	1616	n/a	n/a	1
142.0510000000	n/a	142051	FrequentVariableSOA	1683	n/a	n/a	1
143.7340000000	n/a	143734	GoVariableSOA	389	n/a	n/a	1
145.2340000000	n/a	145234	FrequentVariableSOA	1600	n/a	n/a	1
146.8340000000	n/a	146834	FrequentVariableSOA	1666	n/a	n/a	1
148.5010000000	n/a	148501	FrequentVariableSOA	1616	n/a	n/a	1
150.1170000000	n/a	150117	NovelVariableSOA	1566	n/a	n/a	1
151.6840000000	n/a	151684	FrequentVariableSOA	1683	n/a	n/a	1
153.3670000000	n/a	153367	FrequentVariableSOA	1650	n/a	n/a	1
155.0170000000	n/a	155017	FrequentVariableSOA	1533	n/a	n/a	1
156.5510000000	n/a	156551	GoVariableSOA	244	n/a	n/a	1
158.0840000000	n/a	158084	FrequentVariableSOA	1566	n/a	n/a	1
159.6510000000	n/a	159651	NovelVariableSOA	1550	n/a	n/a	1
161.2010000000	n/a	161201	FrequentVariableSOA	1800	n/a	n/a	1
163.0010000000	n/a	163001	FrequentVariableSOA	1783	n/a	n/a	1
164.7840000000	n/a	164784	FrequentVariableSOA	1733	n/a	n/a	1
166.5170000000	n/a	166517	GoVariableSOA	345	n/a	n/a	1
168.1340000000	n/a	168134	FrequentVariableSOA	1616	n/a	n/a	1
169.7510000000	n/a	169751	GoVariableSOA	502	n/a	n/a	1
171.4840000000	n/a	171484	FrequentVariableSOA	1683	n/a	n/a	1
173.1670000000	n/a	173167	FrequentVariableSOA	1633	n/a	n/a	1
174.8010000000	n/a	174801	GoVariableSOA	291	n/a	n/a	1
176.5670000000	n/a	176567	FrequentVariableSOA	1716	n/a	n/a	1
178.2840000000	n/a	178284	FrequentVariableSOA	1733	n/a	n/a	1
180.0170000000	n/a	180017	FrequentVariableSOA	1683	n/a	n/a	1
181.7010000000	n/a	181701	FrequentVariableSOA	1666	n/a	n/a	1
183.3670000000	n/a	183367	NovelVariableSOA	1516	n/a	n/a	1
184.8840000000	n/a	184884	FrequentVariableSOA	1700	n/a	n/a	1
186.5840000000	n/a	186584	NovelVariableSOA	1633	n/a	n/a	1
188.2170000000	n/a	188217	FrequentVariableSOA	1583	n/a	n/a	1
189.8010000000	n/a	189801	FrequentVariableSOA	1750	n/a	n/a	1
191.5510000000	n/a	191551	GoVariableSOA	324	n/a	n/a	1
193.1840000000	n/a	193184	FrequentVariableSOA	1666	n/a	n/a	1
194.8510000000	n/a	194851	FrequentVariableSOA	1633	n/a	n/a	1
196.4840000000	n/a	196484	FrequentVariableSOA	1666	n/a	n/a	1
198.1510000000	n/a	198151	FrequentVariableSOA	1716	n/a	n/a	1
199.8670000000	n/a	199867	NovelVariableSOA	1566	n/a	n/a	1
201.4340000000	n/a	201434	FrequentVariableSOA	1750	n/a	n/a	1
203.1840000000	n/a	203184	FrequentVariableSOA	1616	n/a	n/a	1
204.8010000000	n/a	204801	FrequentVariableSOA	1716	n/a	n/a	1
206.5170000000	n/a	206517	FrequentVariableSOA	1600	n/a	n/a	1
208.1170000000	n/a	208117	GoVariableSOA	307	n/a	n/a	1
209.8500000000	n/a	209850	FrequentVariableSOA	1666	n/a	n/a	1
211.5170000000	n/a	211517	FrequentVariableSOA	1633	n/a	n/a	1
213.1500000000	n/a	213150	NovelVariableSOA	1533	n/a	n/a	1
214.6840000000	n/a	214684	FrequentVariableSOA	1633	n/a	n/a	1
216.3170000000	n/a	216317	FrequentVariableSOA	1600	n/a	n/a	1
217.9170000000	n/a	217917	GoVariableSOA	317	n/a	n/a	1
219.6340000000	n/a	219634	FrequentVariableSOA	1766	n/a	n/a	1
221.4000000000	n/a	221400	FrequentVariableSOA	1566	n/a	n/a	1
222.9670000000	n/a	222967	FrequentVariableSOA	1516	n/a	n/a	1
224.4840000000	n/a	224484	FrequentVariableSOA	1566	n/a	n/a	1
226.0500000000	n/a	226050	NovelVariableSOA	1783	n/a	n/a	1
227.8340000000	n/a	227834	FrequentVariableSOA	1716	n/a	n/a	1
229.5500000000	n/a	229550	FrequentVariableSOA	1550	n/a	n/a	1
231.1000000000	n/a	231100	GoVariableSOA	363	n/a	n/a	1
232.7670000000	n/a	232767	FrequentFixedSOA	1633	n/a	n/a	1
234.4000000000	n/a	234400	FrequentFixedSOA	1633	n/a	n/a	1
236.0340000000	n/a	236034	FrequentFixedSOA	1633	n/a	n/a	1
237.6670000000	n/a	237667	GoFixedSOA	316	n/a	n/a	1
239.3000000000	n/a	239300	FrequentFixedSOA	1633	n/a	n/a	1
240.9340000000	n/a	240934	FrequentFixedSOA	1633	n/a	n/a	1
242.5670000000	n/a	242567	FrequentFixedSOA	1633	n/a	n/a	1
244.2000000000	n/a	244200	GoFixedSOA	369	n/a	n/a	1
245.8340000000	n/a	245834	FrequentFixedSOA	1633	n/a	n/a	1
247.4670000000	n/a	247467	FrequentFixedSOA	1633	n/a	n/a	1
249.1000000000	n/a	249100	FrequentFixedSOA	1633	n/a	n/a	1
250.7340000000	n/a	250734	NovelFixedSOA	1633	n/a	n/a	1
252.3670000000	n/a	252367	FrequentFixedSOA	1633	n/a	n/a	1
254.0000000000	n/a	254000	NovelFixedSOA	1633	n/a	n/a	1
255.6340000000	n/a	255634	FrequentFixedSOA	1633	n/a	n/a	1
257.2670000000	n/a	257267	FrequentFixedSOA	1633	n/a	n/a	1
258.9000000000	n/a	258900	NovelFixedSOA	1633	n/a	n/a	1
260.5340000000	n/a	260534	FrequentFixedSOA	1633	n/a	n/a	1
262.1670000000	n/a	262167	FrequentFixedSOA	1633	n/a	n/a	1
263.8000000000	n/a	263800	FrequentFixedSOA	1633	n/a	n/a	1
265.4340000000	n/a	265434	FrequentFixedSOA	1633	n/a	n/a	1
267.0670000000	n/a	267067	FrequentFixedSOA	1633	n/a	n/a	1
268.7000000000	n/a	268700	NovelFixedSOA	1633	n/a	n/a	1
270.3340000000	n/a	270334	FrequentFixedSOA	1633	n/a	n/a	1
271.9670000000	n/a	271967	FrequentFixedSOA	1633	n/a	n/a	1
273.6000000000	n/a	273600	FrequentFixedSOA	1633	n/a	n/a	1
275.2340000000	n/a	275234	FrequentFixedSOA	1633	n/a	n/a	1
276.8670000000	n/a	276867	FrequentFixedSOA	1633	n/a	n/a	1
278.5000000000	n/a	278500	GoFixedSOA	311	n/a	n/a	1
280.1340000000	n/a	280134	FrequentFixedSOA	1633	n/a	n/a	1
281.7670000000	n/a	281767	FrequentFixedSOA	1633	n/a	n/a	1
283.4000000000	n/a	283400	GoFixedSOA	429	n/a	n/a	1
285.0340000000	n/a	285034	FrequentFixedSOA	1633	n/a	n/a	1
286.6670000000	n/a	286667	NovelFixedSOA	1633	n/a	n/a	1
288.3000000000	n/a	288300	FrequentFixedSOA	1633	n/a	n/a	1
289.9340000000	n/a	289934	GoFixedSOA	370	n/a	n/a	1
291.5670000000	n/a	291567	FrequentFixedSOA	1633	n/a	n/a	1
293.2000000000	n/a	293200	GoFixedSOA	343	n/a	n/a	1
294.8340000000	n/a	294834	FrequentFixedSOA	1633	n/a	n/a	1
296.4670000000	n/a	296467	FrequentFixedSOA	1633	n/a	n/a	1
298.1000000000	n/a	298100	FrequentFixedSOA	1633	n/a	n/a	1
299.7340000000	n/a	299734	FrequentFixedSOA	1633	n/a	n/a	1
301.3670000000	n/a	301367	GoFixedSOA	310	n/a	n/a	1
303.0000000000	n/a	303000	FrequentFixedSOA	1633	n/a	n/a	1
304.6340000000	n/a	304634	FrequentFixedSOA	1633	n/a	n/a	1
306.2670000000	n/a	306267	FrequentFixedSOA	1633	n/a	n/a	1
307.9000000000	n/a	307900	NovelFixedSOA	1633	n/a	n/a	1
309.5340000000	n/a	309534	FrequentFixedSOA	1633	n/a	n/a	1
311.1670000000	n/a	311167	FrequentFixedSOA	1633	n/a	n/a	1
312.8000000000	n/a	312800	FrequentFixedSOA	1633	n/a	n/a	1
314.4340000000	n/a	314434	FrequentFixedSOA	1633	n/a	n/a	1
316.0670000000	n/a	316067	NovelFixedSOA	1633	n/a	n/a	1
317.7000000000	n/a	317700	FrequentFixedSOA	1633	n/a	n/a	1
319.3340000000	n/a	319334	FrequentFixedSOA	1633	n/a	n/a	1
320.9670000000	n/a	320967	FrequentFixedSOA	1633	n/a	n/a	1
322.6000000000	n/a	322600	FrequentFixedSOA	1633	n/a	n/a	1
324.2340000000	n/a	324234	NovelFixedSOA	1633	n/a	n/a	1
325.8670000000	n/a	325867	FrequentFixedSOA	1633	n/a	n/a	1
327.5000000000	n/a	327500	FrequentFixedSOA	1633	n/a	n/a	1
329.1340000000	n/a	329134	GoFixedSOA	310	n/a	n/a	1
330.7670000000	n/a	330767	FrequentFixedSOA	1633	n/a	n/a	1
332.4000000000	n/a	332400	FrequentFixedSOA	1633	n/a	n/a	1
334.0340000000	n/a	334034	FrequentFixedSOA	1633	n/a	n/a	1
335.6670000000	n/a	335667	FrequentFixedSOA	1633	n/a	n/a	1
337.3000000000	n/a	337300	NovelFixedSOA	1633	n/a	n/a	1
338.9340000000	n/a	338934	FrequentFixedSOA	1633	n/a	n/a	1
340.5670000000	n/a	340567	FrequentFixedSOA	1633	n/a	n/a	1
342.2000000000	n/a	342200	FrequentFixedSOA	1633	n/a	n/a	1
343.8340000000	n/a	343834	FrequentFixedSOA	1633	n/a	n/a	1
345.4670000000	n/a	345467	FrequentFixedSOA	1633	n/a	n/a	1
347.1000000000	n/a	347100	FrequentVariableSOA	1516	n/a	n/a	1
348.6170000000	n/a	348617	FrequentVariableSOA	1566	n/a	n/a	1
350.1840000000	n/a	350184	FrequentVariableSOA	1516	n/a	n/a	1
351.7000000000	n/a	351700	GoVariableSOA	358	n/a	n/a	1
353.4670000000	n/a	353467	FrequentVariableSOA	1700	n/a	n/a	1
355.1670000000	n/a	355167	FrequentVariableSOA	1500	n/a	n/a	1
356.6670000000	n/a	356667	FrequentVariableSOA	1533	n/a	n/a	1
358.2000000000	n/a	358200	GoVariableSOA	403	n/a	n/a	1
359.9000000000	n/a	359900	FrequentVariableSOA	1550	n/a	n/a	1
361.4500000000	n/a	361450	FrequentVariableSOA	1700	n/a	n/a	1
363.1500000000	n/a	363150	FrequentVariableSOA	1716	n/a	n/a	1
364.8670000000	n/a	364867	NovelVariableSOA	1616	n/a	n/a	1
366.4840000000	n/a	366484	FrequentVariableSOA	1750	n/a	n/a	1
368.2340000000	n/a	368234	NovelVariableSOA	1750	n/a	n/a	1
369.9840000000	n/a	369984	FrequentVariableSOA	1550	n/a	n/a	1
371.5340000000	n/a	371534	FrequentVariableSOA	1783	n/a	n/a	1
373.3170000000	n/a	373317	NovelVariableSOA	1516	n/a	n/a	1
374.8340000000	n/a	374834	FrequentVariableSOA	1566	n/a	n/a	1
376.4000000000	n/a	376400	FrequentVariableSOA	1533	n/a	n/a	1
377.9340000000	n/a	377934	FrequentVariableSOA	1683	n/a	n/a	1
379.6170000000	n/a	379617	FrequentVariableSOA	1666	n/a	n/a	1
381.2840000000	n/a	381284	FrequentVariableSOA	1550	n/a	n/a	1
382.8340000000	n/a	382834	NovelVariableSOA	1683	n/a	n/a	1
384.5170000000	n/a	384517	FrequentVariableSOA	1516	n/a	n/a	1
386.0340000000	n/a	386034	FrequentVariableSOA	1533	n/a	n/a	1
387.5670000000	n/a	387567	FrequentVariableSOA	1733	n/a	n/a	1
389.3000000000	n/a	389300	FrequentVariableSOA	1700	n/a	n/a	1
391.0000000000	n/a	391000	FrequentVariableSOA	1583	n/a	n/a	1
392.5840000000	n/a	392584	GoVariableSOA	366	n/a	n/a	1
394.1670000000	n/a	394167	FrequentVariableSOA	1633	n/a	n/a	1
395.8000000000	n/a	395800	FrequentVariableSOA	1783	n/a	n/a	1
397.5840000000	n/a	397584	GoVariableSOA	378	n/a	n/a	1
399.1840000000	n/a	399184	FrequentVariableSOA	1666	n/a	n/a	1
400.8500000000	n/a	400850	NovelVariableSOA	1566	n/a	n/a	1
402.4170000000	n/a	402417	FrequentVariableSOA	1733	n/a	n/a	1
404.1500000000	n/a	404150	GoVariableSOA	376	n/a	n/a	1
405.6840000000	n/a	405684	FrequentVariableSOA	1733	n/a	n/a	1
407.4170000000	n/a	407417	GoVariableSOA	305	n/a	n/a	1
409.2000000000	n/a	409200	FrequentVariableSOA	1533	n/a	n/a	1
410.7330000000	n/a	410733	FrequentVariableSOA	1766	n/a	n/a	1
412.5000000000	n/a	412500	FrequentVariableSOA	1683	n/a	n/a	1
414.1830000000	n/a	414183	FrequentVariableSOA	1583	n/a	n/a	1
415.7670000000	n/a	415767	GoVariableSOA	445	n/a	n/a	1
417.5670000000	n/a	417567	FrequentVariableSOA	1516	n/a	n/a	1
419.0830000000	n/a	419083	FrequentVariableSOA	1566	n/a	n/a	1
420.6500000000	n/a	420650	FrequentVariableSOA	1750	n/a	n/a	1
422.4000000000	n/a	422400	NovelVariableSOA	1633	n/a	n/a	1
424.0330000000	n/a	424033	FrequentVariableSOA	1766	n/a	n/a	1
425.8000000000	n/a	425800	FrequentVariableSOA	1516	n/a	n/a	1
427.3170000000	n/a	427317	FrequentVariableSOA	1550	n/a	n/a	1
428.8670000000	n/a	428867	FrequentVariableSOA	1683	n/a	n/a	1
430.5500000000	n/a	430550	NovelVariableSOA	1633	n/a	n/a	1
432.1830000000	n/a	432183	FrequentVariableSOA	1666	n/a	n/a	1
433.8500000000	n/a	433850	FrequentVariableSOA	1533	n/a	n/a	1
435.3830000000	n/a	435383	FrequentVariableSOA	1516	n/a	n/a	1
436.9000000000	n/a	436900	FrequentVariableSOA	1516	n/a	n/a	1
438.4170000000	n/a	438417	NovelVariableSOA	1716	n/a	n/a	1
440.1330000000	n/a	440133	FrequentVariableSOA	1516	n/a	n/a	1
441.6500000000	n/a	441650	FrequentVariableSOA	1783	n/a	n/a	1
443.4330000000	n/a	443433	GoVariableSOA	337	n/a	n/a	1
445.1500000000	n/a	445150	FrequentVariableSOA	1783	n/a	n/a	1
446.9330000000	n/a	446933	FrequentVariableSOA	1716	n/a	n/a	1
448.6500000000	n/a	448650	FrequentVariableSOA	1566	n/a	n/a	1
450.2170000000	n/a	450217	FrequentVariableSOA	1500	n/a	n/a	1
451.7170000000	n/a	451717	NovelVariableSOA	1600	n/a	n/a	1
453.3170000000	n/a	453317	FrequentVariableSOA	1800	n/a	n/a	1
455.1170000000	n/a	455117	FrequentVariableSOA	1683	n/a	n/a	1
456.8000000000	n/a	456800	FrequentVariableSOA	1733	n/a	n/a	1
458.5330000000	n/a	458533	FrequentVariableSOA	1783	n/a	n/a	1
460.3170000000	n/a	460317	FrequentVariableSOA	1733	n/a	n/a	1
462.0500000000	n/a	462050	GoFixedSOA	383	n/a	n/a	1
463.6830000000	n/a	463683	FrequentFixedSOA	1633	n/a	n/a	1
465.3170000000	n/a	465317	FrequentFixedSOA	1633	n/a	n/a	1
466.9500000000	n/a	466950	FrequentFixedSOA	1633	n/a	n/a	1
468.5830000000	n/a	468583	FrequentFixedSOA	1633	n/a	n/a	1
470.2170000000	n/a	470217	FrequentFixedSOA	1633	n/a	n/a	1
471.8500000000	n/a	471850	FrequentFixedSOA	1633	n/a	n/a	1
473.4830000000	n/a	473483	NovelFixedSOA	1633	n/a	n/a	1
475.1170000000	n/a	475117	FrequentFixedSOA	1633	n/a	n/a	1
476.7500000000	n/a	476750	FrequentFixedSOA	1633	n/a	n/a	1
478.3830000000	n/a	478383	FrequentFixedSOA	1633	n/a	n/a	1
480.0170000000	n/a	480017	NovelFixedSOA	1633	n/a	n/a	1
481.6500000000	n/a	481650	FrequentFixedSOA	1633	n/a	n/a	1
483.2830000000	n/a	483283	GoFixedSOA	364	n/a	n/a	1
484.9170000000	n/a	484917	FrequentFixedSOA	1633	n/a	n/a	1
486.5500000000	n/a	486550	FrequentFixedSOA	1633	n/a	n/a	1
488.1830000000	n/a	488183	GoFixedSOA	384	n/a	n/a	1
489.8170000000	n/a	489817	FrequentFixedSOA	1633	n/a	n/a	1
491.4500000000	n/a	491450	NovelFixedSOA	1633	n/a	n/a	1
493.0830000000	n/a	493083	FrequentFixedSOA	1633	n/a	n/a	1
494.7170000000	n/a	494717	FrequentFixedSOA	1633	n/a	n/a	1
496.3500000000	n/a	496350	FrequentFixedSOA	1633	n/a	n/a	1
497.9830000000	n/a	497983	FrequentFixedSOA	1633	n/a	n/a	1
499.6170000000	n/a	499617	FrequentFixedSOA	1633	n/a	n/a	1
501.2500000000	n/a	501250	GoFixedSOA	337	n/a	n/a	1
502.8830000000	n/a	502883	FrequentFixedSOA	1633	n/a	n/a	1
504.5170000000	n/a	504517	FrequentFixedSOA	1633	n/a	n/a	1
506.1500000000	n/a	506150	NovelFixedSOA	1633	n/a	n/a	1
507.7830000000	n/a	507783	FrequentFixedSOA	1633	n/a	n/a	1
509.4170000000	n/a	509417	FrequentFixedSOA	1633	n/a	n/a	1
511.0500000000	n/a	511050	FrequentFixedSOA	1633	n/a	n/a	1
512.6830000000	n/a	512683	FrequentFixedSOA	1633	n/a	n/a	1
514.3170000000	n/a	514317	FrequentFixedSOA	1633	n/a	n/a	1
515.9500000000	n/a	515950	NovelFixedSOA	1633	n/a	n/a	1
517.5830000000	n/a	517583	FrequentFixedSOA	1633	n/a	n/a	1
519.2170000000	n/a	519217	FrequentFixedSOA	1633	n/a	n/a	1
520.8500000000	n/a	520850	FrequentFixedSOA	1633	n/a	n/a	1
522.4830000000	n/a	522483	FrequentFixedSOA	1633	n/a	n/a	1
524.1170000000	n/a	524117	GoFixedSOA	452	n/a	n/a	1
525.7500000000	n/a	525750	FrequentFixedSOA	1633	n/a	n/a	1
527.3830000000	n/a	527383	FrequentFixedSOA	1633	n/a	n/a	1
529.0170000000	n/a	529017	NovelFixedSOA	1633	n/a	n/a	1
530.6500000000	n/a	530650	FrequentFixedSOA	1633	n/a	n/a	1
532.2830000000	n/a	532283	FrequentFixedSOA	1633	n/a	n/a	1
533.9170000000	n/a	533917	NovelFixedSOA	1633	n/a	n/a	1
535.5500000000	n/a	535550	FrequentFixedSOA	1633	n/a	n/a	1
537.1830000000	n/a	537183	FrequentFixedSOA	1633	n/a	n/a	1
538.8170000000	n/a	538817	FrequentFixedSOA	1633	n/a	n/a	1
540.4500000000	n/a	540450	FrequentFixedSOA	1633	n/a	n/a	1
542.0830000000	n/a	542083	FrequentFixedSOA	1633	n/a	n/a	1
543.7170000000	n/a	543717	GoFixedSOA	434	n/a	n/a	1
545.3500000000	n/a	545350	FrequentFixedSOA	1633	n/a	n/a	1
546.9830000000	n/a	546983	FrequentFixedSOA	1633	n/a	n/a	1
548.6170000000	n/a	548617	FrequentFixedSOA	1633	n/a	n/a	1
550.2500000000	n/a	550250	FrequentFixedSOA	1633	n/a	n/a	1
551.8830000000	n/a	551883	FrequentFixedSOA	1633	n/a	n/a	1
553.5170000000	n/a	553517	NovelFixedSOA	1633	n/a	n/a	1
555.1500000000	n/a	555150	FrequentFixedSOA	1633	n/a	n/a	1
556.7830000000	n/a	556783	GoFixedSOA	365	n/a	n/a	1
558.4170000000	n/a	558417	FrequentFixedSOA	1633	n/a	n/a	1
560.0500000000	n/a	560050	FrequentFixedSOA	1633	n/a	n/a	1
561.6830000000	n/a	561683	FrequentFixedSOA	1633	n/a	n/a	1
563.3170000000	n/a	563317	FrequentFixedSOA	1633	n/a	n/a	1
564.9500000000	n/a	564950	FrequentFixedSOA	1633	n/a	n/a	1
566.5830000000	n/a	566583	FrequentFixedSOA	1633	n/a	n/a	1
568.2170000000	n/a	568217	FrequentFixedSOA	1633	n/a	n/a	1
569.8500000000	n/a	569850	FrequentFixedSOA	1633	n/a	n/a	1
571.4830000000	n/a	571483	NovelFixedSOA	1633	n/a	n/a	1
573.1170000000	n/a	573117	FrequentFixedSOA	1633	n/a	n/a	1
574.7500000000	n/a	574750	FrequentFixedSOA	1633	n/a	n/a	1
576.3830000000	n/a	576383	GoVariableSOA	320	n/a	n/a	1
578.1500000000	n/a	578150	FrequentVariableSOA	1533	n/a	n/a	1
579.6830000000	n/a	579683	FrequentVariableSOA	1800	n/a	n/a	1
581.4830000000	n/a	581483	FrequentVariableSOA	1550	n/a	n/a	1
583.0330000000	n/a	583033	FrequentVariableSOA	1733	n/a	n/a	1
584.7670000000	n/a	584767	FrequentVariableSOA	1733	n/a	n/a	1
586.5000000000	n/a	586500	FrequentVariableSOA	1650	n/a	n/a	1
588.1500000000	n/a	588150	NovelVariableSOA	1783	n/a	n/a	1
589.9330000000	n/a	589933	FrequentVariableSOA	1650	n/a	n/a	1
591.5830000000	n/a	591583	FrequentVariableSOA	1783	n/a	n/a	1
593.3670000000	n/a	593367	FrequentVariableSOA	1650	n/a	n/a	1
595.0170000000	n/a	595017	NovelVariableSOA	1650	n/a	n/a	1
596.6670000000	n/a	596667	FrequentVariableSOA	1716	n/a	n/a	1
598.3830000000	n/a	598383	GoVariableSOA	397	n/a	n/a	1
599.8830000000	n/a	599883	FrequentVariableSOA	1633	n/a	n/a	1
601.5170000000	n/a	601517	FrequentVariableSOA	1750	n/a	n/a	1
603.2670000000	n/a	603267	GoVariableSOA	444	n/a	n/a	1
604.9000000000	n/a	604900	FrequentVariableSOA	1683	n/a	n/a	1
606.5830000000	n/a	606583	NovelVariableSOA	1583	n/a	n/a	1
608.1660000000	n/a	608166	FrequentVariableSOA	1516	n/a	n/a	1
609.6830000000	n/a	609683	FrequentVariableSOA	1583	n/a	n/a	1
611.2660000000	n/a	611266	FrequentVariableSOA	1733	n/a	n/a	1
613.0000000000	n/a	613000	FrequentVariableSOA	1683	n/a	n/a	1
614.6830000000	n/a	614683	FrequentVariableSOA	1766	n/a	n/a	1
616.4500000000	n/a	616450	GoVariableSOA	361	n/a	n/a	1
618.0660000000	n/a	618066	FrequentVariableSOA	1616	n/a	n/a	1
619.6830000000	n/a	619683	FrequentVariableSOA	1616	n/a	n/a	1
621.3000000000	n/a	621300	NovelVariableSOA	1733	n/a	n/a	1
623.0330000000	n/a	623033	FrequentVariableSOA	1700	n/a	n/a	1
624.7330000000	n/a	624733	FrequentVariableSOA	1633	n/a	n/a	1
626.3660000000	n/a	626366	FrequentVariableSOA	1666	n/a	n/a	1
628.0330000000	n/a	628033	FrequentVariableSOA	1750	n/a	n/a	1
629.7830000000	n/a	629783	FrequentVariableSOA	1783	n/a	n/a	1
631.5660000000	n/a	631566	NovelVariableSOA	1533	n/a	n/a	1
633.1000000000	n/a	633100	FrequentVariableSOA	1533	n/a	n/a	1
634.6330000000	n/a	634633	FrequentVariableSOA	1616	n/a	n/a	1
636.2500000000	n/a	636250	FrequentVariableSOA	1633	n/a	n/a	1
637.8830000000	n/a	637883	FrequentVariableSOA	1766	n/a	n/a	1
639.6500000000	n/a	639650	GoVariableSOA	401	n/a	n/a	1
641.4330000000	n/a	641433	FrequentVariableSOA	1666	n/a	n/a	1
643.1000000000	n/a	643100	FrequentVariableSOA	1500	n/a	n/a	1
644.6000000000	n/a	644600	NovelVariableSOA	1566	n/a	n/a	1
646.1660000000	n/a	646166	FrequentVariableSOA	1583	n/a	n/a	1
647.7500000000	n/a	647750	FrequentVariableSOA	1500	n/a	n/a	1
649.2500000000	n/a	649250	NovelVariableSOA	1566	n/a	n/a	1
650.8160000000	n/a	650816	FrequentVariableSOA	1650	n/a	n/a	1
652.4660000000	n/a	652466	FrequentVariableSOA	1666	n/a	n/a	1
654.1330000000	n/a	654133	FrequentVariableSOA	1600	n/a	n/a	1
655.7330000000	n/a	655733	FrequentVariableSOA	1516	n/a	n/a	1
657.2500000000	n/a	657250	FrequentVariableSOA	1633	n/a	n/a	1
658.8830000000	n/a	658883	GoVariableSOA	373	n/a	n/a	1
660.6000000000	n/a	660600	FrequentVariableSOA	1700	n/a	n/a	1
662.3000000000	n/a	662300	FrequentVariableSOA	1783	n/a	n/a	1
664.0830000000	n/a	664083	FrequentVariableSOA	1750	n/a	n/a	1
665.8330000000	n/a	665833	FrequentVariableSOA	1516	n/a	n/a	1
667.3500000000	n/a	667350	FrequentVariableSOA	1700	n/a	n/a	1
669.0500000000	n/a	669050	NovelVariableSOA	1633	n/a	n/a	1
670.6830000000	n/a	670683	FrequentVariableSOA	1500	n/a	n/a	1
672.1830000000	n/a	672183	GoVariableSOA	412	n/a	n/a	1
673.7830000000	n/a	673783	FrequentVariableSOA	1800	n/a	n/a	1
675.5830000000	n/a	675583	FrequentVariableSOA	1533	n/a	n/a	1
677.1160000000	n/a	677116	FrequentVariableSOA	1533	n/a	n/a	1
678.6500000000	n/a	678650	FrequentVariableSOA	1500	n/a	n/a	1
680.1500000000	n/a	680150	FrequentVariableSOA	1733	n/a	n/a	1
681.8830000000	n/a	681883	FrequentVariableSOA	1533	n/a	n/a	1
683.4160000000	n/a	683416	FrequentVariableSOA	1683	n/a	n/a	1
685.1000000000	n/a	685100	FrequentVariableSOA	1600	n/a	n/a	1
686.7000000000	n/a	686700	NovelVariableSOA	1766	n/a	n/a	1
688.4660000000	n/a	688466	FrequentVariableSOA	1533	n/a	n/a	1
690.0000000000	n/a	690000	FrequentVariableSOA	1516	n/a	n/a	1
691.5160000000	n/a	691516	GoFixedSOA	432	n/a	n/a	1
693.1500000000	n/a	693150	FrequentFixedSOA	1633	n/a	n/a	1
694.7830000000	n/a	694783	FrequentFixedSOA	1633	n/a	n/a	1
696.4160000000	n/a	696416	FrequentFixedSOA	1633	n/a	n/a	1
698.0500000000	n/a	698050	GoFixedSOA	573	n/a	n/a	1
699.6830000000	n/a	699683	FrequentFixedSOA	1633	n/a	n/a	1
701.3160000000	n/a	701316	FrequentFixedSOA	1633	n/a	n/a	1
702.9500000000	n/a	702950	FrequentFixedSOA	1633	n/a	n/a	1
704.5830000000	n/a	704583	FrequentFixedSOA	1633	n/a	n/a	1
706.2160000000	n/a	706216	GoFixedSOA	484	n/a	n/a	1
707.8500000000	n/a	707850	FrequentFixedSOA	1633	n/a	n/a	1
709.4830000000	n/a	709483	FrequentFixedSOA	1633	n/a	n/a	1
711.1160000000	n/a	711116	NovelFixedSOA	1633	n/a	n/a	1
712.7500000000	n/a	712750	FrequentFixedSOA	1633	n/a	n/a	1
714.3830000000	n/a	714383	FrequentFixedSOA	1633	n/a	n/a	1
716.0160000000	n/a	716016	GoFixedSOA	362	n/a	n/a	1
717.6500000000	n/a	717650	FrequentFixedSOA	1633	n/a	n/a	1
719.2830000000	n/a	719283	FrequentFixedSOA	1633	n/a	n/a	1
720.9160000000	n/a	720916	FrequentFixedSOA	1633	n/a	n/a	1
722.5500000000	n/a	722550	NovelFixedSOA	1633	n/a	n/a	1
724.1830000000	n/a	724183	FrequentFixedSOA	1633	n/a	n/a	1
725.8160000000	n/a	725816	NovelFixedSOA	1633	n/a	n/a	1
727.4500000000	n/a	727450	FrequentFixedSOA	1633	n/a	n/a	1
729.0830000000	n/a	729083	FrequentFixedSOA	1633	n/a	n/a	1
730.7160000000	n/a	730716	FrequentFixedSOA	1633	n/a	n/a	1
732.3500000000	n/a	732350	GoFixedSOA	385	n/a	n/a	1
733.9830000000	n/a	733983	FrequentFixedSOA	1633	n/a	n/a	1
735.6160000000	n/a	735616	FrequentFixedSOA	1633	n/a	n/a	1
737.2500000000	n/a	737250	FrequentFixedSOA	1633	n/a	n/a	1
738.8830000000	n/a	738883	GoFixedSOA	328	n/a	n/a	1
740.5160000000	n/a	740516	FrequentFixedSOA	1633	n/a	n/a	1
742.1500000000	n/a	742150	FrequentFixedSOA	1633	n/a	n/a	1
743.7830000000	n/a	743783	NovelFixedSOA	1633	n/a	n/a	1
745.4160000000	n/a	745416	FrequentFixedSOA	1633	n/a	n/a	1
747.0500000000	n/a	747050	GoFixedSOA	350	n/a	n/a	1
748.6830000000	n/a	748683	FrequentFixedSOA	1633	n/a	n/a	1
750.3160000000	n/a	750316	FrequentFixedSOA	1633	n/a	n/a	1
751.9500000000	n/a	751950	FrequentFixedSOA	1633	n/a	n/a	1
753.5830000000	n/a	753583	FrequentFixedSOA	1633	n/a	n/a	1
755.2160000000	n/a	755216	FrequentFixedSOA	1633	n/a	n/a	1
756.8500000000	n/a	756850	FrequentFixedSOA	1633	n/a	n/a	1
758.4830000000	n/a	758483	NovelFixedSOA	1633	n/a	n/a	1
760.1160000000	n/a	760116	FrequentFixedSOA	1633	n/a	n/a	1
761.7500000000	n/a	761750	FrequentFixedSOA	1633	n/a	n/a	1
763.3830000000	n/a	763383	FrequentFixedSOA	1633	n/a	n/a	1
765.0160000000	n/a	765016	GoFixedSOA	423	n/a	n/a	1
766.6500000000	n/a	766650	FrequentFixedSOA	1633	n/a	n/a	1
768.2830000000	n/a	768283	FrequentFixedSOA	1633	n/a	n/a	1
769.9160000000	n/a	769916	FrequentFixedSOA	1633	n/a	n/a	1
771.5500000000	n/a	771550	FrequentFixedSOA	1633	n/a	n/a	1
773.1830000000	n/a	773183	NovelFixedSOA	1633	n/a	n/a	1
774.8160000000	n/a	774816	FrequentFixedSOA	1633	n/a	n/a	1
776.4500000000	n/a	776450	FrequentFixedSOA	1633	n/a	n/a	1
778.0830000000	n/a	778083	NovelFixedSOA	1633	n/a	n/a	1
779.7160000000	n/a	779716	FrequentFixedSOA	1633	n/a	n/a	1
781.3500000000	n/a	781350	NovelFixedSOA	1633	n/a	n/a	1
782.9830000000	n/a	782983	FrequentFixedSOA	1633	n/a	n/a	1
784.6160000000	n/a	784616	FrequentFixedSOA	1633	n/a	n/a	1
786.2500000000	n/a	786250	FrequentFixedSOA	1633	n/a	n/a	1
787.8830000000	n/a	787883	FrequentFixedSOA	1633	n/a	n/a	1
789.5160000000	n/a	789516	FrequentFixedSOA	1633	n/a	n/a	1
791.1500000000	n/a	791150	FrequentFixedSOA	1633	n/a	n/a	1
792.7830000000	n/a	792783	FrequentFixedSOA	1633	n/a	n/a	1
794.4160000000	n/a	794416	GoFixedSOA	358	n/a	n/a	1
796.0500000000	n/a	796050	FrequentFixedSOA	1633	n/a	n/a	1
797.6830000000	n/a	797683	GoFixedSOA	424	n/a	n/a	1
799.3160000000	n/a	799316	FrequentFixedSOA	1633	n/a	n/a	1
800.9500000000	n/a	800950	FrequentFixedSOA	1633	n/a	n/a	1
802.5830000000	n/a	802583	NovelFixedSOA	1633	n/a	n/a	1
804.2160000000	n/a	804216	FrequentFixedSOA	1633	n/a	n/a	1
805.8500000000	n/a	805850	GoVariableSOA	370	n/a	n/a	1
807.6160000000	n/a	807616	FrequentVariableSOA	1733	n/a	n/a	1
809.3490000000	n/a	809349	FrequentVariableSOA	1533	n/a	n/a	1
810.8830000000	n/a	810883	FrequentVariableSOA	1716	n/a	n/a	1
812.5990000000	n/a	812599	GoVariableSOA	520	n/a	n/a	1
814.2990000000	n/a	814299	FrequentVariableSOA	1716	n/a	n/a	1
816.0160000000	n/a	816016	FrequentVariableSOA	1666	n/a	n/a	1
817.6830000000	n/a	817683	FrequentVariableSOA	1666	n/a	n/a	1
819.3490000000	n/a	819349	FrequentVariableSOA	1650	n/a	n/a	1
820.9990000000	n/a	820999	GoVariableSOA	474	n/a	n/a	1
822.5330000000	n/a	822533	FrequentVariableSOA	1600	n/a	n/a	1
824.1330000000	n/a	824133	FrequentVariableSOA	1533	n/a	n/a	1
825.6660000000	n/a	825666	NovelVariableSOA	1783	n/a	n/a	1
827.4490000000	n/a	827449	FrequentVariableSOA	1800	n/a	n/a	1
829.2490000000	n/a	829249	FrequentVariableSOA	1516	n/a	n/a	1
830.7660000000	n/a	830766	GoVariableSOA	436	n/a	n/a	1
832.4830000000	n/a	832483	FrequentVariableSOA	1600	n/a	n/a	1
834.0830000000	n/a	834083	FrequentVariableSOA	1616	n/a	n/a	1
835.6990000000	n/a	835699	FrequentVariableSOA	1700	n/a	n/a	1
837.3990000000	n/a	837399	NovelVariableSOA	1566	n/a	n/a	1
838.9660000000	n/a	838966	FrequentVariableSOA	1633	n/a	n/a	1
840.5990000000	n/a	840599	NovelVariableSOA	1516	n/a	n/a	1
842.1160000000	n/a	842116	FrequentVariableSOA	1783	n/a	n/a	1
843.8990000000	n/a	843899	FrequentVariableSOA	1783	n/a	n/a	1
845.6830000000	n/a	845683	FrequentVariableSOA	1516	n/a	n/a	1
847.1990000000	n/a	847199	GoVariableSOA	419	n/a	n/a	1
848.7160000000	n/a	848716	FrequentVariableSOA	1716	n/a	n/a	1
850.4330000000	n/a	850433	FrequentVariableSOA	1766	n/a	n/a	1
852.1990000000	n/a	852199	FrequentVariableSOA	1716	n/a	n/a	1
853.9160000000	n/a	853916	GoVariableSOA	578	n/a	n/a	1
855.6330000000	n/a	855633	FrequentVariableSOA	1783	n/a	n/a	1
857.4160000000	n/a	857416	FrequentVariableSOA	1533	n/a	n/a	1
858.9490000000	n/a	858949	NovelVariableSOA	1783	n/a	n/a	1
860.7330000000	n/a	860733	FrequentVariableSOA	1550	n/a	n/a	1
862.2830000000	n/a	862283	GoVariableSOA	332	n/a	n/a	1
863.8660000000	n/a	863866	FrequentVariableSOA	1516	n/a	n/a	1
865.3830000000	n/a	865383	FrequentVariableSOA	1783	n/a	n/a	1
867.1660000000	n/a	867166	FrequentVariableSOA	1633	n/a	n/a	1
868.7990000000	n/a	868799	FrequentVariableSOA	1583	n/a	n/a	1
870.3830000000	n/a	870383	FrequentVariableSOA	1783	n/a	n/a	1
872.1660000000	n/a	872166	FrequentVariableSOA	1500	n/a	n/a	1
873.6660000000	n/a	873666	NovelVariableSOA	1583	n/a	n/a	1
875.2490000000	n/a	875249	FrequentVariableSOA	1600	n/a	n/a	1
876.8490000000	n/a	876849	FrequentVariableSOA	1733	n/a	n/a	1
878.5830000000	n/a	878583	FrequentVariableSOA	1566	n/a	n/a	1
880.1490000000	n/a	880149	GoVariableSOA	382	n/a	n/a	1
881.6660000000	n/a	881666	FrequentVariableSOA	1733	n/a	n/a	1
883.3990000000	n/a	883399	FrequentVariableSOA	1633	n/a	n/a	1
885.0330000000	n/a	885033	FrequentVariableSOA	1666	n/a	n/a	1
886.6990000000	n/a	886699	FrequentVariableSOA	1783	n/a	n/a	1
888.4830000000	n/a	888483	NovelVariableSOA	1716	n/a	n/a	1
890.1990000000	n/a	890199	FrequentVariableSOA	1516	n/a	n/a	1
891.7160000000	n/a	891716	FrequentVariableSOA	1716	n/a	n/a	1
893.4330000000	n/a	893433	NovelVariableSOA	1616	n/a	n/a	1
895.0490000000	n/a	895049	FrequentVariableSOA	1533	n/a	n/a	1
896.5830000000	n/a	896583	NovelVariableSOA	1633	n/a	n/a	1
898.2160000000	n/a	898216	FrequentVariableSOA	1616	n/a	n/a	1
899.8330000000	n/a	899833	FrequentVariableSOA	1650	n/a	n/a	1
901.4830000000	n/a	901483	FrequentVariableSOA	1633	n/a	n/a	1
903.1160000000	n/a	903116	FrequentVariableSOA	1550	n/a	n/a	1
904.6660000000	n/a	904666	FrequentVariableSOA	1516	n/a	n/a	1
906.1830000000	n/a	906183	FrequentVariableSOA	1800	n/a	n/a	1
907.9830000000	n/a	907983	FrequentVariableSOA	1783	n/a	n/a	1
909.7660000000	n/a	909766	GoVariableSOA	455	n/a	n/a	1
911.3490000000	n/a	911349	FrequentVariableSOA	1733	n/a	n/a	1
913.0830000000	n/a	913083	GoVariableSOA	900	n/a	n/a	1
914.8330000000	n/a	914833	FrequentVariableSOA	1650	n/a	n/a	1
916.4830000000	n/a	916483	FrequentVariableSOA	1750	n/a	n/a	1
918.2330000000	n/a	918233	NovelVariableSOA	1733	n/a	n/a	1
919.9660000000	n/a	919966	FrequentVariableSOA	1550	n/a	n/a	1
