onset	duration	sample	trial_type	response_time	stim_file	value	correct
3.4200000000	n/a	3420	FrequentFixedSOA	1633	n/a	n/a	1
5.0530000000	n/a	5053	FrequentFixedSOA	1633	n/a	n/a	1
6.6860000000	n/a	6686	FrequentFixedSOA	1633	n/a	n/a	1
8.3200000000	n/a	8320	FrequentFixedSOA	1633	n/a	n/a	1
9.9530000000	n/a	9953	FrequentFixedSOA	1633	n/a	n/a	1
11.5860000000	n/a	11586	FrequentFixedSOA	1633	n/a	n/a	1
13.2200000000	n/a	13220	FrequentFixedSOA	1633	n/a	n/a	1
14.8530000000	n/a	14853	FrequentFixedSOA	1633	n/a	n/a	1
16.4860000000	n/a	16486	FrequentFixedSOA	1633	n/a	n/a	1
18.1200000000	n/a	18120	FrequentFixedSOA	1633	n/a	n/a	1
19.7530000000	n/a	19753	NovelFixedSOA	400	n/a	n/a	0
21.3860000000	n/a	21386	FrequentFixedSOA	1633	n/a	n/a	1
23.0190000000	n/a	23019	GoFixedSOA	490	n/a	n/a	1
24.6530000000	n/a	24653	FrequentFixedSOA	1633	n/a	n/a	1
26.2860000000	n/a	26286	FrequentFixedSOA	1633	n/a	n/a	1
27.9190000000	n/a	27919	FrequentFixedSOA	1633	n/a	n/a	1
29.5530000000	n/a	29553	GoFixedSOA	358	n/a	n/a	1
31.1860000000	n/a	31186	FrequentFixedSOA	1633	n/a	n/a	1
32.8190000000	n/a	32819	FrequentFixedSOA	1633	n/a	n/a	1
34.4530000000	n/a	34453	FrequentFixedSOA	1633	n/a	n/a	1
36.0860000000	n/a	36086	NovelFixedSOA	1633	n/a	n/a	1
37.7190000000	n/a	37719	FrequentFixedSOA	1633	n/a	n/a	1
39.3530000000	n/a	39353	FrequentFixedSOA	1633	n/a	n/a	1
40.9860000000	n/a	40986	FrequentFixedSOA	1633	n/a	n/a	1
42.6190000000	n/a	42619	GoFixedSOA	412	n/a	n/a	1
44.2530000000	n/a	44253	FrequentFixedSOA	1633	n/a	n/a	1
45.8860000000	n/a	45886	NovelFixedSOA	1633	n/a	n/a	1
47.5190000000	n/a	47519	FrequentFixedSOA	1633	n/a	n/a	1
49.1530000000	n/a	49153	FrequentFixedSOA	1633	n/a	n/a	1
50.7860000000	n/a	50786	FrequentFixedSOA	1633	n/a	n/a	1
52.4190000000	n/a	52419	GoFixedSOA	371	n/a	n/a	1
54.0530000000	n/a	54053	FrequentFixedSOA	1633	n/a	n/a	1
55.6860000000	n/a	55686	GoFixedSOA	470	n/a	n/a	1
57.3190000000	n/a	57319	FrequentFixedSOA	1633	n/a	n/a	1
58.9530000000	n/a	58953	FrequentFixedSOA	1633	n/a	n/a	1
60.5860000000	n/a	60586	GoFixedSOA	414	n/a	n/a	1
62.2190000000	n/a	62219	FrequentFixedSOA	1633	n/a	n/a	1
63.8530000000	n/a	63853	FrequentFixedSOA	1633	n/a	n/a	1
65.4860000000	n/a	65486	FrequentFixedSOA	1633	n/a	n/a	1
67.1190000000	n/a	67119	FrequentFixedSOA	1633	n/a	n/a	1
68.7530000000	n/a	68753	NovelFixedSOA	1633	n/a	n/a	1
70.3860000000	n/a	70386	FrequentFixedSOA	1633	n/a	n/a	1
72.0190000000	n/a	72019	NovelFixedSOA	1633	n/a	n/a	1
73.6530000000	n/a	73653	FrequentFixedSOA	1633	n/a	n/a	1
75.2860000000	n/a	75286	FrequentFixedSOA	1633	n/a	n/a	1
76.9190000000	n/a	76919	GoFixedSOA	389	n/a	n/a	1
78.5530000000	n/a	78553	FrequentFixedSOA	1633	n/a	n/a	1
80.1860000000	n/a	80186	FrequentFixedSOA	1633	n/a	n/a	1
81.8190000000	n/a	81819	FrequentFixedSOA	1633	n/a	n/a	1
83.4530000000	n/a	83453	FrequentFixedSOA	1633	n/a	n/a	1
85.0860000000	n/a	85086	NovelFixedSOA	1633	n/a	n/a	1
86.7190000000	n/a	86719	FrequentFixedSOA	1633	n/a	n/a	1
88.3530000000	n/a	88353	FrequentFixedSOA	1633	n/a	n/a	1
89.9860000000	n/a	89986	FrequentFixedSOA	1633	n/a	n/a	1
91.6190000000	n/a	91619	FrequentFixedSOA	1633	n/a	n/a	1
93.2530000000	n/a	93253	GoFixedSOA	380	n/a	n/a	1
94.8860000000	n/a	94886	FrequentFixedSOA	1633	n/a	n/a	1
96.5190000000	n/a	96519	FrequentFixedSOA	1633	n/a	n/a	1
98.1530000000	n/a	98153	NovelFixedSOA	1633	n/a	n/a	1
99.7860000000	n/a	99786	FrequentFixedSOA	1633	n/a	n/a	1
101.4190000000	n/a	101419	FrequentFixedSOA	1633	n/a	n/a	1
103.0530000000	n/a	103053	GoFixedSOA	323	n/a	n/a	1
104.6860000000	n/a	104686	FrequentFixedSOA	1633	n/a	n/a	1
106.3190000000	n/a	106319	FrequentFixedSOA	1633	n/a	n/a	1
107.9530000000	n/a	107953	FrequentFixedSOA	1633	n/a	n/a	1
109.5860000000	n/a	109586	FrequentFixedSOA	1633	n/a	n/a	1
111.2190000000	n/a	111219	NovelFixedSOA	1633	n/a	n/a	1
112.8530000000	n/a	112853	FrequentFixedSOA	1633	n/a	n/a	1
114.4860000000	n/a	114486	FrequentFixedSOA	1633	n/a	n/a	1
116.1190000000	n/a	116119	GoFixedSOA	404	n/a	n/a	1
117.7530000000	n/a	117753	FrequentVariableSOA	1616	n/a	n/a	1
119.3690000000	n/a	119369	FrequentVariableSOA	1550	n/a	n/a	1
120.9190000000	n/a	120919	FrequentVariableSOA	1616	n/a	n/a	1
122.5360000000	n/a	122536	FrequentVariableSOA	1516	n/a	n/a	1
124.0530000000	n/a	124053	FrequentVariableSOA	1666	n/a	n/a	1
125.7190000000	n/a	125719	FrequentVariableSOA	1566	n/a	n/a	1
127.2860000000	n/a	127286	FrequentVariableSOA	1633	n/a	n/a	1
128.9190000000	n/a	128919	FrequentVariableSOA	1683	n/a	n/a	1
130.6030000000	n/a	130603	FrequentVariableSOA	1566	n/a	n/a	1
132.1690000000	n/a	132169	FrequentVariableSOA	1533	n/a	n/a	1
133.7030000000	n/a	133703	NovelVariableSOA	1800	n/a	n/a	1
135.5030000000	n/a	135503	FrequentVariableSOA	1733	n/a	n/a	1
137.2360000000	n/a	137236	GoVariableSOA	377	n/a	n/a	1
138.8690000000	n/a	138869	FrequentVariableSOA	1650	n/a	n/a	1
140.5190000000	n/a	140519	FrequentVariableSOA	1750	n/a	n/a	1
142.2690000000	n/a	142269	FrequentVariableSOA	1600	n/a	n/a	1
143.8690000000	n/a	143869	GoVariableSOA	459	n/a	n/a	1
145.3860000000	n/a	145386	FrequentVariableSOA	1533	n/a	n/a	1
146.9190000000	n/a	146919	FrequentVariableSOA	1700	n/a	n/a	1
148.6190000000	n/a	148619	FrequentVariableSOA	1733	n/a	n/a	1
150.3530000000	n/a	150353	NovelVariableSOA	1533	n/a	n/a	1
151.8860000000	n/a	151886	FrequentVariableSOA	1733	n/a	n/a	1
153.6190000000	n/a	153619	FrequentVariableSOA	1500	n/a	n/a	1
155.1190000000	n/a	155119	FrequentVariableSOA	1750	n/a	n/a	1
156.8690000000	n/a	156869	GoVariableSOA	277	n/a	n/a	1
158.6530000000	n/a	158653	FrequentVariableSOA	1650	n/a	n/a	1
160.3030000000	n/a	160303	NovelVariableSOA	1733	n/a	n/a	1
162.0360000000	n/a	162036	FrequentVariableSOA	1566	n/a	n/a	1
163.6030000000	n/a	163603	FrequentVariableSOA	1616	n/a	n/a	1
165.2190000000	n/a	165219	FrequentVariableSOA	1700	n/a	n/a	1
166.9190000000	n/a	166919	GoVariableSOA	400	n/a	n/a	1
168.5530000000	n/a	168553	FrequentVariableSOA	1633	n/a	n/a	1
170.1860000000	n/a	170186	GoVariableSOA	336	n/a	n/a	1
171.9690000000	n/a	171969	FrequentVariableSOA	1783	n/a	n/a	1
173.7530000000	n/a	173753	FrequentVariableSOA	1716	n/a	n/a	1
175.4690000000	n/a	175469	GoVariableSOA	356	n/a	n/a	1
177.0690000000	n/a	177069	FrequentVariableSOA	1783	n/a	n/a	1
178.8530000000	n/a	178853	FrequentVariableSOA	1516	n/a	n/a	1
180.3690000000	n/a	180369	FrequentVariableSOA	1800	n/a	n/a	1
182.1690000000	n/a	182169	FrequentVariableSOA	1700	n/a	n/a	1
183.8690000000	n/a	183869	NovelVariableSOA	1616	n/a	n/a	1
185.4860000000	n/a	185486	FrequentVariableSOA	1583	n/a	n/a	1
187.0690000000	n/a	187069	NovelVariableSOA	1666	n/a	n/a	1
188.7360000000	n/a	188736	FrequentVariableSOA	1783	n/a	n/a	1
190.5190000000	n/a	190519	FrequentVariableSOA	1733	n/a	n/a	1
192.2530000000	n/a	192253	GoVariableSOA	394	n/a	n/a	1
193.8690000000	n/a	193869	FrequentVariableSOA	1783	n/a	n/a	1
195.6530000000	n/a	195653	FrequentVariableSOA	1716	n/a	n/a	1
197.3690000000	n/a	197369	FrequentVariableSOA	1666	n/a	n/a	1
199.0360000000	n/a	199036	FrequentVariableSOA	1633	n/a	n/a	1
200.6690000000	n/a	200669	NovelVariableSOA	1566	n/a	n/a	1
202.2360000000	n/a	202236	FrequentVariableSOA	1533	n/a	n/a	1
203.7690000000	n/a	203769	FrequentVariableSOA	1600	n/a	n/a	1
205.3690000000	n/a	205369	FrequentVariableSOA	1616	n/a	n/a	1
206.9860000000	n/a	206986	FrequentVariableSOA	1600	n/a	n/a	1
208.5860000000	n/a	208586	GoVariableSOA	401	n/a	n/a	1
210.1860000000	n/a	210186	FrequentVariableSOA	1666	n/a	n/a	1
211.8530000000	n/a	211853	FrequentVariableSOA	1666	n/a	n/a	1
213.5190000000	n/a	213519	NovelVariableSOA	1566	n/a	n/a	1
215.0860000000	n/a	215086	FrequentVariableSOA	1750	n/a	n/a	1
216.8360000000	n/a	216836	FrequentVariableSOA	1633	n/a	n/a	1
218.4690000000	n/a	218469	GoVariableSOA	376	n/a	n/a	1
220.0530000000	n/a	220053	FrequentVariableSOA	1733	n/a	n/a	1
221.7860000000	n/a	221786	FrequentVariableSOA	1650	n/a	n/a	1
223.4360000000	n/a	223436	FrequentVariableSOA	1783	n/a	n/a	1
225.2190000000	n/a	225219	FrequentVariableSOA	1566	n/a	n/a	1
226.7860000000	n/a	226786	NovelVariableSOA	1766	n/a	n/a	1
228.5530000000	n/a	228553	FrequentVariableSOA	1783	n/a	n/a	1
230.3360000000	n/a	230336	FrequentVariableSOA	1650	n/a	n/a	1
231.9860000000	n/a	231986	GoVariableSOA	358	n/a	n/a	1
233.5360000000	n/a	233536	FrequentFixedSOA	1633	n/a	n/a	1
235.1690000000	n/a	235169	FrequentFixedSOA	1633	n/a	n/a	1
236.8030000000	n/a	236803	FrequentFixedSOA	1633	n/a	n/a	1
238.4360000000	n/a	238436	GoFixedSOA	377	n/a	n/a	1
240.0690000000	n/a	240069	FrequentFixedSOA	1633	n/a	n/a	1
241.7030000000	n/a	241703	FrequentFixedSOA	1633	n/a	n/a	1
243.3360000000	n/a	243336	FrequentFixedSOA	1633	n/a	n/a	1
244.9690000000	n/a	244969	GoFixedSOA	372	n/a	n/a	1
246.6030000000	n/a	246603	FrequentFixedSOA	1633	n/a	n/a	1
248.2360000000	n/a	248236	FrequentFixedSOA	1633	n/a	n/a	1
249.8690000000	n/a	249869	FrequentFixedSOA	1633	n/a	n/a	1
251.5030000000	n/a	251503	NovelFixedSOA	1633	n/a	n/a	1
253.1360000000	n/a	253136	FrequentFixedSOA	1633	n/a	n/a	1
254.7690000000	n/a	254769	NovelFixedSOA	1633	n/a	n/a	1
256.4020000000	n/a	256402	FrequentFixedSOA	1633	n/a	n/a	1
258.0360000000	n/a	258036	FrequentFixedSOA	1633	n/a	n/a	1
259.6690000000	n/a	259669	NovelFixedSOA	1633	n/a	n/a	1
261.3020000000	n/a	261302	FrequentFixedSOA	1633	n/a	n/a	1
262.9360000000	n/a	262936	FrequentFixedSOA	1633	n/a	n/a	1
264.5690000000	n/a	264569	FrequentFixedSOA	1633	n/a	n/a	1
266.2020000000	n/a	266202	FrequentFixedSOA	1633	n/a	n/a	1
267.8360000000	n/a	267836	FrequentFixedSOA	1633	n/a	n/a	1
269.4690000000	n/a	269469	NovelFixedSOA	1633	n/a	n/a	1
271.1020000000	n/a	271102	FrequentFixedSOA	1633	n/a	n/a	1
272.7360000000	n/a	272736	FrequentFixedSOA	1633	n/a	n/a	1
274.3690000000	n/a	274369	FrequentFixedSOA	1633	n/a	n/a	1
276.0020000000	n/a	276002	FrequentFixedSOA	1633	n/a	n/a	1
277.6360000000	n/a	277636	FrequentFixedSOA	1633	n/a	n/a	1
279.2690000000	n/a	279269	GoFixedSOA	426	n/a	n/a	1
280.9020000000	n/a	280902	FrequentFixedSOA	1633	n/a	n/a	1
282.5360000000	n/a	282536	FrequentFixedSOA	1633	n/a	n/a	1
284.1690000000	n/a	284169	GoFixedSOA	373	n/a	n/a	1
285.8020000000	n/a	285802	FrequentFixedSOA	1633	n/a	n/a	1
287.4360000000	n/a	287436	NovelFixedSOA	1633	n/a	n/a	1
289.0690000000	n/a	289069	FrequentFixedSOA	1633	n/a	n/a	1
290.7020000000	n/a	290702	GoFixedSOA	357	n/a	n/a	1
292.3360000000	n/a	292336	FrequentFixedSOA	1633	n/a	n/a	1
293.9690000000	n/a	293969	GoFixedSOA	476	n/a	n/a	1
295.6020000000	n/a	295602	FrequentFixedSOA	1633	n/a	n/a	1
297.2360000000	n/a	297236	FrequentFixedSOA	1633	n/a	n/a	1
298.8690000000	n/a	298869	FrequentFixedSOA	1633	n/a	n/a	1
300.5020000000	n/a	300502	FrequentFixedSOA	1633	n/a	n/a	1
302.1360000000	n/a	302136	GoFixedSOA	365	n/a	n/a	1
303.7690000000	n/a	303769	FrequentFixedSOA	1633	n/a	n/a	1
305.4020000000	n/a	305402	FrequentFixedSOA	1633	n/a	n/a	1
307.0360000000	n/a	307036	FrequentFixedSOA	1633	n/a	n/a	1
308.6690000000	n/a	308669	NovelFixedSOA	1633	n/a	n/a	1
310.3020000000	n/a	310302	FrequentFixedSOA	1633	n/a	n/a	1
311.9360000000	n/a	311936	FrequentFixedSOA	1633	n/a	n/a	1
313.5690000000	n/a	313569	FrequentFixedSOA	1633	n/a	n/a	1
315.2020000000	n/a	315202	FrequentFixedSOA	1633	n/a	n/a	1
316.8360000000	n/a	316836	NovelFixedSOA	1633	n/a	n/a	1
318.4690000000	n/a	318469	FrequentFixedSOA	1633	n/a	n/a	1
320.1020000000	n/a	320102	FrequentFixedSOA	1633	n/a	n/a	1
321.7360000000	n/a	321736	FrequentFixedSOA	1633	n/a	n/a	1
323.3690000000	n/a	323369	FrequentFixedSOA	1633	n/a	n/a	1
325.0020000000	n/a	325002	NovelFixedSOA	1633	n/a	n/a	1
326.6360000000	n/a	326636	FrequentFixedSOA	1633	n/a	n/a	1
328.2690000000	n/a	328269	FrequentFixedSOA	1633	n/a	n/a	1
329.9020000000	n/a	329902	GoFixedSOA	374	n/a	n/a	1
331.5360000000	n/a	331536	FrequentFixedSOA	1633	n/a	n/a	1
333.1690000000	n/a	333169	FrequentFixedSOA	1633	n/a	n/a	1
334.8020000000	n/a	334802	FrequentFixedSOA	1633	n/a	n/a	1
336.4360000000	n/a	336436	FrequentFixedSOA	1633	n/a	n/a	1
338.0690000000	n/a	338069	NovelFixedSOA	1633	n/a	n/a	1
339.7020000000	n/a	339702	FrequentFixedSOA	1633	n/a	n/a	1
341.3360000000	n/a	341336	FrequentFixedSOA	1633	n/a	n/a	1
342.9690000000	n/a	342969	FrequentFixedSOA	1633	n/a	n/a	1
344.6020000000	n/a	344602	FrequentFixedSOA	1633	n/a	n/a	1
346.2360000000	n/a	346236	FrequentFixedSOA	1633	n/a	n/a	1
347.8690000000	n/a	347869	FrequentVariableSOA	1700	n/a	n/a	1
349.5690000000	n/a	349569	FrequentVariableSOA	1583	n/a	n/a	1
351.1520000000	n/a	351152	FrequentVariableSOA	1716	n/a	n/a	1
352.8690000000	n/a	352869	GoVariableSOA	437	n/a	n/a	1
354.5520000000	n/a	354552	FrequentVariableSOA	1700	n/a	n/a	1
356.2520000000	n/a	356252	FrequentVariableSOA	1516	n/a	n/a	1
357.7690000000	n/a	357769	FrequentVariableSOA	1716	n/a	n/a	1
359.4860000000	n/a	359486	GoVariableSOA	1583	n/a	n/a	0
361.0690000000	n/a	361069	FrequentVariableSOA	1783	n/a	n/a	1
362.8520000000	n/a	362852	FrequentVariableSOA	1500	n/a	n/a	1
364.3520000000	n/a	364352	FrequentVariableSOA	1666	n/a	n/a	1
366.0190000000	n/a	366019	NovelVariableSOA	1550	n/a	n/a	1
367.5690000000	n/a	367569	FrequentVariableSOA	1616	n/a	n/a	1
369.1860000000	n/a	369186	NovelVariableSOA	1700	n/a	n/a	1
370.8860000000	n/a	370886	FrequentVariableSOA	1700	n/a	n/a	1
372.5860000000	n/a	372586	FrequentVariableSOA	1666	n/a	n/a	1
374.2520000000	n/a	374252	NovelVariableSOA	1633	n/a	n/a	1
375.8860000000	n/a	375886	FrequentVariableSOA	1633	n/a	n/a	1
377.5190000000	n/a	377519	FrequentVariableSOA	1516	n/a	n/a	1
379.0360000000	n/a	379036	FrequentVariableSOA	1550	n/a	n/a	1
380.5860000000	n/a	380586	FrequentVariableSOA	1750	n/a	n/a	1
382.3360000000	n/a	382336	FrequentVariableSOA	1633	n/a	n/a	1
383.9690000000	n/a	383969	NovelVariableSOA	1683	n/a	n/a	1
385.6520000000	n/a	385652	FrequentVariableSOA	1616	n/a	n/a	1
387.2690000000	n/a	387269	FrequentVariableSOA	1583	n/a	n/a	1
388.8520000000	n/a	388852	FrequentVariableSOA	1783	n/a	n/a	1
390.6360000000	n/a	390636	FrequentVariableSOA	1716	n/a	n/a	1
392.3520000000	n/a	392352	FrequentVariableSOA	1566	n/a	n/a	1
393.9190000000	n/a	393919	GoVariableSOA	392	n/a	n/a	1
395.5690000000	n/a	395569	FrequentVariableSOA	1666	n/a	n/a	1
397.2360000000	n/a	397236	FrequentVariableSOA	1616	n/a	n/a	1
398.8520000000	n/a	398852	GoVariableSOA	298	n/a	n/a	1
400.3860000000	n/a	400386	FrequentVariableSOA	1516	n/a	n/a	1
401.9020000000	n/a	401902	NovelVariableSOA	1516	n/a	n/a	1
403.4190000000	n/a	403419	FrequentVariableSOA	1500	n/a	n/a	1
404.9190000000	n/a	404919	GoVariableSOA	367	n/a	n/a	1
406.5190000000	n/a	406519	FrequentVariableSOA	1800	n/a	n/a	1
408.3190000000	n/a	408319	GoVariableSOA	335	n/a	n/a	1
409.9020000000	n/a	409902	FrequentVariableSOA	1783	n/a	n/a	1
411.6860000000	n/a	411686	FrequentVariableSOA	1583	n/a	n/a	1
413.2690000000	n/a	413269	FrequentVariableSOA	1700	n/a	n/a	1
414.9690000000	n/a	414969	FrequentVariableSOA	1783	n/a	n/a	1
416.7520000000	n/a	416752	GoVariableSOA	546	n/a	n/a	1
418.3690000000	n/a	418369	FrequentVariableSOA	1733	n/a	n/a	1
420.1020000000	n/a	420102	FrequentVariableSOA	1583	n/a	n/a	1
421.6860000000	n/a	421686	FrequentVariableSOA	1600	n/a	n/a	1
423.2860000000	n/a	423286	NovelVariableSOA	1650	n/a	n/a	1
424.9360000000	n/a	424936	FrequentVariableSOA	1583	n/a	n/a	1
426.5190000000	n/a	426519	FrequentVariableSOA	1750	n/a	n/a	1
428.2690000000	n/a	428269	FrequentVariableSOA	1550	n/a	n/a	1
429.8190000000	n/a	429819	FrequentVariableSOA	1650	n/a	n/a	1
431.4690000000	n/a	431469	NovelVariableSOA	1533	n/a	n/a	1
433.0020000000	n/a	433002	FrequentVariableSOA	1650	n/a	n/a	1
434.6520000000	n/a	434652	FrequentVariableSOA	1783	n/a	n/a	1
436.4360000000	n/a	436436	FrequentVariableSOA	1600	n/a	n/a	1
438.0360000000	n/a	438036	FrequentVariableSOA	1783	n/a	n/a	1
439.8190000000	n/a	439819	NovelVariableSOA	1516	n/a	n/a	1
441.3360000000	n/a	441336	FrequentVariableSOA	1633	n/a	n/a	1
442.9690000000	n/a	442969	FrequentVariableSOA	1666	n/a	n/a	1
444.6360000000	n/a	444636	GoVariableSOA	396	n/a	n/a	1
446.2860000000	n/a	446286	FrequentVariableSOA	1550	n/a	n/a	1
447.8360000000	n/a	447836	FrequentVariableSOA	1616	n/a	n/a	1
449.4520000000	n/a	449452	FrequentVariableSOA	1583	n/a	n/a	1
451.0360000000	n/a	451036	FrequentVariableSOA	1566	n/a	n/a	1
452.6020000000	n/a	452602	NovelVariableSOA	1616	n/a	n/a	1
454.2190000000	n/a	454219	FrequentVariableSOA	1633	n/a	n/a	1
455.8520000000	n/a	455852	FrequentVariableSOA	1750	n/a	n/a	1
457.6020000000	n/a	457602	FrequentVariableSOA	1783	n/a	n/a	1
459.3860000000	n/a	459386	FrequentVariableSOA	1600	n/a	n/a	1
460.9860000000	n/a	460986	FrequentVariableSOA	1600	n/a	n/a	1
462.5860000000	n/a	462586	GoFixedSOA	431	n/a	n/a	1
464.2190000000	n/a	464219	FrequentFixedSOA	1633	n/a	n/a	1
465.8520000000	n/a	465852	FrequentFixedSOA	1633	n/a	n/a	1
467.4860000000	n/a	467486	FrequentFixedSOA	1633	n/a	n/a	1
469.1190000000	n/a	469119	FrequentFixedSOA	1633	n/a	n/a	1
470.7520000000	n/a	470752	FrequentFixedSOA	1633	n/a	n/a	1
472.3860000000	n/a	472386	FrequentFixedSOA	1633	n/a	n/a	1
474.0190000000	n/a	474019	NovelFixedSOA	1633	n/a	n/a	1
475.6520000000	n/a	475652	FrequentFixedSOA	1633	n/a	n/a	1
477.2860000000	n/a	477286	FrequentFixedSOA	1633	n/a	n/a	1
478.9190000000	n/a	478919	FrequentFixedSOA	1633	n/a	n/a	1
480.5520000000	n/a	480552	NovelFixedSOA	1633	n/a	n/a	1
482.1860000000	n/a	482186	FrequentFixedSOA	1633	n/a	n/a	1
483.8190000000	n/a	483819	GoFixedSOA	356	n/a	n/a	1
485.4520000000	n/a	485452	FrequentFixedSOA	1633	n/a	n/a	1
487.0860000000	n/a	487086	FrequentFixedSOA	1633	n/a	n/a	1
488.7190000000	n/a	488719	GoFixedSOA	428	n/a	n/a	1
490.3520000000	n/a	490352	FrequentFixedSOA	1633	n/a	n/a	1
491.9850000000	n/a	491985	NovelFixedSOA	1633	n/a	n/a	1
493.6190000000	n/a	493619	FrequentFixedSOA	1633	n/a	n/a	1
495.2520000000	n/a	495252	FrequentFixedSOA	1633	n/a	n/a	1
496.8850000000	n/a	496885	FrequentFixedSOA	1633	n/a	n/a	1
498.5190000000	n/a	498519	FrequentFixedSOA	1633	n/a	n/a	1
500.1520000000	n/a	500152	FrequentFixedSOA	1633	n/a	n/a	1
501.7850000000	n/a	501785	GoFixedSOA	357	n/a	n/a	1
503.4190000000	n/a	503419	FrequentFixedSOA	1633	n/a	n/a	1
505.0520000000	n/a	505052	FrequentFixedSOA	1633	n/a	n/a	1
506.6850000000	n/a	506685	NovelFixedSOA	1633	n/a	n/a	1
508.3190000000	n/a	508319	FrequentFixedSOA	1633	n/a	n/a	1
509.9520000000	n/a	509952	FrequentFixedSOA	1633	n/a	n/a	1
511.5850000000	n/a	511585	FrequentFixedSOA	1633	n/a	n/a	1
513.2190000000	n/a	513219	FrequentFixedSOA	1633	n/a	n/a	1
514.8520000000	n/a	514852	FrequentFixedSOA	1633	n/a	n/a	1
516.4850000000	n/a	516485	NovelFixedSOA	1633	n/a	n/a	1
518.1190000000	n/a	518119	FrequentFixedSOA	1633	n/a	n/a	1
519.7520000000	n/a	519752	FrequentFixedSOA	1633	n/a	n/a	1
521.3850000000	n/a	521385	FrequentFixedSOA	1633	n/a	n/a	1
523.0190000000	n/a	523019	FrequentFixedSOA	1633	n/a	n/a	1
524.6520000000	n/a	524652	GoFixedSOA	324	n/a	n/a	1
526.2850000000	n/a	526285	FrequentFixedSOA	1633	n/a	n/a	1
527.9190000000	n/a	527919	FrequentFixedSOA	1633	n/a	n/a	1
529.5520000000	n/a	529552	NovelFixedSOA	1633	n/a	n/a	1
531.1850000000	n/a	531185	FrequentFixedSOA	1633	n/a	n/a	1
532.8190000000	n/a	532819	FrequentFixedSOA	1633	n/a	n/a	1
534.4520000000	n/a	534452	NovelFixedSOA	1633	n/a	n/a	1
536.0850000000	n/a	536085	FrequentFixedSOA	1633	n/a	n/a	1
537.7190000000	n/a	537719	FrequentFixedSOA	1633	n/a	n/a	1
539.3520000000	n/a	539352	FrequentFixedSOA	1633	n/a	n/a	1
540.9850000000	n/a	540985	FrequentFixedSOA	1633	n/a	n/a	1
542.6190000000	n/a	542619	FrequentFixedSOA	1633	n/a	n/a	1
544.2520000000	n/a	544252	GoFixedSOA	330	n/a	n/a	1
545.8850000000	n/a	545885	FrequentFixedSOA	1633	n/a	n/a	1
547.5190000000	n/a	547519	FrequentFixedSOA	1633	n/a	n/a	1
549.1520000000	n/a	549152	FrequentFixedSOA	1633	n/a	n/a	1
550.7850000000	n/a	550785	FrequentFixedSOA	1633	n/a	n/a	1
552.4190000000	n/a	552419	FrequentFixedSOA	1633	n/a	n/a	1
554.0520000000	n/a	554052	NovelFixedSOA	1633	n/a	n/a	1
555.6850000000	n/a	555685	FrequentFixedSOA	1633	n/a	n/a	1
557.3190000000	n/a	557319	GoFixedSOA	326	n/a	n/a	1
558.9520000000	n/a	558952	FrequentFixedSOA	1633	n/a	n/a	1
560.5850000000	n/a	560585	FrequentFixedSOA	1633	n/a	n/a	1
562.2190000000	n/a	562219	FrequentFixedSOA	1633	n/a	n/a	1
563.8520000000	n/a	563852	FrequentFixedSOA	1633	n/a	n/a	1
565.4850000000	n/a	565485	FrequentFixedSOA	1633	n/a	n/a	1
567.1190000000	n/a	567119	FrequentFixedSOA	1633	n/a	n/a	1
568.7520000000	n/a	568752	FrequentFixedSOA	1633	n/a	n/a	1
570.3850000000	n/a	570385	FrequentFixedSOA	1633	n/a	n/a	1
572.0190000000	n/a	572019	NovelFixedSOA	1633	n/a	n/a	1
573.6520000000	n/a	573652	FrequentFixedSOA	1633	n/a	n/a	1
575.2850000000	n/a	575285	FrequentFixedSOA	1633	n/a	n/a	1
576.9190000000	n/a	576919	GoVariableSOA	466	n/a	n/a	1
578.5850000000	n/a	578585	FrequentVariableSOA	1583	n/a	n/a	1
580.1690000000	n/a	580169	FrequentVariableSOA	1700	n/a	n/a	1
581.8690000000	n/a	581869	FrequentVariableSOA	1533	n/a	n/a	1
583.4020000000	n/a	583402	FrequentVariableSOA	1566	n/a	n/a	1
584.9690000000	n/a	584969	FrequentVariableSOA	1766	n/a	n/a	1
586.7350000000	n/a	586735	FrequentVariableSOA	1550	n/a	n/a	1
588.2850000000	n/a	588285	NovelVariableSOA	1700	n/a	n/a	1
589.9850000000	n/a	589985	FrequentVariableSOA	1700	n/a	n/a	1
591.6850000000	n/a	591685	FrequentVariableSOA	1583	n/a	n/a	1
593.2690000000	n/a	593269	FrequentVariableSOA	1666	n/a	n/a	1
594.9350000000	n/a	594935	NovelVariableSOA	1683	n/a	n/a	1
596.6190000000	n/a	596619	FrequentVariableSOA	1800	n/a	n/a	1
598.4190000000	n/a	598419	GoVariableSOA	437	n/a	n/a	1
600.0690000000	n/a	600069	FrequentVariableSOA	1516	n/a	n/a	1
601.5850000000	n/a	601585	FrequentVariableSOA	1750	n/a	n/a	1
603.3350000000	n/a	603335	GoVariableSOA	354	n/a	n/a	1
604.9690000000	n/a	604969	FrequentVariableSOA	1716	n/a	n/a	1
606.6850000000	n/a	606685	NovelVariableSOA	1800	n/a	n/a	1
608.4850000000	n/a	608485	FrequentVariableSOA	1700	n/a	n/a	1
610.1850000000	n/a	610185	FrequentVariableSOA	1683	n/a	n/a	1
611.8690000000	n/a	611869	FrequentVariableSOA	1750	n/a	n/a	1
613.6190000000	n/a	613619	FrequentVariableSOA	1733	n/a	n/a	1
615.3520000000	n/a	615352	FrequentVariableSOA	1550	n/a	n/a	1
616.9020000000	n/a	616902	GoVariableSOA	349	n/a	n/a	1
618.4690000000	n/a	618469	FrequentVariableSOA	1700	n/a	n/a	1
620.1690000000	n/a	620169	FrequentVariableSOA	1666	n/a	n/a	1
621.8350000000	n/a	621835	NovelVariableSOA	1533	n/a	n/a	1
623.3690000000	n/a	623369	FrequentVariableSOA	1700	n/a	n/a	1
625.0690000000	n/a	625069	FrequentVariableSOA	1550	n/a	n/a	1
626.6190000000	n/a	626619	FrequentVariableSOA	1733	n/a	n/a	1
628.3520000000	n/a	628352	FrequentVariableSOA	1650	n/a	n/a	1
630.0020000000	n/a	630002	FrequentVariableSOA	1533	n/a	n/a	1
631.5350000000	n/a	631535	NovelVariableSOA	1800	n/a	n/a	1
633.3350000000	n/a	633335	FrequentVariableSOA	1516	n/a	n/a	1
634.8520000000	n/a	634852	FrequentVariableSOA	1583	n/a	n/a	1
636.4350000000	n/a	636435	FrequentVariableSOA	1550	n/a	n/a	1
637.9850000000	n/a	637985	FrequentVariableSOA	1616	n/a	n/a	1
639.6020000000	n/a	639602	GoVariableSOA	319	n/a	n/a	1
641.2350000000	n/a	641235	FrequentVariableSOA	1700	n/a	n/a	1
642.9350000000	n/a	642935	FrequentVariableSOA	1616	n/a	n/a	1
644.5520000000	n/a	644552	NovelVariableSOA	1516	n/a	n/a	1
646.0690000000	n/a	646069	FrequentVariableSOA	1566	n/a	n/a	1
647.6350000000	n/a	647635	FrequentVariableSOA	1750	n/a	n/a	1
649.3850000000	n/a	649385	NovelVariableSOA	1650	n/a	n/a	1
651.0350000000	n/a	651035	FrequentVariableSOA	1733	n/a	n/a	1
652.7690000000	n/a	652769	FrequentVariableSOA	1683	n/a	n/a	1
654.4520000000	n/a	654452	FrequentVariableSOA	1533	n/a	n/a	1
655.9850000000	n/a	655985	FrequentVariableSOA	1533	n/a	n/a	1
657.5190000000	n/a	657519	FrequentVariableSOA	1616	n/a	n/a	1
659.1350000000	n/a	659135	GoVariableSOA	433	n/a	n/a	1
660.8020000000	n/a	660802	FrequentVariableSOA	1616	n/a	n/a	1
662.4190000000	n/a	662419	FrequentVariableSOA	1766	n/a	n/a	1
664.1850000000	n/a	664185	FrequentVariableSOA	1583	n/a	n/a	1
665.7690000000	n/a	665769	FrequentVariableSOA	1600	n/a	n/a	1
667.3690000000	n/a	667369	FrequentVariableSOA	1550	n/a	n/a	1
668.9190000000	n/a	668919	NovelVariableSOA	1683	n/a	n/a	1
670.6020000000	n/a	670602	FrequentVariableSOA	1600	n/a	n/a	1
672.2020000000	n/a	672202	GoVariableSOA	395	n/a	n/a	1
673.7350000000	n/a	673735	FrequentVariableSOA	1683	n/a	n/a	1
675.4190000000	n/a	675419	FrequentVariableSOA	1783	n/a	n/a	1
677.2020000000	n/a	677202	FrequentVariableSOA	1516	n/a	n/a	1
678.7190000000	n/a	678719	FrequentVariableSOA	1633	n/a	n/a	1
680.3520000000	n/a	680352	FrequentVariableSOA	1666	n/a	n/a	1
682.0190000000	n/a	682019	FrequentVariableSOA	1666	n/a	n/a	1
683.6850000000	n/a	683685	FrequentVariableSOA	1766	n/a	n/a	1
685.4520000000	n/a	685452	FrequentVariableSOA	1733	n/a	n/a	1
687.1850000000	n/a	687185	NovelVariableSOA	1550	n/a	n/a	1
688.7350000000	n/a	688735	FrequentVariableSOA	1566	n/a	n/a	1
690.3020000000	n/a	690302	FrequentVariableSOA	1666	n/a	n/a	1
691.9690000000	n/a	691969	GoFixedSOA	393	n/a	n/a	1
693.6020000000	n/a	693602	FrequentFixedSOA	1633	n/a	n/a	1
695.2350000000	n/a	695235	FrequentFixedSOA	1633	n/a	n/a	1
696.8690000000	n/a	696869	FrequentFixedSOA	1633	n/a	n/a	1
698.5020000000	n/a	698502	GoFixedSOA	290	n/a	n/a	1
700.1350000000	n/a	700135	FrequentFixedSOA	1633	n/a	n/a	1
701.7690000000	n/a	701769	FrequentFixedSOA	1633	n/a	n/a	1
703.4020000000	n/a	703402	FrequentFixedSOA	1633	n/a	n/a	1
705.0350000000	n/a	705035	FrequentFixedSOA	1633	n/a	n/a	1
706.6690000000	n/a	706669	GoFixedSOA	391	n/a	n/a	1
708.3020000000	n/a	708302	FrequentFixedSOA	1633	n/a	n/a	1
709.9350000000	n/a	709935	FrequentFixedSOA	1633	n/a	n/a	1
711.5690000000	n/a	711569	NovelFixedSOA	1633	n/a	n/a	1
713.2020000000	n/a	713202	FrequentFixedSOA	1633	n/a	n/a	1
714.8350000000	n/a	714835	FrequentFixedSOA	1633	n/a	n/a	1
716.4690000000	n/a	716469	GoFixedSOA	479	n/a	n/a	1
718.1020000000	n/a	718102	FrequentFixedSOA	1633	n/a	n/a	1
719.7350000000	n/a	719735	FrequentFixedSOA	1633	n/a	n/a	1
721.3690000000	n/a	721369	FrequentFixedSOA	1633	n/a	n/a	1
723.0020000000	n/a	723002	NovelFixedSOA	1633	n/a	n/a	1
724.6350000000	n/a	724635	FrequentFixedSOA	1633	n/a	n/a	1
726.2680000000	n/a	726268	NovelFixedSOA	1633	n/a	n/a	1
727.9020000000	n/a	727902	FrequentFixedSOA	1633	n/a	n/a	1
729.5350000000	n/a	729535	FrequentFixedSOA	1633	n/a	n/a	1
731.1680000000	n/a	731168	FrequentFixedSOA	1633	n/a	n/a	1
732.8020000000	n/a	732802	GoFixedSOA	353	n/a	n/a	1
734.4350000000	n/a	734435	FrequentFixedSOA	1633	n/a	n/a	1
736.0680000000	n/a	736068	FrequentFixedSOA	1633	n/a	n/a	1
737.7020000000	n/a	737702	FrequentFixedSOA	1633	n/a	n/a	1
739.3350000000	n/a	739335	GoFixedSOA	330	n/a	n/a	1
740.9680000000	n/a	740968	FrequentFixedSOA	1633	n/a	n/a	1
742.6020000000	n/a	742602	FrequentFixedSOA	1633	n/a	n/a	1
744.2350000000	n/a	744235	NovelFixedSOA	1633	n/a	n/a	1
745.8680000000	n/a	745868	FrequentFixedSOA	1633	n/a	n/a	1
747.5020000000	n/a	747502	GoFixedSOA	1633	n/a	n/a	0
749.1350000000	n/a	749135	FrequentFixedSOA	1633	n/a	n/a	1
750.7680000000	n/a	750768	FrequentFixedSOA	1633	n/a	n/a	1
752.4020000000	n/a	752402	FrequentFixedSOA	1633	n/a	n/a	1
754.0350000000	n/a	754035	FrequentFixedSOA	1633	n/a	n/a	1
755.6680000000	n/a	755668	FrequentFixedSOA	1633	n/a	n/a	1
757.3020000000	n/a	757302	FrequentFixedSOA	1633	n/a	n/a	1
758.9350000000	n/a	758935	NovelFixedSOA	1633	n/a	n/a	1
760.5680000000	n/a	760568	FrequentFixedSOA	1633	n/a	n/a	1
762.2020000000	n/a	762202	FrequentFixedSOA	1633	n/a	n/a	1
763.8350000000	n/a	763835	FrequentFixedSOA	1633	n/a	n/a	1
765.4680000000	n/a	765468	GoFixedSOA	542	n/a	n/a	1
767.1020000000	n/a	767102	FrequentFixedSOA	1633	n/a	n/a	1
768.7350000000	n/a	768735	FrequentFixedSOA	1633	n/a	n/a	1
770.3680000000	n/a	770368	FrequentFixedSOA	1633	n/a	n/a	1
772.0020000000	n/a	772002	FrequentFixedSOA	1633	n/a	n/a	1
773.6350000000	n/a	773635	NovelFixedSOA	1633	n/a	n/a	1
775.2680000000	n/a	775268	FrequentFixedSOA	1633	n/a	n/a	1
776.9020000000	n/a	776902	FrequentFixedSOA	1633	n/a	n/a	1
778.5350000000	n/a	778535	NovelFixedSOA	1633	n/a	n/a	1
780.1680000000	n/a	780168	FrequentFixedSOA	1633	n/a	n/a	1
781.8020000000	n/a	781802	NovelFixedSOA	1633	n/a	n/a	1
783.4350000000	n/a	783435	FrequentFixedSOA	1633	n/a	n/a	1
785.0680000000	n/a	785068	FrequentFixedSOA	1633	n/a	n/a	1
786.7020000000	n/a	786702	FrequentFixedSOA	1633	n/a	n/a	1
788.3350000000	n/a	788335	FrequentFixedSOA	1633	n/a	n/a	1
789.9680000000	n/a	789968	FrequentFixedSOA	1633	n/a	n/a	1
791.6020000000	n/a	791602	FrequentFixedSOA	1633	n/a	n/a	1
793.2350000000	n/a	793235	FrequentFixedSOA	1633	n/a	n/a	1
794.8680000000	n/a	794868	GoFixedSOA	628	n/a	n/a	1
796.5020000000	n/a	796502	FrequentFixedSOA	1633	n/a	n/a	1
798.1350000000	n/a	798135	GoFixedSOA	320	n/a	n/a	1
799.7680000000	n/a	799768	FrequentFixedSOA	1633	n/a	n/a	1
801.4020000000	n/a	801402	FrequentFixedSOA	1633	n/a	n/a	1
803.0350000000	n/a	803035	NovelFixedSOA	1633	n/a	n/a	1
804.6680000000	n/a	804668	FrequentFixedSOA	1633	n/a	n/a	1
806.3020000000	n/a	806302	GoVariableSOA	463	n/a	n/a	1
808.0020000000	n/a	808002	FrequentVariableSOA	1733	n/a	n/a	1
809.7350000000	n/a	809735	FrequentVariableSOA	1616	n/a	n/a	1
811.3520000000	n/a	811352	FrequentVariableSOA	1783	n/a	n/a	1
813.1350000000	n/a	813135	GoVariableSOA	375	n/a	n/a	1
814.7350000000	n/a	814735	FrequentVariableSOA	1800	n/a	n/a	1
816.5350000000	n/a	816535	FrequentVariableSOA	1750	n/a	n/a	1
818.2850000000	n/a	818285	FrequentVariableSOA	1650	n/a	n/a	1
819.9350000000	n/a	819935	FrequentVariableSOA	1616	n/a	n/a	1
821.5520000000	n/a	821552	GoVariableSOA	350	n/a	n/a	1
823.1680000000	n/a	823168	FrequentVariableSOA	1500	n/a	n/a	1
824.6680000000	n/a	824668	FrequentVariableSOA	1583	n/a	n/a	1
826.2520000000	n/a	826252	NovelVariableSOA	1783	n/a	n/a	1
828.0350000000	n/a	828035	FrequentVariableSOA	1600	n/a	n/a	1
829.6350000000	n/a	829635	FrequentVariableSOA	1616	n/a	n/a	1
831.2520000000	n/a	831252	GoVariableSOA	603	n/a	n/a	1
832.8350000000	n/a	832835	FrequentVariableSOA	1766	n/a	n/a	1
834.6020000000	n/a	834602	FrequentVariableSOA	1550	n/a	n/a	1
836.1520000000	n/a	836152	FrequentVariableSOA	1616	n/a	n/a	1
837.7680000000	n/a	837768	NovelVariableSOA	1750	n/a	n/a	1
839.5180000000	n/a	839518	FrequentVariableSOA	1566	n/a	n/a	1
841.0850000000	n/a	841085	NovelVariableSOA	1700	n/a	n/a	1
842.7850000000	n/a	842785	FrequentVariableSOA	1800	n/a	n/a	1
844.5850000000	n/a	844585	FrequentVariableSOA	1766	n/a	n/a	1
846.3520000000	n/a	846352	FrequentVariableSOA	1700	n/a	n/a	1
848.0520000000	n/a	848052	GoVariableSOA	320	n/a	n/a	1
849.7680000000	n/a	849768	FrequentVariableSOA	1533	n/a	n/a	1
851.3020000000	n/a	851302	FrequentVariableSOA	1550	n/a	n/a	1
852.8520000000	n/a	852852	FrequentVariableSOA	1566	n/a	n/a	1
854.4180000000	n/a	854418	GoVariableSOA	360	n/a	n/a	1
856.1020000000	n/a	856102	FrequentVariableSOA	1600	n/a	n/a	1
857.7020000000	n/a	857702	FrequentVariableSOA	1783	n/a	n/a	1
859.4850000000	n/a	859485	NovelVariableSOA	1683	n/a	n/a	1
861.1680000000	n/a	861168	FrequentVariableSOA	1550	n/a	n/a	1
862.7180000000	n/a	862718	GoVariableSOA	506	n/a	n/a	1
864.4180000000	n/a	864418	FrequentVariableSOA	1783	n/a	n/a	1
866.2020000000	n/a	866202	FrequentVariableSOA	1766	n/a	n/a	1
867.9680000000	n/a	867968	FrequentVariableSOA	1566	n/a	n/a	1
869.5350000000	n/a	869535	FrequentVariableSOA	1733	n/a	n/a	1
871.2680000000	n/a	871268	FrequentVariableSOA	1716	n/a	n/a	1
872.9850000000	n/a	872985	FrequentVariableSOA	1750	n/a	n/a	1
874.7350000000	n/a	874735	NovelVariableSOA	1700	n/a	n/a	1
876.4350000000	n/a	876435	FrequentVariableSOA	1550	n/a	n/a	1
877.9850000000	n/a	877985	FrequentVariableSOA	1650	n/a	n/a	1
879.6350000000	n/a	879635	FrequentVariableSOA	1783	n/a	n/a	1
881.4180000000	n/a	881418	GoVariableSOA	259	n/a	n/a	1
883.0350000000	n/a	883035	FrequentVariableSOA	1783	n/a	n/a	1
884.8180000000	n/a	884818	FrequentVariableSOA	1616	n/a	n/a	1
886.4350000000	n/a	886435	FrequentVariableSOA	1766	n/a	n/a	1
888.2020000000	n/a	888202	FrequentVariableSOA	1633	n/a	n/a	1
889.8350000000	n/a	889835	NovelVariableSOA	1716	n/a	n/a	1
891.5520000000	n/a	891552	FrequentVariableSOA	1716	n/a	n/a	1
893.2680000000	n/a	893268	FrequentVariableSOA	1733	n/a	n/a	1
895.0020000000	n/a	895002	NovelVariableSOA	1750	n/a	n/a	1
896.7520000000	n/a	896752	FrequentVariableSOA	1800	n/a	n/a	1
898.5520000000	n/a	898552	NovelVariableSOA	1566	n/a	n/a	1
900.1180000000	n/a	900118	FrequentVariableSOA	1766	n/a	n/a	1
901.8850000000	n/a	901885	FrequentVariableSOA	1766	n/a	n/a	1
903.6520000000	n/a	903652	FrequentVariableSOA	1683	n/a	n/a	1
905.3350000000	n/a	905335	FrequentVariableSOA	1800	n/a	n/a	1
907.1350000000	n/a	907135	FrequentVariableSOA	1683	n/a	n/a	1
908.8180000000	n/a	908818	FrequentVariableSOA	1616	n/a	n/a	1
910.4350000000	n/a	910435	FrequentVariableSOA	1583	n/a	n/a	1
912.0180000000	n/a	912018	GoVariableSOA	395	n/a	n/a	1
913.6020000000	n/a	913602	FrequentVariableSOA	1550	n/a	n/a	1
915.1520000000	n/a	915152	GoVariableSOA	352	n/a	n/a	1
916.7520000000	n/a	916752	FrequentVariableSOA	1716	n/a	n/a	1
918.4680000000	n/a	918468	FrequentVariableSOA	1783	n/a	n/a	1
920.2520000000	n/a	920252	NovelVariableSOA	1666	n/a	n/a	1
921.9180000000	n/a	921918	FrequentVariableSOA	1733	n/a	n/a	1
