onset	duration	sample	trial_type	response_time	stim_file	value	correct
24.0040000000	n/a	24004	ignore	13913	n/a	n/a	1
38.9870000000	n/a	38987	ignore	1000	n/a	n/a	1
40.9870000000	n/a	40987	ignore	1700	n/a	n/a	1
42.6870000000	n/a	42687	ignore	4348	n/a	n/a	1
48.1040000000	n/a	48104	ignore	1000	n/a	n/a	1
50.1040000000	n/a	50104	ignore	1700	n/a	n/a	1
51.8040000000	n/a	51804	ignore	1706	n/a	n/a	1
54.5870000000	n/a	54587	ignore	1000	n/a	n/a	1
56.5870000000	n/a	56587	ignore	1700	n/a	n/a	1
58.2870000000	n/a	58287	ignore	4148	n/a	n/a	1
63.5040000000	n/a	63504	ignore	1000	n/a	n/a	1
65.5040000000	n/a	65504	ignore	1700	n/a	n/a	1
67.2040000000	n/a	67204	ignore	2013	n/a	n/a	1
70.2870000000	n/a	70287	ignore	1000	n/a	n/a	1
72.2870000000	n/a	72287	ignore	1700	n/a	n/a	1
73.9870000000	n/a	73987	ignore	2249	n/a	n/a	1
77.3040000000	n/a	77304	ignore	1000	n/a	n/a	1
79.3040000000	n/a	79304	STATUS	1700	n/a	n/a	1
81.0040000000	n/a	81004	ignore	2284	n/a	n/a	1
84.3540000000	n/a	84354	ignore	1000	n/a	n/a	1
86.3540000000	n/a	86354	STATUS	1700	n/a	n/a	1
88.0540000000	n/a	88054	ignore	1815	n/a	n/a	1
90.9370000000	n/a	90937	ignore	1000	n/a	n/a	1
92.9370000000	n/a	92937	STATUS	1700	n/a	n/a	1
94.6370000000	n/a	94637	ignore	7440	n/a	n/a	1
102.1540000000	n/a	102154	ignore 	2000	n/a	n/a	1
114.1540000000	n/a	114154	ignore	1000	n/a	n/a	1
116.1540000000	n/a	116154	STATUS	1700	n/a	n/a	1
117.8540000000	n/a	117854	ignore	3175	n/a	n/a	1
122.1040000000	n/a	122104	ignore	1000	n/a	n/a	1
124.1040000000	n/a	124104	STATUS	1700	n/a	n/a	1
125.8040000000	n/a	125804	ignore	5387	n/a	n/a	1
132.2540000000	n/a	132254	ignore	1000	n/a	n/a	1
134.2540000000	n/a	134254	STATUS	1700	n/a	n/a	1
135.9540000000	n/a	135954	ignore	5109	n/a	n/a	1
142.1370000000	n/a	142137	ignore	1000	n/a	n/a	1
144.1370000000	n/a	144137	ignore	1700	n/a	n/a	1
145.8370000000	n/a	145837	ignore	10248	n/a	n/a	1
157.1540000000	n/a	157154	ignore	1000	n/a	n/a	1
159.1540000000	n/a	159154	ignore	1700	n/a	n/a	1
160.8540000000	n/a	160854	ignore	8397	n/a	n/a	1
170.3200000000	n/a	170320	ignore	1000	n/a	n/a	1
172.3200000000	n/a	172320	ignore	1700	n/a	n/a	1
174.0200000000	n/a	174020	ignore	12730	n/a	n/a	0
187.8200000000	n/a	187820	ignore	1000	n/a	n/a	1
189.8200000000	n/a	189820	ignore	1700	n/a	n/a	1
191.5200000000	n/a	191520	ignore	3704	n/a	n/a	1
196.2870000000	n/a	196287	ignore	1000	n/a	n/a	1
198.2870000000	n/a	198287	ignore	1700	n/a	n/a	1
199.9870000000	n/a	199987	ignore	4001	n/a	n/a	1
204.0540000000	n/a	204054	ignore 	2000	n/a	n/a	1
213.2700000000	n/a	213270	PenaltyB1	5077	n/a	n/a	0
219.4200000000	n/a	219420	PunIncorrB1	1000	n/a	n/a	1
221.4200000000	n/a	221420	ignore	1700	n/a	n/a	1
223.1200000000	n/a	223120	PenaltyB1	6065	n/a	n/a	0
230.2540000000	n/a	230254	PunIncorrB1	1000	n/a	n/a	1
232.2540000000	n/a	232254	STATUS	1700	n/a	n/a	1
233.9540000000	n/a	233954	PenaltyB1	5665	n/a	n/a	1
240.6870000000	n/a	240687	NeuCorrB1	1000	n/a	n/a	1
242.6870000000	n/a	242687	STATUS	1700	n/a	n/a	1
244.3870000000	n/a	244387	RewardB1	1677	n/a	n/a	0
247.1370000000	n/a	247137	NeuIncorrB1	1000	n/a	n/a	1
249.1370000000	n/a	249137	STATUS	1700	n/a	n/a	1
250.8370000000	n/a	250837	RewardB1	3263	n/a	n/a	1
255.1700000000	n/a	255170	RewardCorrB1	1000	n/a	n/a	1
257.1700000000	n/a	257170	ignore	1700	n/a	n/a	1
258.8700000000	n/a	258870	PenaltyB1	1473	n/a	n/a	1
261.4200000000	n/a	261420	NeuCorrB1	1000	n/a	n/a	1
263.4200000000	n/a	263420	ignore	1700	n/a	n/a	1
265.1200000000	n/a	265120	PenaltyB1	1317	n/a	n/a	1
267.5040000000	n/a	267504	NeuCorrB1	1000	n/a	n/a	1
269.5040000000	n/a	269504	ignore	1700	n/a	n/a	1
271.2040000000	n/a	271204	PenaltyB1	913	n/a	n/a	1
273.1870000000	n/a	273187	NeuCorrB1	1000	n/a	n/a	1
275.1870000000	n/a	275187	ignore	1700	n/a	n/a	1
276.8870000000	n/a	276887	PenaltyB1	2548	n/a	n/a	0
280.5030000000	n/a	280503	NeuIncorrB1	1000	n/a	n/a	1
282.5040000000	n/a	282504	ignore	1700	n/a	n/a	1
284.2030000000	n/a	284203	RewardB1	1932	n/a	n/a	1
287.2030000000	n/a	287203	RewardCorrB1	1000	n/a	n/a	1
289.2040000000	n/a	289204	ignore	1700	n/a	n/a	1
290.9030000000	n/a	290903	PenaltyB1	1129	n/a	n/a	1
293.1030000000	n/a	293103	NeuCorrB1	1000	n/a	n/a	1
295.1040000000	n/a	295104	ignore	1700	n/a	n/a	1
296.8030000000	n/a	296803	RewardB1	1566	n/a	n/a	0
299.4370000000	n/a	299437	RewIncorrB1	1000	n/a	n/a	1
301.4370000000	n/a	301437	ignore	1700	n/a	n/a	1
303.1370000000	n/a	303137	PenaltyB1	1203	n/a	n/a	0
305.4030000000	n/a	305403	PunIncorrB1	1000	n/a	n/a	1
307.4040000000	n/a	307404	ignore	1700	n/a	n/a	1
309.1030000000	n/a	309103	RewardB1	884	n/a	n/a	0
311.0530000000	n/a	311053	NeuIncorrB1	1000	n/a	n/a	1
313.0540000000	n/a	313054	ignore	1700	n/a	n/a	1
314.7530000000	n/a	314753	PenaltyB1	1334	n/a	n/a	1
317.1530000000	n/a	317153	NeuCorrB1	1000	n/a	n/a	1
319.1540000000	n/a	319154	ignore	1700	n/a	n/a	1
320.8530000000	n/a	320853	PenaltyB1	972	n/a	n/a	1
322.9030000000	n/a	322903	NeuCorrB1	1000	n/a	n/a	1
324.9030000000	n/a	324903	ignore	1700	n/a	n/a	1
326.6030000000	n/a	326603	RewardB1	2083	n/a	n/a	0
329.7530000000	n/a	329753	RewIncorrB1	1000	n/a	n/a	1
331.7530000000	n/a	331753	ignore	1700	n/a	n/a	1
333.4530000000	n/a	333453	PenaltyB1	7187	n/a	n/a	1
341.7030000000	n/a	341703	NeuCorrB1	1000	n/a	n/a	1
343.7030000000	n/a	343703	ignore	1700	n/a	n/a	1
345.4030000000	n/a	345403	RewardB1	3116	n/a	n/a	0
349.5870000000	n/a	349587	NeuIncorrB1	1000	n/a	n/a	1
351.5870000000	n/a	351587	ignore	1700	n/a	n/a	1
353.2870000000	n/a	353287	RewardB1	7622	n/a	n/a	0
361.9870000000	n/a	361987	NeuIncorrB1	1000	n/a	n/a	1
363.9870000000	n/a	363987	ignore	1700	n/a	n/a	1
365.6870000000	n/a	365687	RewardB1	3263	n/a	n/a	1
370.0200000000	n/a	370020	NeuCorrB1	1000	n/a	n/a	1
372.0200000000	n/a	372020	ignore	1700	n/a	n/a	1
373.7200000000	n/a	373720	RewardB1	3396	n/a	n/a	1
378.1870000000	n/a	378187	RewardCorrB1	1000	n/a	n/a	1
380.1870000000	n/a	380187	ignore	1700	n/a	n/a	1
381.8870000000	n/a	381887	RewardB1	819	n/a	n/a	0
383.7700000000	n/a	383770	NeuIncorrB1	1000	n/a	n/a	1
385.7700000000	n/a	385770	ignore	1700	n/a	n/a	1
387.4700000000	n/a	387470	PenaltyB1	2124	n/a	n/a	1
390.6700000000	n/a	390670	NeuCorrB1	1000	n/a	n/a	1
392.6700000000	n/a	392670	ignore	1700	n/a	n/a	1
394.3700000000	n/a	394370	RewardB1	1105	n/a	n/a	1
396.5530000000	n/a	396553	RewardCorrB1	1000	n/a	n/a	1
398.5530000000	n/a	398553	ignore	1700	n/a	n/a	1
400.2530000000	n/a	400253	PenaltyB1	1231	n/a	n/a	0
402.5530000000	n/a	402553	NeuIncorrB1	1000	n/a	n/a	1
404.5530000000	n/a	404553	ignore	1700	n/a	n/a	1
406.2530000000	n/a	406253	RewardB1	991	n/a	n/a	1
408.3200000000	n/a	408320	RewardCorrB1	1000	n/a	n/a	1
410.3200000000	n/a	410320	ignore	1700	n/a	n/a	1
412.0200000000	n/a	412020	RewardB1	3683	n/a	n/a	0
416.7700000000	n/a	416770	NeuIncorrB1	1000	n/a	n/a	1
418.7700000000	n/a	418770	ignore	1700	n/a	n/a	1
420.4700000000	n/a	420470	RewardB1	3892	n/a	n/a	1
425.4370000000	n/a	425437	RewardCorrB1	1000	n/a	n/a	1
427.4370000000	n/a	427437	ignore	1700	n/a	n/a	1
429.1370000000	n/a	429137	PenaltyB1	1602	n/a	n/a	0
431.8030000000	n/a	431803	PunIncorrB1	1000	n/a	n/a	1
433.8030000000	n/a	433803	ignore	1700	n/a	n/a	1
435.5030000000	n/a	435503	RewardB1	874	n/a	n/a	1
437.4530000000	n/a	437453	NeuCorrB1	1000	n/a	n/a	1
439.4530000000	n/a	439453	ignore	1700	n/a	n/a	1
441.1530000000	n/a	441153	PenaltyB1	3394	n/a	n/a	0
445.6200000000	n/a	445620	PunIncorrB1	1000	n/a	n/a	1
447.6200000000	n/a	447620	ignore	1700	n/a	n/a	1
449.3200000000	n/a	449320	RewardB1	814	n/a	n/a	0
451.2030000000	n/a	451203	NeuIncorrB1	1000	n/a	n/a	1
453.2030000000	n/a	453203	ignore	1700	n/a	n/a	1
454.9030000000	n/a	454903	PenaltyB1	2581	n/a	n/a	0
458.5530000000	n/a	458553	NeuIncorrB1	1000	n/a	n/a	1
460.5530000000	n/a	460553	ignore	1700	n/a	n/a	1
462.2530000000	n/a	462253	RewardB1	827	n/a	n/a	1
464.1530000000	n/a	464153	RewardCorrB1	1000	n/a	n/a	1
466.1530000000	n/a	466153	ignore	1700	n/a	n/a	1
467.8530000000	n/a	467853	PenaltyB1	3171	n/a	n/a	0
472.0870000000	n/a	472087	PunIncorrB1	1000	n/a	n/a	1
474.0870000000	n/a	474087	ignore	1700	n/a	n/a	1
475.7870000000	n/a	475787	PenaltyB1	983	n/a	n/a	1
477.8370000000	n/a	477837	NeuCorrB1	1000	n/a	n/a	1
479.8370000000	n/a	479837	ignore	1700	n/a	n/a	1
481.5370000000	n/a	481537	RewardB1	1048	n/a	n/a	1
483.6530000000	n/a	483653	RewardCorrB1	1000	n/a	n/a	1
485.6530000000	n/a	485653	ignore	1700	n/a	n/a	1
487.3530000000	n/a	487353	PenaltyB1	1005	n/a	n/a	1
489.4370000000	n/a	489437	PunCorrB1	1000	n/a	n/a	1
491.4370000000	n/a	491437	ignore	1700	n/a	n/a	1
493.1370000000	n/a	493137	RewardB1	811	n/a	n/a	0
495.0200000000	n/a	495020	NeuIncorrB1	1000	n/a	n/a	1
497.0200000000	n/a	497020	ignore	1700	n/a	n/a	1
507.6370000000	n/a	507637	RewardB2	2625	n/a	n/a	0
511.3370000000	n/a	511337	NeuIncorrB2	1000	n/a	n/a	1
513.3370000000	n/a	513337	ignore	1700	n/a	n/a	1
515.0370000000	n/a	515037	PenaltyB2	2383	n/a	n/a	1
518.4870000000	n/a	518487	NeuCorrB2	1000	n/a	n/a	1
520.4870000000	n/a	520487	ignore	1700	n/a	n/a	1
522.1870000000	n/a	522187	RewardB2	4572	n/a	n/a	0
527.8370000000	n/a	527837	NeuIncorrB2	1000	n/a	n/a	1
529.8370000000	n/a	529837	ignore	1700	n/a	n/a	1
531.5370000000	n/a	531537	RewardB2	730	n/a	n/a	1
533.3370000000	n/a	533337	NeuCorrB2	1000	n/a	n/a	1
535.3370000000	n/a	535337	ignore	1700	n/a	n/a	1
537.0360000000	n/a	537036	PenaltyB2	3968	n/a	n/a	0
542.0700000000	n/a	542070	PunIncorrB2	1000	n/a	n/a	1
544.0700000000	n/a	544070	ignore	1700	n/a	n/a	1
545.7700000000	n/a	545770	RewardB2	854	n/a	n/a	1
547.6860000000	n/a	547686	RewardCorrB2	1000	n/a	n/a	1
549.6870000000	n/a	549687	ignore	1700	n/a	n/a	1
551.3860000000	n/a	551386	PenaltyB2	1019	n/a	n/a	1
553.4700000000	n/a	553470	NeuCorrB2	1000	n/a	n/a	1
555.4700000000	n/a	555470	ignore	1700	n/a	n/a	1
557.1700000000	n/a	557170	RewardB2	887	n/a	n/a	1
559.1200000000	n/a	559120	RewardCorrB2	1000	n/a	n/a	1
561.1200000000	n/a	561120	ignore	1700	n/a	n/a	1
562.8200000000	n/a	562820	PenaltyB2	1287	n/a	n/a	1
565.1700000000	n/a	565170	NeuCorrB2	1000	n/a	n/a	1
567.1700000000	n/a	567170	ignore	1700	n/a	n/a	1
568.8700000000	n/a	568870	RewardB2	953	n/a	n/a	0
570.8860000000	n/a	570886	NeuIncorrB2	1000	n/a	n/a	1
572.8870000000	n/a	572887	ignore	1700	n/a	n/a	1
574.5860000000	n/a	574586	PenaltyB2	6842	n/a	n/a	1
582.5030000000	n/a	582503	PunCorrB2	1000	n/a	n/a	1
584.5030000000	n/a	584503	ignore	1700	n/a	n/a	1
586.2030000000	n/a	586203	RewardB2	973	n/a	n/a	0
588.2530000000	n/a	588253	NeuIncorrB2	1000	n/a	n/a	1
590.2530000000	n/a	590253	ignore	1700	n/a	n/a	1
591.9530000000	n/a	591953	PenaltyB2	855	n/a	n/a	0
593.8860000000	n/a	593886	PunIncorrB2	1000	n/a	n/a	1
595.8860000000	n/a	595886	ignore	1700	n/a	n/a	1
597.5860000000	n/a	597586	RewardB2	1194	n/a	n/a	1
599.8530000000	n/a	599853	RewardCorrB2	1000	n/a	n/a	1
601.8530000000	n/a	601853	ignore	1700	n/a	n/a	1
603.5530000000	n/a	603553	PenaltyB2	2300	n/a	n/a	1
606.9200000000	n/a	606920	NeuCorrB2	1000	n/a	n/a	1
608.9200000000	n/a	608920	ignore	1700	n/a	n/a	1
610.6200000000	n/a	610620	RewardB2	1083	n/a	n/a	1
612.7700000000	n/a	612770	NeuCorrB2	1000	n/a	n/a	1
614.7700000000	n/a	614770	ignore	1700	n/a	n/a	1
616.4700000000	n/a	616470	PenaltyB2	1165	n/a	n/a	1
618.7030000000	n/a	618703	NeuCorrB2	1000	n/a	n/a	1
620.7030000000	n/a	620703	ignore	1700	n/a	n/a	1
622.4030000000	n/a	622403	RewardB2	1549	n/a	n/a	1
625.0200000000	n/a	625020	RewardCorrB2	1000	n/a	n/a	1
627.0200000000	n/a	627020	ignore	1700	n/a	n/a	1
628.7200000000	n/a	628720	PenaltyB2	10877	n/a	n/a	0
640.6700000000	n/a	640670	PunIncorrB2	1000	n/a	n/a	1
642.6700000000	n/a	642670	ignore	1700	n/a	n/a	1
644.3700000000	n/a	644370	RewardB2	713	n/a	n/a	0
646.1530000000	n/a	646153	NeuIncorrB2	1000	n/a	n/a	1
648.1530000000	n/a	648153	ignore	1700	n/a	n/a	1
649.8530000000	n/a	649853	PenaltyB2	2302	n/a	n/a	1
653.2200000000	n/a	653220	PunCorrB2	1000	n/a	n/a	1
655.2200000000	n/a	655220	ignore	1700	n/a	n/a	1
656.9200000000	n/a	656920	PenaltyB2	1275	n/a	n/a	1
659.2700000000	n/a	659270	NeuCorrB2	1000	n/a	n/a	1
661.2700000000	n/a	661270	ignore	1700	n/a	n/a	1
662.9700000000	n/a	662970	PenaltyB2	6860	n/a	n/a	1
670.9030000000	n/a	670903	NeuCorrB2	1000	n/a	n/a	1
672.9030000000	n/a	672903	ignore	1700	n/a	n/a	1
674.6030000000	n/a	674603	RewardB2	816	n/a	n/a	1
676.4860000000	n/a	676486	RewardCorrB2	1000	n/a	n/a	1
678.4860000000	n/a	678486	ignore	1700	n/a	n/a	1
680.1860000000	n/a	680186	RewardB2	751	n/a	n/a	0
682.0030000000	n/a	682003	RewIncorrB2	1000	n/a	n/a	1
684.0030000000	n/a	684003	ignore	1700	n/a	n/a	1
685.7030000000	n/a	685703	RewardB2	886	n/a	n/a	0
687.6530000000	n/a	687653	NeuIncorrB2	1000	n/a	n/a	1
689.6530000000	n/a	689653	ignore	1700	n/a	n/a	1
691.3530000000	n/a	691353	PenaltyB2	1134	n/a	n/a	1
693.5530000000	n/a	693553	NeuCorrB2	1000	n/a	n/a	1
695.5530000000	n/a	695553	ignore	1700	n/a	n/a	1
697.2530000000	n/a	697253	PenaltyB2	2290	n/a	n/a	1
700.6200000000	n/a	700620	NeuCorrB2	1000	n/a	n/a	1
702.6200000000	n/a	702620	ignore	1700	n/a	n/a	1
704.3200000000	n/a	704320	RewardB2	718	n/a	n/a	1
706.1030000000	n/a	706103	RewardCorrB2	1000	n/a	n/a	1
708.1030000000	n/a	708103	ignore	1700	n/a	n/a	1
709.8030000000	n/a	709803	PenaltyB2	964	n/a	n/a	1
711.8360000000	n/a	711836	NeuCorrB2	1000	n/a	n/a	1
713.8360000000	n/a	713836	ignore	1700	n/a	n/a	1
715.5360000000	n/a	715536	RewardB2	794	n/a	n/a	0
717.4030000000	n/a	717403	RewIncorrB2	1000	n/a	n/a	1
719.4030000000	n/a	719403	ignore	1700	n/a	n/a	1
721.1030000000	n/a	721103	PenaltyB2	1821	n/a	n/a	0
723.9860000000	n/a	723986	PunIncorrB2	1000	n/a	n/a	1
725.9860000000	n/a	725986	ignore	1700	n/a	n/a	1
727.6860000000	n/a	727686	RewardB2	852	n/a	n/a	1
729.6030000000	n/a	729603	RewardCorrB2	1000	n/a	n/a	1
731.6030000000	n/a	731603	ignore	1700	n/a	n/a	1
733.3030000000	n/a	733303	PenaltyB2	981	n/a	n/a	1
735.3530000000	n/a	735353	NeuCorrB2	1000	n/a	n/a	1
737.3530000000	n/a	737353	ignore	1700	n/a	n/a	1
739.0530000000	n/a	739053	PenaltyB2	4988	n/a	n/a	0
745.1200000000	n/a	745120	NeuIncorrB2	1000	n/a	n/a	1
747.1200000000	n/a	747120	ignore	1700	n/a	n/a	1
748.8200000000	n/a	748820	RewardB2	946	n/a	n/a	0
750.8360000000	n/a	750836	NeuIncorrB2	1000	n/a	n/a	1
752.8360000000	n/a	752836	ignore	1700	n/a	n/a	1
754.5360000000	n/a	754536	PenaltyB2	1484	n/a	n/a	1
757.0860000000	n/a	757086	NeuCorrB2	1000	n/a	n/a	1
759.0860000000	n/a	759086	ignore	1700	n/a	n/a	1
760.7860000000	n/a	760786	RewardB2	902	n/a	n/a	1
762.7530000000	n/a	762753	RewardCorrB2	1000	n/a	n/a	1
764.7530000000	n/a	764753	ignore	1700	n/a	n/a	1
766.4530000000	n/a	766453	PenaltyB2	4221	n/a	n/a	1
771.7360000000	n/a	771736	PunCorrB2	1000	n/a	n/a	1
773.7360000000	n/a	773736	ignore	1700	n/a	n/a	1
775.4360000000	n/a	775436	RewardB2	961	n/a	n/a	0
777.4700000000	n/a	777470	NeuIncorrB2	1000	n/a	n/a	1
779.4700000000	n/a	779470	ignore	1700	n/a	n/a	1
789.9700000000	n/a	789970	RewardB3	2590	n/a	n/a	0
793.6360000000	n/a	793636	NeuIncorrB3	1000	n/a	n/a	1
795.6360000000	n/a	795636	ignore	1700	n/a	n/a	1
797.3360000000	n/a	797336	PenaltyB3	5101	n/a	n/a	1
803.5030000000	n/a	803503	PunCorrB3	1000	n/a	n/a	1
805.5030000000	n/a	805503	ignore	1700	n/a	n/a	1
807.2030000000	n/a	807203	RewardB3	1283	n/a	n/a	1
809.5530000000	n/a	809553	RewardCorrB3	1000	n/a	n/a	1
811.5530000000	n/a	811553	ignore	1700	n/a	n/a	1
813.2530000000	n/a	813253	PenaltyB3	1213	n/a	n/a	1
815.5360000000	n/a	815536	NeuCorrB3	1000	n/a	n/a	1
817.5360000000	n/a	817536	ignore	1700	n/a	n/a	1
819.2360000000	n/a	819236	PenaltyB3	980	n/a	n/a	1
821.2860000000	n/a	821286	NeuCorrB3	1000	n/a	n/a	1
823.2860000000	n/a	823286	ignore	1700	n/a	n/a	1
824.9860000000	n/a	824986	RewardB3	874	n/a	n/a	1
826.9360000000	n/a	826936	RewardCorrB3	1000	n/a	n/a	1
828.9360000000	n/a	828936	ignore	1700	n/a	n/a	1
830.6360000000	n/a	830636	PenaltyB3	789	n/a	n/a	1
832.5030000000	n/a	832503	PunCorrB3	1000	n/a	n/a	1
834.5030000000	n/a	834503	ignore	1700	n/a	n/a	1
836.2030000000	n/a	836203	RewardB3	797	n/a	n/a	0
838.0690000000	n/a	838069	NeuIncorrB3	1000	n/a	n/a	1
840.0700000000	n/a	840070	ignore	1700	n/a	n/a	1
841.7690000000	n/a	841769	PenaltyB3	2688	n/a	n/a	1
845.5190000000	n/a	845519	NeuCorrB3	1000	n/a	n/a	1
847.5200000000	n/a	847520	ignore	1700	n/a	n/a	1
849.2190000000	n/a	849219	RewardB3	833	n/a	n/a	1
851.1190000000	n/a	851119	NeuCorrB3	1000	n/a	n/a	1
853.1190000000	n/a	853119	ignore	1700	n/a	n/a	1
854.8190000000	n/a	854819	PenaltyB3	1207	n/a	n/a	1
857.1030000000	n/a	857103	NeuCorrB3	1000	n/a	n/a	1
859.1030000000	n/a	859103	ignore	1700	n/a	n/a	1
860.8030000000	n/a	860803	RewardB3	623	n/a	n/a	1
862.5030000000	n/a	862503	RewardCorrB3	1000	n/a	n/a	1
864.5030000000	n/a	864503	ignore	1700	n/a	n/a	1
866.2030000000	n/a	866203	RewardB3	655	n/a	n/a	0
867.9190000000	n/a	867919	NeuIncorrB3	1000	n/a	n/a	1
869.9190000000	n/a	869919	ignore	1700	n/a	n/a	1
871.6190000000	n/a	871619	RewardB3	738	n/a	n/a	1
873.4190000000	n/a	873419	RewardCorrB3	1000	n/a	n/a	1
875.4190000000	n/a	875419	STATUS	1700	n/a	n/a	1
877.1190000000	n/a	877119	PenaltyB3	716	n/a	n/a	1
878.9030000000	n/a	878903	PunCorrB3	1000	n/a	n/a	1
880.9030000000	n/a	880903	ignore	1700	n/a	n/a	1
882.6030000000	n/a	882603	RewardB3	653	n/a	n/a	1
884.3190000000	n/a	884319	RewardCorrB3	1000	n/a	n/a	1
886.3190000000	n/a	886319	STATUS	1700	n/a	n/a	1
888.0190000000	n/a	888019	PenaltyB3	972	n/a	n/a	0
890.0690000000	n/a	890069	PunIncorrB3	1000	n/a	n/a	1
892.0690000000	n/a	892069	ignore	1700	n/a	n/a	1
893.7690000000	n/a	893769	RewardB3	779	n/a	n/a	0
895.6190000000	n/a	895619	NeuIncorrB3	1000	n/a	n/a	1
897.6190000000	n/a	897619	ignore	1700	n/a	n/a	1
899.3190000000	n/a	899319	RewardB3	1755	n/a	n/a	1
902.1530000000	n/a	902153	RewardCorrB3	1000	n/a	n/a	1
904.1530000000	n/a	904153	STATUS	1700	n/a	n/a	1
905.8530000000	n/a	905853	RewardB3	960	n/a	n/a	1
907.8860000000	n/a	907886	NeuCorrB3	1000	n/a	n/a	1
909.8860000000	n/a	909886	STATUS	1700	n/a	n/a	1
911.5860000000	n/a	911586	RewardB3	1367	n/a	n/a	0
914.0190000000	n/a	914019	NeuIncorrB3	1000	n/a	n/a	1
916.0190000000	n/a	916019	STATUS	1700	n/a	n/a	1
917.7190000000	n/a	917719	RewardB3	2667	n/a	n/a	1
921.4530000000	n/a	921453	RewardCorrB3	1000	n/a	n/a	1
923.4530000000	n/a	923453	STATUS	1700	n/a	n/a	1
925.1530000000	n/a	925153	PenaltyB3	724	n/a	n/a	1
926.9530000000	n/a	926953	NeuCorrB3	1000	n/a	n/a	1
928.9530000000	n/a	928953	STATUS	1700	n/a	n/a	1
930.6530000000	n/a	930653	RewardB3	807	n/a	n/a	0
932.5360000000	n/a	932536	RewIncorrB3	1000	n/a	n/a	1
934.5360000000	n/a	934536	STATUS	1700	n/a	n/a	1
936.2360000000	n/a	936236	PenaltyB3	1162	n/a	n/a	1
938.4690000000	n/a	938469	NeuCorrB3	1000	n/a	n/a	1
940.4690000000	n/a	940469	STATUS	1700	n/a	n/a	1
942.1690000000	n/a	942169	PenaltyB3	921	n/a	n/a	1
944.1530000000	n/a	944153	NeuCorrB3	1000	n/a	n/a	1
946.1530000000	n/a	946153	STATUS	1700	n/a	n/a	1
947.8530000000	n/a	947853	RewardB3	815	n/a	n/a	0
949.7360000000	n/a	949736	NeuIncorrB3	1000	n/a	n/a	1
951.7360000000	n/a	951736	STATUS	1700	n/a	n/a	1
953.4360000000	n/a	953436	PenaltyB3	1356	n/a	n/a	1
955.8690000000	n/a	955869	NeuCorrB3	1000	n/a	n/a	1
957.8690000000	n/a	957869	STATUS	1700	n/a	n/a	1
959.5690000000	n/a	959569	RewardB3	3312	n/a	n/a	1
963.9530000000	n/a	963953	NeuCorrB3	1000	n/a	n/a	1
965.9530000000	n/a	965953	STATUS	1700	n/a	n/a	1
967.6530000000	n/a	967653	PenaltyB3	1267	n/a	n/a	1
969.9860000000	n/a	969986	NeuCorrB3	1000	n/a	n/a	1
971.9860000000	n/a	971986	STATUS	1700	n/a	n/a	1
973.6860000000	n/a	973686	RewardB3	1052	n/a	n/a	1
975.8030000000	n/a	975803	RewardCorrB3	1000	n/a	n/a	1
977.8030000000	n/a	977803	STATUS	1700	n/a	n/a	1
979.5030000000	n/a	979503	PenaltyB3	841	n/a	n/a	1
981.4190000000	n/a	981419	PunCorrB3	1000	n/a	n/a	1
983.4190000000	n/a	983419	STATUS	1700	n/a	n/a	1
985.1190000000	n/a	985119	PenaltyB3	499	n/a	n/a	0
986.6860000000	n/a	986686	PunIncorrB3	1000	n/a	n/a	1
988.6860000000	n/a	988686	STATUS	1700	n/a	n/a	1
990.3860000000	n/a	990386	PenaltyB3	2515	n/a	n/a	1
993.9690000000	n/a	993969	NeuCorrB3	1000	n/a	n/a	1
995.9690000000	n/a	995969	STATUS	1700	n/a	n/a	1
997.6690000000	n/a	997669	PenaltyB3	2127	n/a	n/a	0
1000.8690000000	n/a	1000869	PunIncorrB3	1000	n/a	n/a	1
1002.8690000000	n/a	1002869	STATUS	1700	n/a	n/a	1
1004.5690000000	n/a	1004569	RewardB3	1119	n/a	n/a	1
1006.7530000000	n/a	1006753	RewardCorrB3	1000	n/a	n/a	1
1008.7530000000	n/a	1008753	STATUS	1700	n/a	n/a	1
1010.4530000000	n/a	1010453	RewardB3	740	n/a	n/a	0
1012.2690000000	n/a	1012269	NeuIncorrB3	1000	n/a	n/a	1
1014.2690000000	n/a	1014269	STATUS	1700	n/a	n/a	1
1015.9690000000	n/a	1015969	PenaltyB3	3306	n/a	n/a	1
1020.3530000000	n/a	1020353	NeuCorrB3	1000	n/a	n/a	1
1022.3530000000	n/a	1022353	STATUS	1700	n/a	n/a	1
1024.0530000000	n/a	1024053	PenaltyB3	2677	n/a	n/a	1
1027.8030000000	n/a	1027803	NeuCorrB3	1000	n/a	n/a	1
1029.8030000000	n/a	1029803	STATUS	1700	n/a	n/a	1
1031.5030000000	n/a	1031503	PenaltyB3	1309	n/a	n/a	1
1033.8860000000	n/a	1033886	NeuCorrB3	1000	n/a	n/a	1
1035.8860000000	n/a	1035886	STATUS	1700	n/a	n/a	1
1046.0530000000	n/a	1046053	RewardB4	3650	n/a	n/a	0
1050.7690000000	n/a	1050769	NeuIncorrB4	1000	n/a	n/a	1
1052.7690000000	n/a	1052769	STATUS	1700	n/a	n/a	1
1054.4690000000	n/a	1054469	PenaltyB4	1333	n/a	n/a	0
1056.8690000000	n/a	1056869	NeuIncorrB4	1000	n/a	n/a	1
1058.8690000000	n/a	1058869	STATUS	1700	n/a	n/a	1
1060.5690000000	n/a	1060569	RewardB4	1152	n/a	n/a	1
1062.7860000000	n/a	1062786	RewardCorrB4	1000	n/a	n/a	1
1064.7860000000	n/a	1064786	STATUS	1700	n/a	n/a	1
1066.4860000000	n/a	1066486	PenaltyB4	1641	n/a	n/a	0
1069.2030000000	n/a	1069203	PunIncorrB4	1000	n/a	n/a	1
1071.2030000000	n/a	1071203	STATUS	1700	n/a	n/a	1
1072.9020000000	n/a	1072902	RewardB4	1386	n/a	n/a	0
1075.3520000000	n/a	1075352	NeuIncorrB4	1000	n/a	n/a	1
1077.3530000000	n/a	1077353	STATUS	1700	n/a	n/a	1
1079.0520000000	n/a	1079052	PenaltyB4	1792	n/a	n/a	0
1081.9190000000	n/a	1081919	NeuIncorrB4	1000	n/a	n/a	1
1083.9190000000	n/a	1083919	STATUS	1700	n/a	n/a	1
1085.6190000000	n/a	1085619	PenaltyB4	1114	n/a	n/a	1
1087.8020000000	n/a	1087802	NeuCorrB4	1000	n/a	n/a	1
1089.8030000000	n/a	1089803	STATUS	1700	n/a	n/a	1
1091.5020000000	n/a	1091502	RewardB4	1357	n/a	n/a	1
1093.9360000000	n/a	1093936	RewardCorrB4	1000	n/a	n/a	1
1095.9360000000	n/a	1095936	STATUS	1700	n/a	n/a	1
1097.6360000000	n/a	1097636	PenaltyB4	950	n/a	n/a	1
1099.6520000000	n/a	1099652	NeuCorrB4	1000	n/a	n/a	1
1101.6530000000	n/a	1101653	STATUS	1700	n/a	n/a	1
1103.3520000000	n/a	1103352	RewardB4	3161	n/a	n/a	0
1107.5860000000	n/a	1107586	RewIncorrB4	1000	n/a	n/a	1
1109.5860000000	n/a	1109586	STATUS	1700	n/a	n/a	1
1111.2860000000	n/a	1111286	PenaltyB4	1970	n/a	n/a	0
1114.3190000000	n/a	1114319	PunIncorrB4	1000	n/a	n/a	1
1116.3190000000	n/a	1116319	STATUS	1700	n/a	n/a	1
1118.0190000000	n/a	1118019	RewardB4	4785	n/a	n/a	1
1123.8690000000	n/a	1123869	RewardCorrB4	1000	n/a	n/a	1
1125.8690000000	n/a	1125869	STATUS	1700	n/a	n/a	1
1127.5690000000	n/a	1127569	PenaltyB4	1299	n/a	n/a	1
1129.9360000000	n/a	1129936	NeuCorrB4	1000	n/a	n/a	1
1131.9360000000	n/a	1131936	STATUS	1700	n/a	n/a	1
1133.6360000000	n/a	1133636	PenaltyB4	13051	n/a	n/a	1
1147.7520000000	n/a	1147752	NeuCorrB4	1000	n/a	n/a	1
1149.7520000000	n/a	1149752	STATUS	1700	n/a	n/a	1
1151.4520000000	n/a	1151452	RewardB4	2014	n/a	n/a	0
1154.5360000000	n/a	1154536	NeuIncorrB4	1000	n/a	n/a	1
1156.5360000000	n/a	1156536	STATUS	1700	n/a	n/a	1
1158.2360000000	n/a	1158236	RewardB4	1847	n/a	n/a	0
1161.1520000000	n/a	1161152	RewIncorrB4	1000	n/a	n/a	1
1163.1520000000	n/a	1163152	STATUS	1700	n/a	n/a	1
1164.8520000000	n/a	1164852	RewardB4	3313	n/a	n/a	1
1169.2360000000	n/a	1169236	RewardCorrB4	1000	n/a	n/a	1
1171.2360000000	n/a	1171236	STATUS	1700	n/a	n/a	1
1172.9360000000	n/a	1172936	PenaltyB4	5807	n/a	n/a	1
1179.8190000000	n/a	1179819	NeuCorrB4	1000	n/a	n/a	1
1181.8190000000	n/a	1181819	STATUS	1700	n/a	n/a	1
1183.5190000000	n/a	1183519	PenaltyB4	4487	n/a	n/a	0
1189.0690000000	n/a	1189069	PunIncorrB4	1000	n/a	n/a	1
1191.0690000000	n/a	1191069	STATUS	1700	n/a	n/a	1
1192.7690000000	n/a	1192769	PenaltyB4	678	n/a	n/a	0
1194.5190000000	n/a	1194519	NeuIncorrB4	1000	n/a	n/a	1
1196.5190000000	n/a	1196519	STATUS	1700	n/a	n/a	1
1198.2190000000	n/a	1198219	RewardB4	1144	n/a	n/a	0
1200.4360000000	n/a	1200436	NeuIncorrB4	1000	n/a	n/a	1
1202.4360000000	n/a	1202436	STATUS	1700	n/a	n/a	1
1204.1360000000	n/a	1204136	PenaltyB4	898	n/a	n/a	1
1206.1020000000	n/a	1206102	NeuCorrB4	1000	n/a	n/a	1
1208.1020000000	n/a	1208102	STATUS	1700	n/a	n/a	1
1209.8020000000	n/a	1209802	RewardB4	3878	n/a	n/a	1
1214.7520000000	n/a	1214752	RewardCorrB4	1000	n/a	n/a	1
1216.7520000000	n/a	1216752	STATUS	1700	n/a	n/a	1
1218.4520000000	n/a	1218452	PenaltyB4	1233	n/a	n/a	1
1220.7520000000	n/a	1220752	NeuCorrB4	1000	n/a	n/a	1
1222.7520000000	n/a	1222752	STATUS	1700	n/a	n/a	1
1224.4520000000	n/a	1224452	RewardB4	960	n/a	n/a	1
1226.4860000000	n/a	1226486	NeuCorrB4	1000	n/a	n/a	1
1228.4860000000	n/a	1228486	STATUS	1700	n/a	n/a	1
1230.1860000000	n/a	1230186	PenaltyB4	1202	n/a	n/a	0
1232.4520000000	n/a	1232452	PunIncorrB4	1000	n/a	n/a	1
1234.4520000000	n/a	1234452	STATUS	1700	n/a	n/a	1
1236.1520000000	n/a	1236152	RewardB4	759	n/a	n/a	1
1237.9860000000	n/a	1237986	RewardCorrB4	1000	n/a	n/a	1
1239.9860000000	n/a	1239986	STATUS	1700	n/a	n/a	1
1241.6860000000	n/a	1241686	PenaltyB4	1439	n/a	n/a	1
1244.2020000000	n/a	1244202	NeuCorrB4	1000	n/a	n/a	1
1246.2020000000	n/a	1246202	STATUS	1700	n/a	n/a	1
1247.9020000000	n/a	1247902	RewardB4	967	n/a	n/a	0
1249.9360000000	n/a	1249936	NeuIncorrB4	1000	n/a	n/a	1
1251.9360000000	n/a	1251936	STATUS	1700	n/a	n/a	1
1253.6360000000	n/a	1253636	PenaltyB4	916	n/a	n/a	1
1255.6190000000	n/a	1255619	PunCorrB4	1000	n/a	n/a	1
1257.6190000000	n/a	1257619	STATUS	1700	n/a	n/a	1
1259.3190000000	n/a	1259319	RewardB4	1047	n/a	n/a	0
1261.4360000000	n/a	1261436	NeuIncorrB4	1000	n/a	n/a	1
1263.4360000000	n/a	1263436	STATUS	1700	n/a	n/a	1
1265.1360000000	n/a	1265136	PenaltyB4	1154	n/a	n/a	1
1267.3520000000	n/a	1267352	NeuCorrB4	1000	n/a	n/a	1
1269.3520000000	n/a	1269352	STATUS	1700	n/a	n/a	1
1271.0520000000	n/a	1271052	RewardB4	1059	n/a	n/a	1
1273.1860000000	n/a	1273186	RewardCorrB4	1000	n/a	n/a	1
1275.1860000000	n/a	1275186	STATUS	1700	n/a	n/a	1
1276.8860000000	n/a	1276886	PenaltyB4	945	n/a	n/a	1
1278.9020000000	n/a	1278902	NeuCorrB4	1000	n/a	n/a	1
1280.9020000000	n/a	1280902	STATUS	1700	n/a	n/a	1
1282.6020000000	n/a	1282602	RewardB4	3052	n/a	n/a	1
1286.7190000000	n/a	1286719	RewardCorrB4	1000	n/a	n/a	1
1288.7190000000	n/a	1288719	STATUS	1700	n/a	n/a	1
1290.4190000000	n/a	1290419	PenaltyB4	1057	n/a	n/a	0
1292.5520000000	n/a	1292552	PunIncorrB4	1000	n/a	n/a	1
1294.5520000000	n/a	1294552	STATUS	1700	n/a	n/a	1
1296.2520000000	n/a	1296252	RewardB4	4868	n/a	n/a	1
1302.1860000000	n/a	1302186	NeuCorrB4	1000	n/a	n/a	1
1304.1860000000	n/a	1304186	STATUS	1700	n/a	n/a	1
1305.8860000000	n/a	1305886	RewardB4	855	n/a	n/a	0
1307.8190000000	n/a	1307819	NeuIncorrB4	1000	n/a	n/a	1
1309.8190000000	n/a	1309819	STATUS	1700	n/a	n/a	1
1311.5190000000	n/a	1311519	PenaltyB4	935	n/a	n/a	1
1313.5190000000	n/a	1313519	NeuCorrB4	1000	n/a	n/a	1
1315.5190000000	n/a	1315519	STATUS	1700	n/a	n/a	1
1317.2190000000	n/a	1317219	RewardB4	931	n/a	n/a	0
1319.2190000000	n/a	1319219	NeuIncorrB4	1000	n/a	n/a	1
1321.2190000000	n/a	1321219	STATUS	1700	n/a	n/a	1
1349.5360000000	n/a	1349536	STATUS	1700	n/a	n/a	1
