onset	duration	sample	trial_type	response_time	stim_file	value	correct
4.6330000000	n/a	4633	FrequentFixedSOA	1633	n/a	n/a	1
6.2660000000	n/a	6266	FrequentFixedSOA	1633	n/a	n/a	1
7.8990000000	n/a	7899	FrequentFixedSOA	1633	n/a	n/a	1
9.5330000000	n/a	9533	FrequentFixedSOA	1633	n/a	n/a	1
11.1660000000	n/a	11166	FrequentFixedSOA	1633	n/a	n/a	1
12.7990000000	n/a	12799	FrequentFixedSOA	1633	n/a	n/a	1
14.4330000000	n/a	14433	FrequentFixedSOA	1633	n/a	n/a	1
16.0660000000	n/a	16066	FrequentFixedSOA	1633	n/a	n/a	1
17.6990000000	n/a	17699	FrequentFixedSOA	1633	n/a	n/a	1
19.3330000000	n/a	19333	FrequentFixedSOA	1633	n/a	n/a	1
20.9660000000	n/a	20966	NovelFixedSOA	357	n/a	n/a	0
22.5990000000	n/a	22599	FrequentFixedSOA	1633	n/a	n/a	1
24.2330000000	n/a	24233	GoFixedSOA	612	n/a	n/a	1
25.8660000000	n/a	25866	FrequentFixedSOA	1633	n/a	n/a	1
27.4990000000	n/a	27499	FrequentFixedSOA	1633	n/a	n/a	1
29.1330000000	n/a	29133	FrequentFixedSOA	1633	n/a	n/a	1
30.7660000000	n/a	30766	GoFixedSOA	440	n/a	n/a	1
32.3990000000	n/a	32399	FrequentFixedSOA	1633	n/a	n/a	1
34.0330000000	n/a	34033	FrequentFixedSOA	1633	n/a	n/a	1
35.6660000000	n/a	35666	FrequentFixedSOA	1633	n/a	n/a	1
37.2990000000	n/a	37299	NovelFixedSOA	1633	n/a	n/a	1
38.9330000000	n/a	38933	FrequentFixedSOA	1633	n/a	n/a	1
40.5660000000	n/a	40566	FrequentFixedSOA	1633	n/a	n/a	1
42.1990000000	n/a	42199	FrequentFixedSOA	1633	n/a	n/a	1
43.8330000000	n/a	43833	GoFixedSOA	344	n/a	n/a	1
45.4660000000	n/a	45466	FrequentFixedSOA	1633	n/a	n/a	1
47.0990000000	n/a	47099	NovelFixedSOA	1633	n/a	n/a	1
48.7330000000	n/a	48733	FrequentFixedSOA	1633	n/a	n/a	1
50.3660000000	n/a	50366	FrequentFixedSOA	1633	n/a	n/a	1
51.9990000000	n/a	51999	FrequentFixedSOA	1633	n/a	n/a	1
53.6330000000	n/a	53633	GoFixedSOA	474	n/a	n/a	1
55.2660000000	n/a	55266	FrequentFixedSOA	1633	n/a	n/a	1
56.8990000000	n/a	56899	GoFixedSOA	615	n/a	n/a	1
58.5330000000	n/a	58533	FrequentFixedSOA	1633	n/a	n/a	1
60.1660000000	n/a	60166	FrequentFixedSOA	1633	n/a	n/a	1
61.7990000000	n/a	61799	GoFixedSOA	401	n/a	n/a	1
63.4330000000	n/a	63433	FrequentFixedSOA	1633	n/a	n/a	1
65.0660000000	n/a	65066	FrequentFixedSOA	1633	n/a	n/a	1
66.6990000000	n/a	66699	FrequentFixedSOA	1633	n/a	n/a	1
68.3330000000	n/a	68333	FrequentFixedSOA	1633	n/a	n/a	1
69.9660000000	n/a	69966	NovelFixedSOA	1633	n/a	n/a	1
71.5990000000	n/a	71599	FrequentFixedSOA	1633	n/a	n/a	1
73.2330000000	n/a	73233	NovelFixedSOA	1633	n/a	n/a	1
74.8660000000	n/a	74866	FrequentFixedSOA	1633	n/a	n/a	1
76.4990000000	n/a	76499	FrequentFixedSOA	1633	n/a	n/a	1
78.1330000000	n/a	78133	GoFixedSOA	310	n/a	n/a	1
79.7660000000	n/a	79766	FrequentFixedSOA	1633	n/a	n/a	1
81.3990000000	n/a	81399	FrequentFixedSOA	1633	n/a	n/a	1
83.0330000000	n/a	83033	FrequentFixedSOA	1633	n/a	n/a	1
84.6660000000	n/a	84666	FrequentFixedSOA	1633	n/a	n/a	1
86.2990000000	n/a	86299	NovelFixedSOA	1633	n/a	n/a	1
87.9320000000	n/a	87932	FrequentFixedSOA	1633	n/a	n/a	1
89.5660000000	n/a	89566	FrequentFixedSOA	1633	n/a	n/a	1
91.1990000000	n/a	91199	FrequentFixedSOA	1633	n/a	n/a	1
92.8320000000	n/a	92832	FrequentFixedSOA	1633	n/a	n/a	1
94.4660000000	n/a	94466	GoFixedSOA	444	n/a	n/a	1
96.0990000000	n/a	96099	FrequentFixedSOA	1633	n/a	n/a	1
97.7320000000	n/a	97732	FrequentFixedSOA	1633	n/a	n/a	1
99.3660000000	n/a	99366	NovelFixedSOA	1633	n/a	n/a	1
100.9990000000	n/a	100999	FrequentFixedSOA	1633	n/a	n/a	1
102.6320000000	n/a	102632	FrequentFixedSOA	1633	n/a	n/a	1
104.2660000000	n/a	104266	GoFixedSOA	394	n/a	n/a	1
105.8990000000	n/a	105899	FrequentFixedSOA	1633	n/a	n/a	1
107.5320000000	n/a	107532	FrequentFixedSOA	1633	n/a	n/a	1
109.1660000000	n/a	109166	FrequentFixedSOA	1633	n/a	n/a	1
110.7990000000	n/a	110799	FrequentFixedSOA	1633	n/a	n/a	1
112.4320000000	n/a	112432	NovelFixedSOA	1633	n/a	n/a	1
114.0660000000	n/a	114066	FrequentFixedSOA	1633	n/a	n/a	1
115.6990000000	n/a	115699	FrequentFixedSOA	1633	n/a	n/a	1
117.3320000000	n/a	117332	GoFixedSOA	404	n/a	n/a	1
118.9660000000	n/a	118966	FrequentVariableSOA	1616	n/a	n/a	1
120.5820000000	n/a	120582	FrequentVariableSOA	1566	n/a	n/a	1
122.1490000000	n/a	122149	FrequentVariableSOA	1633	n/a	n/a	1
123.7820000000	n/a	123782	FrequentVariableSOA	1500	n/a	n/a	1
125.2820000000	n/a	125282	FrequentVariableSOA	1750	n/a	n/a	1
127.0320000000	n/a	127032	FrequentVariableSOA	1583	n/a	n/a	1
128.6160000000	n/a	128616	FrequentVariableSOA	1516	n/a	n/a	1
130.1320000000	n/a	130132	FrequentVariableSOA	1766	n/a	n/a	1
131.8990000000	n/a	131899	FrequentVariableSOA	1600	n/a	n/a	1
133.4990000000	n/a	133499	FrequentVariableSOA	1600	n/a	n/a	1
135.0990000000	n/a	135099	NovelVariableSOA	1766	n/a	n/a	1
136.8660000000	n/a	136866	FrequentVariableSOA	1600	n/a	n/a	1
138.4660000000	n/a	138466	GoVariableSOA	480	n/a	n/a	1
140.1490000000	n/a	140149	FrequentVariableSOA	1700	n/a	n/a	1
141.8490000000	n/a	141849	FrequentVariableSOA	1800	n/a	n/a	1
143.6490000000	n/a	143649	FrequentVariableSOA	1566	n/a	n/a	1
145.2160000000	n/a	145216	GoVariableSOA	507	n/a	n/a	1
146.7660000000	n/a	146766	FrequentVariableSOA	1550	n/a	n/a	1
148.3160000000	n/a	148316	FrequentVariableSOA	1600	n/a	n/a	1
149.9160000000	n/a	149916	FrequentVariableSOA	1583	n/a	n/a	1
151.4990000000	n/a	151499	NovelVariableSOA	1783	n/a	n/a	1
153.2820000000	n/a	153282	FrequentVariableSOA	1683	n/a	n/a	1
154.9660000000	n/a	154966	FrequentVariableSOA	1666	n/a	n/a	1
156.6320000000	n/a	156632	FrequentVariableSOA	1783	n/a	n/a	1
158.4160000000	n/a	158416	GoVariableSOA	478	n/a	n/a	1
160.1160000000	n/a	160116	FrequentVariableSOA	1616	n/a	n/a	1
161.7320000000	n/a	161732	NovelVariableSOA	1733	n/a	n/a	1
163.4660000000	n/a	163466	FrequentVariableSOA	1716	n/a	n/a	1
165.1820000000	n/a	165182	FrequentVariableSOA	1633	n/a	n/a	1
166.8160000000	n/a	166816	FrequentVariableSOA	1550	n/a	n/a	1
168.3660000000	n/a	168366	GoVariableSOA	369	n/a	n/a	1
170.1160000000	n/a	170116	FrequentVariableSOA	1750	n/a	n/a	1
171.8660000000	n/a	171866	GoVariableSOA	405	n/a	n/a	1
173.6490000000	n/a	173649	FrequentVariableSOA	1666	n/a	n/a	1
175.3160000000	n/a	175316	FrequentVariableSOA	1650	n/a	n/a	1
176.9660000000	n/a	176966	GoVariableSOA	374	n/a	n/a	1
178.6490000000	n/a	178649	FrequentVariableSOA	1733	n/a	n/a	1
180.3820000000	n/a	180382	FrequentVariableSOA	1700	n/a	n/a	1
182.0820000000	n/a	182082	FrequentVariableSOA	1583	n/a	n/a	1
183.6660000000	n/a	183666	FrequentVariableSOA	1683	n/a	n/a	1
185.3490000000	n/a	185349	NovelVariableSOA	1633	n/a	n/a	1
186.9820000000	n/a	186982	FrequentVariableSOA	1666	n/a	n/a	1
188.6490000000	n/a	188649	NovelVariableSOA	1683	n/a	n/a	1
190.3320000000	n/a	190332	FrequentVariableSOA	1700	n/a	n/a	1
192.0320000000	n/a	192032	FrequentVariableSOA	1600	n/a	n/a	1
193.6320000000	n/a	193632	GoVariableSOA	361	n/a	n/a	1
195.1990000000	n/a	195199	FrequentVariableSOA	1783	n/a	n/a	1
196.9820000000	n/a	196982	FrequentVariableSOA	1583	n/a	n/a	1
198.5660000000	n/a	198566	FrequentVariableSOA	1766	n/a	n/a	1
200.3320000000	n/a	200332	FrequentVariableSOA	1600	n/a	n/a	1
201.9320000000	n/a	201932	NovelVariableSOA	1633	n/a	n/a	1
203.5660000000	n/a	203566	FrequentVariableSOA	1650	n/a	n/a	1
205.2160000000	n/a	205216	FrequentVariableSOA	1566	n/a	n/a	1
206.7820000000	n/a	206782	FrequentVariableSOA	1600	n/a	n/a	1
208.3820000000	n/a	208382	FrequentVariableSOA	1500	n/a	n/a	1
209.8820000000	n/a	209882	GoVariableSOA	417	n/a	n/a	1
211.5660000000	n/a	211566	FrequentVariableSOA	1683	n/a	n/a	1
213.2490000000	n/a	213249	FrequentVariableSOA	1616	n/a	n/a	1
214.8660000000	n/a	214866	NovelVariableSOA	1716	n/a	n/a	1
216.5820000000	n/a	216582	FrequentVariableSOA	1650	n/a	n/a	1
218.2320000000	n/a	218232	FrequentVariableSOA	1800	n/a	n/a	1
220.0320000000	n/a	220032	GoVariableSOA	255	n/a	n/a	1
221.7490000000	n/a	221749	FrequentVariableSOA	1566	n/a	n/a	1
223.3160000000	n/a	223316	FrequentVariableSOA	1766	n/a	n/a	1
225.0820000000	n/a	225082	FrequentVariableSOA	1700	n/a	n/a	1
226.7820000000	n/a	226782	FrequentVariableSOA	1700	n/a	n/a	1
228.4820000000	n/a	228482	NovelVariableSOA	1766	n/a	n/a	1
230.2490000000	n/a	230249	FrequentVariableSOA	1550	n/a	n/a	1
231.7990000000	n/a	231799	FrequentVariableSOA	1516	n/a	n/a	1
233.3160000000	n/a	233316	GoVariableSOA	286	n/a	n/a	1
235.1160000000	n/a	235116	FrequentFixedSOA	1633	n/a	n/a	1
236.7490000000	n/a	236749	FrequentFixedSOA	1633	n/a	n/a	1
238.3820000000	n/a	238382	FrequentFixedSOA	1633	n/a	n/a	1
240.0160000000	n/a	240016	GoFixedSOA	375	n/a	n/a	1
241.6490000000	n/a	241649	FrequentFixedSOA	1633	n/a	n/a	1
243.2820000000	n/a	243282	FrequentFixedSOA	1633	n/a	n/a	1
244.9160000000	n/a	244916	FrequentFixedSOA	1633	n/a	n/a	1
246.5490000000	n/a	246549	GoFixedSOA	328	n/a	n/a	1
248.1820000000	n/a	248182	FrequentFixedSOA	1633	n/a	n/a	1
249.8160000000	n/a	249816	FrequentFixedSOA	1633	n/a	n/a	1
251.4490000000	n/a	251449	FrequentFixedSOA	1633	n/a	n/a	1
253.0820000000	n/a	253082	NovelFixedSOA	1633	n/a	n/a	1
254.7160000000	n/a	254716	FrequentFixedSOA	1633	n/a	n/a	1
256.3490000000	n/a	256349	NovelFixedSOA	1633	n/a	n/a	1
257.9820000000	n/a	257982	FrequentFixedSOA	1633	n/a	n/a	1
259.6160000000	n/a	259616	FrequentFixedSOA	1633	n/a	n/a	1
261.2490000000	n/a	261249	NovelFixedSOA	1633	n/a	n/a	1
262.8820000000	n/a	262882	FrequentFixedSOA	1633	n/a	n/a	1
264.5150000000	n/a	264515	FrequentFixedSOA	1633	n/a	n/a	1
266.1490000000	n/a	266149	FrequentFixedSOA	1633	n/a	n/a	1
267.7820000000	n/a	267782	FrequentFixedSOA	1633	n/a	n/a	1
269.4150000000	n/a	269415	FrequentFixedSOA	1633	n/a	n/a	1
271.0490000000	n/a	271049	NovelFixedSOA	1633	n/a	n/a	1
272.6820000000	n/a	272682	FrequentFixedSOA	1633	n/a	n/a	1
274.3150000000	n/a	274315	FrequentFixedSOA	1633	n/a	n/a	1
275.9490000000	n/a	275949	FrequentFixedSOA	1633	n/a	n/a	1
277.5820000000	n/a	277582	FrequentFixedSOA	1633	n/a	n/a	1
279.2150000000	n/a	279215	FrequentFixedSOA	1633	n/a	n/a	1
280.8490000000	n/a	280849	GoFixedSOA	413	n/a	n/a	1
282.4820000000	n/a	282482	FrequentFixedSOA	1633	n/a	n/a	1
284.1150000000	n/a	284115	FrequentFixedSOA	1633	n/a	n/a	1
285.7490000000	n/a	285749	GoFixedSOA	394	n/a	n/a	1
287.3820000000	n/a	287382	FrequentFixedSOA	1633	n/a	n/a	1
289.0150000000	n/a	289015	NovelFixedSOA	1633	n/a	n/a	1
290.6490000000	n/a	290649	FrequentFixedSOA	1633	n/a	n/a	1
292.2820000000	n/a	292282	GoFixedSOA	361	n/a	n/a	1
293.9150000000	n/a	293915	FrequentFixedSOA	1633	n/a	n/a	1
295.5490000000	n/a	295549	GoFixedSOA	479	n/a	n/a	1
297.1820000000	n/a	297182	FrequentFixedSOA	1633	n/a	n/a	1
298.8150000000	n/a	298815	FrequentFixedSOA	1633	n/a	n/a	1
300.4490000000	n/a	300449	FrequentFixedSOA	1633	n/a	n/a	1
302.0820000000	n/a	302082	FrequentFixedSOA	1633	n/a	n/a	1
303.7150000000	n/a	303715	GoFixedSOA	319	n/a	n/a	1
305.3490000000	n/a	305349	FrequentFixedSOA	1633	n/a	n/a	1
306.9820000000	n/a	306982	FrequentFixedSOA	1633	n/a	n/a	1
308.6150000000	n/a	308615	FrequentFixedSOA	1633	n/a	n/a	1
310.2490000000	n/a	310249	NovelFixedSOA	1633	n/a	n/a	1
311.8820000000	n/a	311882	FrequentFixedSOA	1633	n/a	n/a	1
313.5150000000	n/a	313515	FrequentFixedSOA	1633	n/a	n/a	1
315.1490000000	n/a	315149	FrequentFixedSOA	1633	n/a	n/a	1
316.7820000000	n/a	316782	FrequentFixedSOA	1633	n/a	n/a	1
318.4150000000	n/a	318415	NovelFixedSOA	1633	n/a	n/a	1
320.0490000000	n/a	320049	FrequentFixedSOA	1633	n/a	n/a	1
321.6820000000	n/a	321682	FrequentFixedSOA	1633	n/a	n/a	1
323.3150000000	n/a	323315	FrequentFixedSOA	1633	n/a	n/a	1
324.9490000000	n/a	324949	FrequentFixedSOA	1633	n/a	n/a	1
326.5820000000	n/a	326582	NovelFixedSOA	1633	n/a	n/a	1
328.2150000000	n/a	328215	FrequentFixedSOA	1633	n/a	n/a	1
329.8490000000	n/a	329849	FrequentFixedSOA	1633	n/a	n/a	1
331.4820000000	n/a	331482	GoFixedSOA	409	n/a	n/a	1
333.1150000000	n/a	333115	FrequentFixedSOA	1633	n/a	n/a	1
334.7490000000	n/a	334749	FrequentFixedSOA	1633	n/a	n/a	1
336.3820000000	n/a	336382	FrequentFixedSOA	1633	n/a	n/a	1
338.0150000000	n/a	338015	FrequentFixedSOA	1633	n/a	n/a	1
339.6490000000	n/a	339649	NovelFixedSOA	1633	n/a	n/a	1
341.2820000000	n/a	341282	FrequentFixedSOA	1633	n/a	n/a	1
342.9150000000	n/a	342915	FrequentFixedSOA	1633	n/a	n/a	1
344.5490000000	n/a	344549	FrequentFixedSOA	1633	n/a	n/a	1
346.1820000000	n/a	346182	FrequentFixedSOA	1633	n/a	n/a	1
347.8150000000	n/a	347815	FrequentFixedSOA	1633	n/a	n/a	1
349.4490000000	n/a	349449	FrequentVariableSOA	1666	n/a	n/a	1
351.1150000000	n/a	351115	FrequentVariableSOA	1700	n/a	n/a	1
352.8150000000	n/a	352815	FrequentVariableSOA	1700	n/a	n/a	1
354.5150000000	n/a	354515	GoVariableSOA	535	n/a	n/a	1
356.1490000000	n/a	356149	FrequentVariableSOA	1650	n/a	n/a	1
357.7990000000	n/a	357799	FrequentVariableSOA	1633	n/a	n/a	1
359.4320000000	n/a	359432	FrequentVariableSOA	1766	n/a	n/a	1
361.1990000000	n/a	361199	GoVariableSOA	380	n/a	n/a	1
362.9490000000	n/a	362949	FrequentVariableSOA	1516	n/a	n/a	1
364.4650000000	n/a	364465	FrequentVariableSOA	1650	n/a	n/a	1
366.1150000000	n/a	366115	FrequentVariableSOA	1750	n/a	n/a	1
367.8650000000	n/a	367865	NovelVariableSOA	1633	n/a	n/a	1
369.4990000000	n/a	369499	FrequentVariableSOA	1533	n/a	n/a	1
371.0320000000	n/a	371032	NovelVariableSOA	1533	n/a	n/a	1
372.5650000000	n/a	372565	FrequentVariableSOA	1566	n/a	n/a	1
374.1320000000	n/a	374132	FrequentVariableSOA	1766	n/a	n/a	1
375.8990000000	n/a	375899	NovelVariableSOA	1716	n/a	n/a	1
377.6150000000	n/a	377615	FrequentVariableSOA	1583	n/a	n/a	1
379.1990000000	n/a	379199	FrequentVariableSOA	1516	n/a	n/a	1
380.7150000000	n/a	380715	FrequentVariableSOA	1783	n/a	n/a	1
382.4990000000	n/a	382499	FrequentVariableSOA	1666	n/a	n/a	1
384.1650000000	n/a	384165	FrequentVariableSOA	1633	n/a	n/a	1
385.7990000000	n/a	385799	NovelVariableSOA	1716	n/a	n/a	1
387.5150000000	n/a	387515	FrequentVariableSOA	1600	n/a	n/a	1
389.1150000000	n/a	389115	FrequentVariableSOA	1666	n/a	n/a	1
390.7820000000	n/a	390782	FrequentVariableSOA	1516	n/a	n/a	1
392.2990000000	n/a	392299	FrequentVariableSOA	1666	n/a	n/a	1
393.9650000000	n/a	393965	FrequentVariableSOA	1533	n/a	n/a	1
395.4990000000	n/a	395499	GoVariableSOA	371	n/a	n/a	1
397.0650000000	n/a	397065	FrequentVariableSOA	1766	n/a	n/a	1
398.8320000000	n/a	398832	FrequentVariableSOA	1683	n/a	n/a	1
400.5150000000	n/a	400515	GoVariableSOA	290	n/a	n/a	1
402.2820000000	n/a	402282	FrequentVariableSOA	1666	n/a	n/a	1
403.9490000000	n/a	403949	NovelVariableSOA	1616	n/a	n/a	1
405.5650000000	n/a	405565	FrequentVariableSOA	1800	n/a	n/a	1
407.3650000000	n/a	407365	GoVariableSOA	365	n/a	n/a	1
408.9650000000	n/a	408965	FrequentVariableSOA	1700	n/a	n/a	1
410.6650000000	n/a	410665	GoVariableSOA	415	n/a	n/a	1
412.3820000000	n/a	412382	FrequentVariableSOA	1583	n/a	n/a	1
413.9650000000	n/a	413965	FrequentVariableSOA	1666	n/a	n/a	1
415.6320000000	n/a	415632	FrequentVariableSOA	1633	n/a	n/a	1
417.2650000000	n/a	417265	FrequentVariableSOA	1800	n/a	n/a	1
419.0650000000	n/a	419065	GoVariableSOA	419	n/a	n/a	1
420.6320000000	n/a	420632	FrequentVariableSOA	1516	n/a	n/a	1
422.1490000000	n/a	422149	FrequentVariableSOA	1800	n/a	n/a	1
423.9490000000	n/a	423949	FrequentVariableSOA	1633	n/a	n/a	1
425.5820000000	n/a	425582	NovelVariableSOA	1633	n/a	n/a	1
427.2150000000	n/a	427215	FrequentVariableSOA	1516	n/a	n/a	1
428.7320000000	n/a	428732	FrequentVariableSOA	1650	n/a	n/a	1
430.3820000000	n/a	430382	FrequentVariableSOA	1750	n/a	n/a	1
432.1320000000	n/a	432132	FrequentVariableSOA	1733	n/a	n/a	1
433.8650000000	n/a	433865	NovelVariableSOA	1800	n/a	n/a	1
435.6650000000	n/a	435665	FrequentVariableSOA	1766	n/a	n/a	1
437.4320000000	n/a	437432	FrequentVariableSOA	1600	n/a	n/a	1
439.0320000000	n/a	439032	FrequentVariableSOA	1733	n/a	n/a	1
440.7650000000	n/a	440765	FrequentVariableSOA	1733	n/a	n/a	1
442.4990000000	n/a	442499	NovelVariableSOA	1666	n/a	n/a	1
444.1650000000	n/a	444165	FrequentVariableSOA	1566	n/a	n/a	1
445.7320000000	n/a	445732	FrequentVariableSOA	1533	n/a	n/a	1
447.2650000000	n/a	447265	GoVariableSOA	442	n/a	n/a	1
448.8820000000	n/a	448882	FrequentVariableSOA	1550	n/a	n/a	1
450.4320000000	n/a	450432	FrequentVariableSOA	1533	n/a	n/a	1
451.9650000000	n/a	451965	FrequentVariableSOA	1616	n/a	n/a	1
453.5820000000	n/a	453582	FrequentVariableSOA	1616	n/a	n/a	1
455.1980000000	n/a	455198	NovelVariableSOA	1600	n/a	n/a	1
456.7980000000	n/a	456798	FrequentVariableSOA	1533	n/a	n/a	1
458.3320000000	n/a	458332	FrequentVariableSOA	1783	n/a	n/a	1
460.1150000000	n/a	460115	FrequentVariableSOA	1716	n/a	n/a	1
461.8320000000	n/a	461832	FrequentVariableSOA	1800	n/a	n/a	1
463.6320000000	n/a	463632	FrequentVariableSOA	1766	n/a	n/a	1
465.3980000000	n/a	465398	GoFixedSOA	337	n/a	n/a	1
467.0320000000	n/a	467032	FrequentFixedSOA	1633	n/a	n/a	1
468.6650000000	n/a	468665	FrequentFixedSOA	1633	n/a	n/a	1
470.2980000000	n/a	470298	FrequentFixedSOA	1633	n/a	n/a	1
471.9320000000	n/a	471932	FrequentFixedSOA	1633	n/a	n/a	1
473.5650000000	n/a	473565	FrequentFixedSOA	1633	n/a	n/a	1
475.1980000000	n/a	475198	FrequentFixedSOA	1633	n/a	n/a	1
476.8320000000	n/a	476832	NovelFixedSOA	1633	n/a	n/a	1
478.4650000000	n/a	478465	FrequentFixedSOA	1633	n/a	n/a	1
480.0980000000	n/a	480098	FrequentFixedSOA	1633	n/a	n/a	1
481.7320000000	n/a	481732	FrequentFixedSOA	1633	n/a	n/a	1
483.3650000000	n/a	483365	NovelFixedSOA	1633	n/a	n/a	1
484.9980000000	n/a	484998	FrequentFixedSOA	1633	n/a	n/a	1
486.6320000000	n/a	486632	GoFixedSOA	359	n/a	n/a	1
488.2650000000	n/a	488265	FrequentFixedSOA	1633	n/a	n/a	1
489.8980000000	n/a	489898	FrequentFixedSOA	1633	n/a	n/a	1
491.5320000000	n/a	491532	GoFixedSOA	467	n/a	n/a	1
493.1650000000	n/a	493165	FrequentFixedSOA	1633	n/a	n/a	1
494.7980000000	n/a	494798	NovelFixedSOA	1633	n/a	n/a	1
496.4320000000	n/a	496432	FrequentFixedSOA	1633	n/a	n/a	1
498.0650000000	n/a	498065	FrequentFixedSOA	1633	n/a	n/a	1
499.6980000000	n/a	499698	FrequentFixedSOA	1633	n/a	n/a	1
501.3320000000	n/a	501332	FrequentFixedSOA	1633	n/a	n/a	1
502.9650000000	n/a	502965	FrequentFixedSOA	1633	n/a	n/a	1
504.5980000000	n/a	504598	GoFixedSOA	375	n/a	n/a	1
506.2320000000	n/a	506232	FrequentFixedSOA	1633	n/a	n/a	1
507.8650000000	n/a	507865	FrequentFixedSOA	1633	n/a	n/a	1
509.4980000000	n/a	509498	NovelFixedSOA	1633	n/a	n/a	1
511.1320000000	n/a	511132	FrequentFixedSOA	1633	n/a	n/a	1
512.7650000000	n/a	512765	FrequentFixedSOA	1633	n/a	n/a	1
514.3980000000	n/a	514398	FrequentFixedSOA	1633	n/a	n/a	1
516.0320000000	n/a	516032	FrequentFixedSOA	1633	n/a	n/a	1
517.6650000000	n/a	517665	FrequentFixedSOA	1633	n/a	n/a	1
519.2980000000	n/a	519298	NovelFixedSOA	1633	n/a	n/a	1
520.9320000000	n/a	520932	FrequentFixedSOA	1633	n/a	n/a	1
522.5650000000	n/a	522565	FrequentFixedSOA	1633	n/a	n/a	1
524.1980000000	n/a	524198	FrequentFixedSOA	1633	n/a	n/a	1
525.8320000000	n/a	525832	FrequentFixedSOA	1633	n/a	n/a	1
527.4650000000	n/a	527465	GoFixedSOA	352	n/a	n/a	1
529.0980000000	n/a	529098	FrequentFixedSOA	1633	n/a	n/a	1
530.7320000000	n/a	530732	FrequentFixedSOA	1633	n/a	n/a	1
532.3650000000	n/a	532365	NovelFixedSOA	1633	n/a	n/a	1
533.9980000000	n/a	533998	FrequentFixedSOA	1633	n/a	n/a	1
535.6320000000	n/a	535632	FrequentFixedSOA	1633	n/a	n/a	1
537.2650000000	n/a	537265	NovelFixedSOA	1633	n/a	n/a	1
538.8980000000	n/a	538898	FrequentFixedSOA	1633	n/a	n/a	1
540.5320000000	n/a	540532	FrequentFixedSOA	1633	n/a	n/a	1
542.1650000000	n/a	542165	FrequentFixedSOA	1633	n/a	n/a	1
543.7980000000	n/a	543798	FrequentFixedSOA	1633	n/a	n/a	1
545.4320000000	n/a	545432	FrequentFixedSOA	1633	n/a	n/a	1
547.0650000000	n/a	547065	GoFixedSOA	326	n/a	n/a	1
548.6980000000	n/a	548698	FrequentFixedSOA	1633	n/a	n/a	1
550.3320000000	n/a	550332	FrequentFixedSOA	1633	n/a	n/a	1
551.9650000000	n/a	551965	FrequentFixedSOA	1633	n/a	n/a	1
553.5980000000	n/a	553598	FrequentFixedSOA	1633	n/a	n/a	1
555.2320000000	n/a	555232	FrequentFixedSOA	1633	n/a	n/a	1
556.8650000000	n/a	556865	NovelFixedSOA	1633	n/a	n/a	1
558.4980000000	n/a	558498	FrequentFixedSOA	1633	n/a	n/a	1
560.1320000000	n/a	560132	GoFixedSOA	331	n/a	n/a	1
561.7650000000	n/a	561765	FrequentFixedSOA	1633	n/a	n/a	1
563.3980000000	n/a	563398	FrequentFixedSOA	1633	n/a	n/a	1
565.0320000000	n/a	565032	FrequentFixedSOA	1633	n/a	n/a	1
566.6650000000	n/a	566665	FrequentFixedSOA	1633	n/a	n/a	1
568.2980000000	n/a	568298	FrequentFixedSOA	1633	n/a	n/a	1
569.9320000000	n/a	569932	FrequentFixedSOA	1633	n/a	n/a	1
571.5650000000	n/a	571565	FrequentFixedSOA	1633	n/a	n/a	1
573.1980000000	n/a	573198	FrequentFixedSOA	1633	n/a	n/a	1
574.8320000000	n/a	574832	NovelFixedSOA	1633	n/a	n/a	1
576.4650000000	n/a	576465	FrequentFixedSOA	1633	n/a	n/a	1
578.0980000000	n/a	578098	FrequentFixedSOA	1633	n/a	n/a	1
579.7320000000	n/a	579732	GoVariableSOA	393	n/a	n/a	1
581.4650000000	n/a	581465	FrequentVariableSOA	1500	n/a	n/a	1
582.9650000000	n/a	582965	FrequentVariableSOA	1683	n/a	n/a	1
584.6480000000	n/a	584648	FrequentVariableSOA	1633	n/a	n/a	1
586.2820000000	n/a	586282	FrequentVariableSOA	1783	n/a	n/a	1
588.0650000000	n/a	588065	FrequentVariableSOA	1683	n/a	n/a	1
589.7480000000	n/a	589748	FrequentVariableSOA	1683	n/a	n/a	1
591.4320000000	n/a	591432	NovelVariableSOA	1783	n/a	n/a	1
593.2150000000	n/a	593215	FrequentVariableSOA	1666	n/a	n/a	1
594.8820000000	n/a	594882	FrequentVariableSOA	1583	n/a	n/a	1
596.4650000000	n/a	596465	FrequentVariableSOA	1666	n/a	n/a	1
598.1320000000	n/a	598132	NovelVariableSOA	1766	n/a	n/a	1
599.8980000000	n/a	599898	FrequentVariableSOA	1583	n/a	n/a	1
601.4820000000	n/a	601482	GoVariableSOA	321	n/a	n/a	1
603.1150000000	n/a	603115	FrequentVariableSOA	1550	n/a	n/a	1
604.6650000000	n/a	604665	FrequentVariableSOA	1533	n/a	n/a	1
606.1980000000	n/a	606198	GoVariableSOA	525	n/a	n/a	1
607.8480000000	n/a	607848	FrequentVariableSOA	1650	n/a	n/a	1
609.4980000000	n/a	609498	NovelVariableSOA	1633	n/a	n/a	1
611.1320000000	n/a	611132	FrequentVariableSOA	1516	n/a	n/a	1
612.6480000000	n/a	612648	FrequentVariableSOA	1683	n/a	n/a	1
614.3320000000	n/a	614332	FrequentVariableSOA	1533	n/a	n/a	1
615.8650000000	n/a	615865	FrequentVariableSOA	1600	n/a	n/a	1
617.4650000000	n/a	617465	FrequentVariableSOA	1650	n/a	n/a	1
619.1150000000	n/a	619115	GoVariableSOA	386	n/a	n/a	1
620.8150000000	n/a	620815	FrequentVariableSOA	1550	n/a	n/a	1
622.3650000000	n/a	622365	FrequentVariableSOA	1583	n/a	n/a	1
623.9480000000	n/a	623948	NovelVariableSOA	1716	n/a	n/a	1
625.6650000000	n/a	625665	FrequentVariableSOA	1766	n/a	n/a	1
627.4320000000	n/a	627432	FrequentVariableSOA	1783	n/a	n/a	1
629.2150000000	n/a	629215	FrequentVariableSOA	1616	n/a	n/a	1
630.8320000000	n/a	630832	FrequentVariableSOA	1650	n/a	n/a	1
632.4810000000	n/a	632481	FrequentVariableSOA	1733	n/a	n/a	1
634.2150000000	n/a	634215	NovelVariableSOA	1600	n/a	n/a	1
635.8150000000	n/a	635815	FrequentVariableSOA	1600	n/a	n/a	1
637.4150000000	n/a	637415	FrequentVariableSOA	1633	n/a	n/a	1
639.0480000000	n/a	639048	FrequentVariableSOA	1666	n/a	n/a	1
640.7150000000	n/a	640715	FrequentVariableSOA	1750	n/a	n/a	1
642.4650000000	n/a	642465	GoVariableSOA	331	n/a	n/a	1
644.1150000000	n/a	644115	FrequentVariableSOA	1633	n/a	n/a	1
645.7480000000	n/a	645748	FrequentVariableSOA	1600	n/a	n/a	1
647.3480000000	n/a	647348	NovelVariableSOA	1583	n/a	n/a	1
648.9310000000	n/a	648931	FrequentVariableSOA	1650	n/a	n/a	1
650.5810000000	n/a	650581	FrequentVariableSOA	1733	n/a	n/a	1
652.3150000000	n/a	652315	NovelVariableSOA	1683	n/a	n/a	1
653.9980000000	n/a	653998	FrequentVariableSOA	1583	n/a	n/a	1
655.5810000000	n/a	655581	FrequentVariableSOA	1683	n/a	n/a	1
657.2650000000	n/a	657265	FrequentVariableSOA	1500	n/a	n/a	1
658.7650000000	n/a	658765	FrequentVariableSOA	1600	n/a	n/a	1
660.3650000000	n/a	660365	FrequentVariableSOA	1583	n/a	n/a	1
661.9480000000	n/a	661948	GoVariableSOA	309	n/a	n/a	1
663.6980000000	n/a	663698	FrequentVariableSOA	1800	n/a	n/a	1
665.4980000000	n/a	665498	FrequentVariableSOA	1750	n/a	n/a	1
667.2480000000	n/a	667248	FrequentVariableSOA	1766	n/a	n/a	1
669.0150000000	n/a	669015	FrequentVariableSOA	1800	n/a	n/a	1
670.8150000000	n/a	670815	FrequentVariableSOA	632	n/a	n/a	0
672.3480000000	n/a	672348	NovelVariableSOA	1750	n/a	n/a	1
674.0980000000	n/a	674098	FrequentVariableSOA	1583	n/a	n/a	1
675.6810000000	n/a	675681	GoVariableSOA	366	n/a	n/a	1
677.2480000000	n/a	677248	FrequentVariableSOA	1533	n/a	n/a	1
678.7810000000	n/a	678781	FrequentVariableSOA	1716	n/a	n/a	1
680.4980000000	n/a	680498	FrequentVariableSOA	1666	n/a	n/a	1
682.1650000000	n/a	682165	FrequentVariableSOA	1700	n/a	n/a	1
683.8650000000	n/a	683865	FrequentVariableSOA	1650	n/a	n/a	1
685.5150000000	n/a	685515	FrequentVariableSOA	1733	n/a	n/a	1
687.2480000000	n/a	687248	FrequentVariableSOA	1533	n/a	n/a	1
688.7810000000	n/a	688781	FrequentVariableSOA	1516	n/a	n/a	1
690.2980000000	n/a	690298	NovelVariableSOA	1616	n/a	n/a	1
691.9150000000	n/a	691915	FrequentVariableSOA	1583	n/a	n/a	1
693.4980000000	n/a	693498	FrequentVariableSOA	1583	n/a	n/a	1
695.0810000000	n/a	695081	GoFixedSOA	363	n/a	n/a	1
696.7150000000	n/a	696715	FrequentFixedSOA	1633	n/a	n/a	1
698.3480000000	n/a	698348	FrequentFixedSOA	1633	n/a	n/a	1
699.9810000000	n/a	699981	FrequentFixedSOA	1633	n/a	n/a	1
701.6150000000	n/a	701615	GoFixedSOA	340	n/a	n/a	1
703.2480000000	n/a	703248	FrequentFixedSOA	1633	n/a	n/a	1
704.8810000000	n/a	704881	FrequentFixedSOA	1633	n/a	n/a	1
706.5150000000	n/a	706515	FrequentFixedSOA	1633	n/a	n/a	1
708.1480000000	n/a	708148	FrequentFixedSOA	1633	n/a	n/a	1
709.7810000000	n/a	709781	GoFixedSOA	389	n/a	n/a	1
711.4150000000	n/a	711415	FrequentFixedSOA	1633	n/a	n/a	1
713.0480000000	n/a	713048	FrequentFixedSOA	1633	n/a	n/a	1
714.6810000000	n/a	714681	NovelFixedSOA	1633	n/a	n/a	1
716.3150000000	n/a	716315	FrequentFixedSOA	1633	n/a	n/a	1
717.9480000000	n/a	717948	FrequentFixedSOA	1633	n/a	n/a	1
719.5810000000	n/a	719581	GoFixedSOA	363	n/a	n/a	1
721.2150000000	n/a	721215	FrequentFixedSOA	1633	n/a	n/a	1
722.8480000000	n/a	722848	FrequentFixedSOA	1633	n/a	n/a	1
724.4810000000	n/a	724481	FrequentFixedSOA	1633	n/a	n/a	1
726.1150000000	n/a	726115	NovelFixedSOA	1633	n/a	n/a	1
727.7480000000	n/a	727748	FrequentFixedSOA	1633	n/a	n/a	1
729.3810000000	n/a	729381	NovelFixedSOA	1633	n/a	n/a	1
731.0150000000	n/a	731015	FrequentFixedSOA	1633	n/a	n/a	1
732.6480000000	n/a	732648	FrequentFixedSOA	1633	n/a	n/a	1
734.2810000000	n/a	734281	FrequentFixedSOA	1633	n/a	n/a	1
735.9150000000	n/a	735915	GoFixedSOA	348	n/a	n/a	1
737.5480000000	n/a	737548	FrequentFixedSOA	1633	n/a	n/a	1
739.1810000000	n/a	739181	FrequentFixedSOA	1633	n/a	n/a	1
740.8150000000	n/a	740815	FrequentFixedSOA	1633	n/a	n/a	1
742.4480000000	n/a	742448	GoFixedSOA	388	n/a	n/a	1
744.0810000000	n/a	744081	FrequentFixedSOA	1633	n/a	n/a	1
745.7150000000	n/a	745715	FrequentFixedSOA	1633	n/a	n/a	1
747.3480000000	n/a	747348	NovelFixedSOA	1633	n/a	n/a	1
748.9810000000	n/a	748981	FrequentFixedSOA	1633	n/a	n/a	1
750.6150000000	n/a	750615	GoFixedSOA	404	n/a	n/a	1
752.2480000000	n/a	752248	FrequentFixedSOA	1633	n/a	n/a	1
753.8810000000	n/a	753881	FrequentFixedSOA	1633	n/a	n/a	1
755.5150000000	n/a	755515	FrequentFixedSOA	1633	n/a	n/a	1
757.1480000000	n/a	757148	FrequentFixedSOA	1633	n/a	n/a	1
758.7810000000	n/a	758781	FrequentFixedSOA	1633	n/a	n/a	1
760.4150000000	n/a	760415	FrequentFixedSOA	1633	n/a	n/a	1
762.0480000000	n/a	762048	NovelFixedSOA	1633	n/a	n/a	1
763.6810000000	n/a	763681	FrequentFixedSOA	1633	n/a	n/a	1
765.3150000000	n/a	765315	FrequentFixedSOA	1633	n/a	n/a	1
766.9480000000	n/a	766948	FrequentFixedSOA	1633	n/a	n/a	1
768.5810000000	n/a	768581	GoFixedSOA	459	n/a	n/a	1
770.2150000000	n/a	770215	FrequentFixedSOA	1633	n/a	n/a	1
771.8480000000	n/a	771848	FrequentFixedSOA	1633	n/a	n/a	1
773.4810000000	n/a	773481	FrequentFixedSOA	1633	n/a	n/a	1
775.1150000000	n/a	775115	FrequentFixedSOA	1633	n/a	n/a	1
776.7480000000	n/a	776748	NovelFixedSOA	1633	n/a	n/a	1
778.3810000000	n/a	778381	FrequentFixedSOA	1633	n/a	n/a	1
780.0150000000	n/a	780015	FrequentFixedSOA	1633	n/a	n/a	1
781.6480000000	n/a	781648	NovelFixedSOA	1633	n/a	n/a	1
783.2810000000	n/a	783281	FrequentFixedSOA	1633	n/a	n/a	1
784.9150000000	n/a	784915	NovelFixedSOA	1633	n/a	n/a	1
786.5480000000	n/a	786548	FrequentFixedSOA	1633	n/a	n/a	1
788.1810000000	n/a	788181	FrequentFixedSOA	1633	n/a	n/a	1
789.8150000000	n/a	789815	FrequentFixedSOA	1633	n/a	n/a	1
791.4480000000	n/a	791448	FrequentFixedSOA	1633	n/a	n/a	1
793.0810000000	n/a	793081	FrequentFixedSOA	1633	n/a	n/a	1
794.7150000000	n/a	794715	FrequentFixedSOA	1633	n/a	n/a	1
796.3480000000	n/a	796348	FrequentFixedSOA	1633	n/a	n/a	1
797.9810000000	n/a	797981	GoFixedSOA	451	n/a	n/a	1
799.6150000000	n/a	799615	FrequentFixedSOA	1633	n/a	n/a	1
801.2480000000	n/a	801248	GoFixedSOA	372	n/a	n/a	1
802.8810000000	n/a	802881	FrequentFixedSOA	1633	n/a	n/a	1
804.5150000000	n/a	804515	FrequentFixedSOA	1633	n/a	n/a	1
806.1480000000	n/a	806148	NovelFixedSOA	1633	n/a	n/a	1
807.7810000000	n/a	807781	FrequentFixedSOA	1633	n/a	n/a	1
809.4150000000	n/a	809415	GoVariableSOA	353	n/a	n/a	1
810.9310000000	n/a	810931	FrequentVariableSOA	1533	n/a	n/a	1
812.4650000000	n/a	812465	FrequentVariableSOA	1700	n/a	n/a	1
814.1650000000	n/a	814165	FrequentVariableSOA	1683	n/a	n/a	1
815.8480000000	n/a	815848	GoVariableSOA	350	n/a	n/a	1
817.4650000000	n/a	817465	FrequentVariableSOA	1700	n/a	n/a	1
819.1640000000	n/a	819164	FrequentVariableSOA	1633	n/a	n/a	1
820.7980000000	n/a	820798	FrequentVariableSOA	1650	n/a	n/a	1
822.4480000000	n/a	822448	FrequentVariableSOA	1666	n/a	n/a	1
824.1140000000	n/a	824114	GoVariableSOA	361	n/a	n/a	1
825.7980000000	n/a	825798	FrequentVariableSOA	1750	n/a	n/a	1
827.5480000000	n/a	827548	FrequentVariableSOA	1666	n/a	n/a	1
829.2140000000	n/a	829214	NovelVariableSOA	1733	n/a	n/a	1
830.9480000000	n/a	830948	FrequentVariableSOA	1600	n/a	n/a	1
832.5480000000	n/a	832548	FrequentVariableSOA	1633	n/a	n/a	1
834.1810000000	n/a	834181	GoVariableSOA	456	n/a	n/a	1
835.7980000000	n/a	835798	FrequentVariableSOA	1683	n/a	n/a	1
837.4810000000	n/a	837481	FrequentVariableSOA	1533	n/a	n/a	1
839.0140000000	n/a	839014	FrequentVariableSOA	1616	n/a	n/a	1
840.6310000000	n/a	840631	NovelVariableSOA	1633	n/a	n/a	1
842.2640000000	n/a	842264	FrequentVariableSOA	1600	n/a	n/a	1
843.8640000000	n/a	843864	NovelVariableSOA	1716	n/a	n/a	1
845.5810000000	n/a	845581	FrequentVariableSOA	1783	n/a	n/a	1
847.3640000000	n/a	847364	FrequentVariableSOA	1533	n/a	n/a	1
848.8980000000	n/a	848898	FrequentVariableSOA	1633	n/a	n/a	1
850.5310000000	n/a	850531	GoVariableSOA	364	n/a	n/a	1
852.0640000000	n/a	852064	FrequentVariableSOA	1650	n/a	n/a	1
853.7140000000	n/a	853714	FrequentVariableSOA	1683	n/a	n/a	1
855.3980000000	n/a	855398	FrequentVariableSOA	1633	n/a	n/a	1
857.0310000000	n/a	857031	GoVariableSOA	459	n/a	n/a	1
858.6310000000	n/a	858631	FrequentVariableSOA	1800	n/a	n/a	1
860.4310000000	n/a	860431	FrequentVariableSOA	1683	n/a	n/a	1
862.1140000000	n/a	862114	NovelVariableSOA	1633	n/a	n/a	1
863.7480000000	n/a	863748	FrequentVariableSOA	1583	n/a	n/a	1
865.3310000000	n/a	865331	GoVariableSOA	293	n/a	n/a	1
867.0480000000	n/a	867048	FrequentVariableSOA	1533	n/a	n/a	1
868.5810000000	n/a	868581	FrequentVariableSOA	1683	n/a	n/a	1
870.2640000000	n/a	870264	FrequentVariableSOA	1650	n/a	n/a	1
871.9140000000	n/a	871914	FrequentVariableSOA	1600	n/a	n/a	1
873.5140000000	n/a	873514	FrequentVariableSOA	1550	n/a	n/a	1
875.0640000000	n/a	875064	FrequentVariableSOA	1516	n/a	n/a	1
876.5810000000	n/a	876581	NovelVariableSOA	1716	n/a	n/a	1
878.2980000000	n/a	878298	FrequentVariableSOA	1766	n/a	n/a	1
880.0640000000	n/a	880064	FrequentVariableSOA	1600	n/a	n/a	1
881.6640000000	n/a	881664	FrequentVariableSOA	1666	n/a	n/a	1
883.3310000000	n/a	883331	GoVariableSOA	362	n/a	n/a	1
884.8480000000	n/a	884848	FrequentVariableSOA	1683	n/a	n/a	1
886.5310000000	n/a	886531	FrequentVariableSOA	1550	n/a	n/a	1
888.0810000000	n/a	888081	FrequentVariableSOA	1600	n/a	n/a	1
889.6810000000	n/a	889681	FrequentVariableSOA	1500	n/a	n/a	1
891.1810000000	n/a	891181	NovelVariableSOA	1800	n/a	n/a	1
892.9810000000	n/a	892981	FrequentVariableSOA	1766	n/a	n/a	1
894.7480000000	n/a	894748	FrequentVariableSOA	1600	n/a	n/a	1
896.3480000000	n/a	896348	NovelVariableSOA	1783	n/a	n/a	1
898.1310000000	n/a	898131	FrequentVariableSOA	1766	n/a	n/a	1
899.8980000000	n/a	899898	NovelVariableSOA	1533	n/a	n/a	1
901.4310000000	n/a	901431	FrequentVariableSOA	1616	n/a	n/a	1
903.0480000000	n/a	903048	FrequentVariableSOA	1716	n/a	n/a	1
904.7640000000	n/a	904764	FrequentVariableSOA	1716	n/a	n/a	1
906.4810000000	n/a	906481	FrequentVariableSOA	1650	n/a	n/a	1
908.1310000000	n/a	908131	FrequentVariableSOA	1666	n/a	n/a	1
909.7980000000	n/a	909798	FrequentVariableSOA	1566	n/a	n/a	1
911.3640000000	n/a	911364	FrequentVariableSOA	1566	n/a	n/a	1
912.9310000000	n/a	912931	GoVariableSOA	383	n/a	n/a	1
914.5810000000	n/a	914581	FrequentVariableSOA	1500	n/a	n/a	1
916.0810000000	n/a	916081	GoVariableSOA	381	n/a	n/a	1
917.7640000000	n/a	917764	FrequentVariableSOA	1733	n/a	n/a	1
919.4980000000	n/a	919498	FrequentVariableSOA	1600	n/a	n/a	1
921.0980000000	n/a	921098	NovelVariableSOA	1516	n/a	n/a	1
922.6140000000	n/a	922614	FrequentVariableSOA	1516	n/a	n/a	1
