onset	duration	sample	trial_type	response_time	stim_file	value	correct
9.2150000000	n/a	9215	ignore	n/a	n/a	n/a	n/a
12.3150000000	n/a	12315	ignore	n/a	n/a	n/a	n/a
15.3280000000	n/a	15328	ignore	n/a	n/a	n/a	n/a
33.2980000000	n/a	33298	ignore	n/a	n/a	n/a	n/a
36.3980000000	n/a	36398	ignore	n/a	n/a	n/a	n/a
39.3850000000	n/a	39385	ignore	n/a	n/a	n/a	n/a
55.8820000000	n/a	55882	NeuStim	n/a	n/a	n/a	n/a
58.9810000000	n/a	58981	NeuNonAlcP1000	n/a	n/a	n/a	n/a
63.9690000000	n/a	63969	NeuNonAlcP1000	n/a	n/a	n/a	n/a
73.4650000000	n/a	73465	PosStim	n/a	n/a	n/a	n/a
76.4980000000	n/a	76498	PosAlcStimWithoutStartle	n/a	n/a	n/a	n/a
91.7480000000	n/a	91748	NeuStim	n/a	n/a	n/a	n/a
94.8480000000	n/a	94848	NeuAlcP2000	n/a	n/a	n/a	n/a
98.8350000000	n/a	98835	NeuAlcP2000	n/a	n/a	n/a	n/a
110.7150000000	n/a	110715	NegStim	n/a	n/a	n/a	n/a
113.8150000000	n/a	113815	NegNonAlcP2000	n/a	n/a	n/a	n/a
117.8020000000	n/a	117802	NegNonAlcP2000	n/a	n/a	n/a	n/a
130.3150000000	n/a	130315	NeuStim	n/a	n/a	n/a	n/a
133.3480000000	n/a	133348	NeuNonAlcStimWithoutStartle	n/a	n/a	n/a	n/a
148.6980000000	n/a	148698	PosStim	n/a	n/a	n/a	n/a
151.7980000000	n/a	151798	PosNonAlcP1000	n/a	n/a	n/a	n/a
156.7850000000	n/a	156785	PosNonAlcP1000	n/a	n/a	n/a	n/a
165.8980000000	n/a	165898	NeuStim	n/a	n/a	n/a	n/a
168.9980000000	n/a	168998	NeuAlcP1000	n/a	n/a	n/a	n/a
173.9850000000	n/a	173985	NeuAlcP1000	n/a	n/a	n/a	n/a
182.2150000000	n/a	182215	NegStim	n/a	n/a	n/a	n/a
185.2480000000	n/a	185248	NegNonAlcStimWithoutStartle	n/a	n/a	n/a	n/a
201.3650000000	n/a	201365	NeuStim	n/a	n/a	n/a	n/a
204.4650000000	n/a	204465	NeuNonAlcP1000	n/a	n/a	n/a	n/a
209.4520000000	n/a	209452	NeuNonAlcP1000	n/a	n/a	n/a	n/a
218.2810000000	n/a	218281	NegStim	n/a	n/a	n/a	n/a
221.3810000000	n/a	221381	NegNonAlcP3000	n/a	n/a	n/a	n/a
224.3680000000	n/a	224368	NegNonAlcP3000	n/a	n/a	n/a	n/a
235.1150000000	n/a	235115	PosStim	n/a	n/a	n/a	n/a
238.2150000000	n/a	238215	PosNonAlcP3000	n/a	n/a	n/a	n/a
241.2020000000	n/a	241202	PosNonAlcP3000	n/a	n/a	n/a	n/a
254.3480000000	n/a	254348	NeuStim	n/a	n/a	n/a	n/a
257.4480000000	n/a	257448	NeuAlcP1000	n/a	n/a	n/a	n/a
262.4350000000	n/a	262435	NeuAlcP1000	n/a	n/a	n/a	n/a
270.6480000000	n/a	270648	NegStim	n/a	n/a	n/a	n/a
273.6810000000	n/a	273681	NegAlcStimWithoutStartle	n/a	n/a	n/a	n/a
288.6310000000	n/a	288631	PosStim	n/a	n/a	n/a	n/a
291.6640000000	n/a	291664	PosNonAlcStimWithoutStartle	n/a	n/a	n/a	n/a
306.9640000000	n/a	306964	NegStim	n/a	n/a	n/a	n/a
310.0640000000	n/a	310064	NegAlcP3000	n/a	n/a	n/a	n/a
313.0510000000	n/a	313051	NegAlcP3000	n/a	n/a	n/a	n/a
323.9140000000	n/a	323914	NeuStim	n/a	n/a	n/a	n/a
326.9480000000	n/a	326948	NeuAlcStimWithoutStartle	n/a	n/a	n/a	n/a
343.1480000000	n/a	343148	PosStim	n/a	n/a	n/a	n/a
346.2480000000	n/a	346248	PosNonAlcP1000	n/a	n/a	n/a	n/a
351.2350000000	n/a	351235	PosNonAlcP1000	n/a	n/a	n/a	n/a
361.3140000000	n/a	361314	NegStim	n/a	n/a	n/a	n/a
364.4140000000	n/a	364414	NegAlcP3000	n/a	n/a	n/a	n/a
367.4010000000	n/a	367401	NegAlcP3000	n/a	n/a	n/a	n/a
379.3310000000	n/a	379331	NegStim	n/a	n/a	n/a	n/a
382.3640000000	n/a	382364	NegNonAlcStimWithoutStartle	n/a	n/a	n/a	n/a
395.8640000000	n/a	395864	PosStim	n/a	n/a	n/a	n/a
398.9640000000	n/a	398964	PosAlcP1000	n/a	n/a	n/a	n/a
403.9510000000	n/a	403951	PosAlcP1000	n/a	n/a	n/a	n/a
414.3640000000	n/a	414364	NeuStim	n/a	n/a	n/a	n/a
417.3980000000	n/a	417398	NeuAlcStimWithoutStartle	n/a	n/a	n/a	n/a
431.5140000000	n/a	431514	NegStim	n/a	n/a	n/a	n/a
434.6140000000	n/a	434614	NegNonAlcP1000	n/a	n/a	n/a	n/a
439.6010000000	n/a	439601	NegNonAlcP1000	n/a	n/a	n/a	n/a
448.8140000000	n/a	448814	PosStim	n/a	n/a	n/a	n/a
451.9140000000	n/a	451914	PosAlcP3000	n/a	n/a	n/a	n/a
454.9010000000	n/a	454901	PosAlcP3000	n/a	n/a	n/a	n/a
466.7470000000	n/a	466747	NeuStim	n/a	n/a	n/a	n/a
469.8470000000	n/a	469847	NeuAlcP3000	n/a	n/a	n/a	n/a
472.8340000000	n/a	472834	NeuAlcP3000	n/a	n/a	n/a	n/a
485.4140000000	n/a	485414	NegStim	n/a	n/a	n/a	n/a
488.4470000000	n/a	488447	NegAlcStimWithoutStartle	n/a	n/a	n/a	n/a
504.4640000000	n/a	504464	PosStim	n/a	n/a	n/a	n/a
507.5640000000	n/a	507564	PosNonAlcP2000	n/a	n/a	n/a	n/a
511.5510000000	n/a	511551	PosNonAlcP2000	n/a	n/a	n/a	n/a
524.3970000000	n/a	524397	NegStim	n/a	n/a	n/a	n/a
527.4970000000	n/a	527497	NegAlcP2000	n/a	n/a	n/a	n/a
531.4840000000	n/a	531484	NegAlcP2000	n/a	n/a	n/a	n/a
542.8310000000	n/a	542831	PosStim	n/a	n/a	n/a	n/a
545.9310000000	n/a	545931	PosAlcP2000	n/a	n/a	n/a	n/a
549.9180000000	n/a	549918	PosAlcP2000	n/a	n/a	n/a	n/a
562.6810000000	n/a	562681	NeuStim	n/a	n/a	n/a	n/a
565.7140000000	n/a	565714	NeuAlcStimWithoutStartle	n/a	n/a	n/a	n/a
582.6640000000	n/a	582664	NegStim	n/a	n/a	n/a	n/a
585.7640000000	n/a	585764	NegNonAlcP1000	n/a	n/a	n/a	n/a
590.7510000000	n/a	590751	NegNonAlcP1000	n/a	n/a	n/a	n/a
601.0140000000	n/a	601014	NeuStim	n/a	n/a	n/a	n/a
604.1140000000	n/a	604114	NeuNonAlcP1000	n/a	n/a	n/a	n/a
609.1010000000	n/a	609101	NeuNonAlcP1000	n/a	n/a	n/a	n/a
620.5640000000	n/a	620564	PosStim	n/a	n/a	n/a	n/a
623.6640000000	n/a	623664	PosNonAlcP3000	n/a	n/a	n/a	n/a
626.6510000000	n/a	626651	PosNonAlcP3000	n/a	n/a	n/a	n/a
639.9640000000	n/a	639964	NeuStim	n/a	n/a	n/a	n/a
642.9970000000	n/a	642997	NeuNonAlcStimWithoutStartle	n/a	n/a	n/a	n/a
656.7470000000	n/a	656747	NegStim	n/a	n/a	n/a	n/a
659.7800000000	n/a	659780	NegNonAlcStimWithoutStartle	n/a	n/a	n/a	n/a
674.2140000000	n/a	674214	NeuStim	n/a	n/a	n/a	n/a
677.3140000000	n/a	677314	NeuNonAlcP3000	n/a	n/a	n/a	n/a
680.3010000000	n/a	680301	NeuNonAlcP3000	n/a	n/a	n/a	n/a
692.0300000000	n/a	692030	PosStim	n/a	n/a	n/a	n/a
695.1300000000	n/a	695130	PosAlcP1000	n/a	n/a	n/a	n/a
700.1170000000	n/a	700117	PosAlcP1000	n/a	n/a	n/a	n/a
711.1140000000	n/a	711114	NegStim	n/a	n/a	n/a	n/a
714.2140000000	n/a	714214	NegNonAlcP1000	n/a	n/a	n/a	n/a
719.2010000000	n/a	719201	NegNonAlcP1000	n/a	n/a	n/a	n/a
731.0970000000	n/a	731097	PosStim	n/a	n/a	n/a	n/a
734.1300000000	n/a	734130	PosNonAlcStimWithoutStartle	n/a	n/a	n/a	n/a
747.5470000000	n/a	747547	NeuStim	n/a	n/a	n/a	n/a
750.6470000000	n/a	750647	NeuAlcP2000	n/a	n/a	n/a	n/a
754.6340000000	n/a	754634	NeuAlcP2000	n/a	n/a	n/a	n/a
766.5970000000	n/a	766597	PosStim	n/a	n/a	n/a	n/a
769.6970000000	n/a	769697	PosAlcP1000	n/a	n/a	n/a	n/a
774.6840000000	n/a	774684	PosAlcP1000	n/a	n/a	n/a	n/a
785.6470000000	n/a	785647	NegStim	n/a	n/a	n/a	n/a
788.6800000000	n/a	788680	NegNonAlcStimWithoutStartle	n/a	n/a	n/a	n/a
804.0300000000	n/a	804030	PosStim	n/a	n/a	n/a	n/a
807.1300000000	n/a	807130	PosNonAlcP2000	n/a	n/a	n/a	n/a
811.1170000000	n/a	811117	PosNonAlcP2000	n/a	n/a	n/a	n/a
822.0470000000	n/a	822047	NegStim	n/a	n/a	n/a	n/a
825.1470000000	n/a	825147	NegNonAlcP3000	n/a	n/a	n/a	n/a
828.1340000000	n/a	828134	NegNonAlcP3000	n/a	n/a	n/a	n/a
841.8140000000	n/a	841814	NeuStim	n/a	n/a	n/a	n/a
844.9140000000	n/a	844914	NeuNonAlcP2000	n/a	n/a	n/a	n/a
848.9010000000	n/a	848901	NeuNonAlcP2000	n/a	n/a	n/a	n/a
859.7130000000	n/a	859713	NegStim	n/a	n/a	n/a	n/a
862.7470000000	n/a	862747	NegAlcStimWithoutStartle	n/a	n/a	n/a	n/a
877.5300000000	n/a	877530	PosStim	n/a	n/a	n/a	n/a
880.5630000000	n/a	880563	PosAlcStimWithoutStartle	n/a	n/a	n/a	n/a
896.3630000000	n/a	896363	NeuStim	n/a	n/a	n/a	n/a
899.4630000000	n/a	899463	NeuAlcP3000	n/a	n/a	n/a	n/a
902.4500000000	n/a	902450	NeuAlcP3000	n/a	n/a	n/a	n/a
914.3470000000	n/a	914347	NegStim	n/a	n/a	n/a	n/a
917.4470000000	n/a	917447	NegNonAlcP1000	n/a	n/a	n/a	n/a
922.4340000000	n/a	922434	NegNonAlcP1000	n/a	n/a	n/a	n/a
931.2130000000	n/a	931213	NeuStim	n/a	n/a	n/a	n/a
934.3130000000	n/a	934313	NeuNonAlcP2000	n/a	n/a	n/a	n/a
938.3000000000	n/a	938300	NeuNonAlcP2000	n/a	n/a	n/a	n/a
949.7630000000	n/a	949763	PosStim	n/a	n/a	n/a	n/a
952.7970000000	n/a	952797	PosAlcStimWithoutStartle	n/a	n/a	n/a	n/a
966.2130000000	n/a	966213	NegStim	n/a	n/a	n/a	n/a
969.3130000000	n/a	969313	NegNonAlcP2000	n/a	n/a	n/a	n/a
973.3000000000	n/a	973300	NegNonAlcP2000	n/a	n/a	n/a	n/a
983.7800000000	n/a	983780	NeuStim	n/a	n/a	n/a	n/a
986.8800000000	n/a	986880	NeuAlcP1000	n/a	n/a	n/a	n/a
991.8670000000	n/a	991867	NeuAlcP1000	n/a	n/a	n/a	n/a
