onset	duration	sample	trial_type	response_time	stim_file	value	correct
10.7490000000	n/a	10749	ignore	4922	n/a	n/a	0
16.7490000000	n/a	16749	ignore	1000	n/a	n/a	1
18.7490000000	n/a	18749	ignore	1700	n/a	n/a	1
20.4490000000	n/a	20449	ignore	4054	n/a	n/a	1
25.5650000000	n/a	25565	ignore	1000	n/a	n/a	1
27.5650000000	n/a	27565	ignore	1700	n/a	n/a	1
29.2650000000	n/a	29265	ignore	4575	n/a	n/a	0
34.9150000000	n/a	34915	ignore	1000	n/a	n/a	1
36.9150000000	n/a	36915	ignore	1700	n/a	n/a	1
38.6150000000	n/a	38615	ignore	6953	n/a	n/a	0
46.6320000000	n/a	46632	ignore	1000	n/a	n/a	1
48.6320000000	n/a	48632	ignore	1700	n/a	n/a	1
50.3320000000	n/a	50332	ignore	7043	n/a	n/a	1
58.4490000000	n/a	58449	ignore	1000	n/a	n/a	1
60.4490000000	n/a	60449	ignore	1700	n/a	n/a	1
62.1490000000	n/a	62149	ignore	7737	n/a	n/a	1
70.9480000000	n/a	70948	ignore	1000	n/a	n/a	1
72.9490000000	n/a	72949	ignore	1700	n/a	n/a	1
74.6480000000	n/a	74648	ignore	5511	n/a	n/a	0
81.2320000000	n/a	81232	ignore	1000	n/a	n/a	1
83.2320000000	n/a	83232	STATUS	1700	n/a	n/a	1
84.9320000000	n/a	84932	ignore	8246	n/a	n/a	1
94.2480000000	n/a	94248	ignore	1000	n/a	n/a	1
96.2490000000	n/a	96249	STATUS	1700	n/a	n/a	1
97.9480000000	n/a	97948	ignore	7801	n/a	n/a	1
105.8150000000	n/a	105815	ignore 	2000	n/a	n/a	1
119.4150000000	n/a	119415	ignore	1000	n/a	n/a	1
121.4150000000	n/a	121415	STATUS	1700	n/a	n/a	1
123.1150000000	n/a	123115	ignore	5271	n/a	n/a	1
129.4480000000	n/a	129448	ignore	1000	n/a	n/a	1
131.4480000000	n/a	131448	STATUS	1700	n/a	n/a	1
133.1480000000	n/a	133148	ignore	4337	n/a	n/a	0
138.5480000000	n/a	138548	ignore	1000	n/a	n/a	1
140.5480000000	n/a	140548	ignore	1700	n/a	n/a	1
142.2480000000	n/a	142248	ignore	4844	n/a	n/a	1
148.1650000000	n/a	148165	ignore	1000	n/a	n/a	1
150.1650000000	n/a	150165	ignore	1700	n/a	n/a	1
151.8650000000	n/a	151865	ignore	6360	n/a	n/a	0
159.2980000000	n/a	159298	ignore	1000	n/a	n/a	1
161.2980000000	n/a	161298	ignore	1700	n/a	n/a	1
162.9980000000	n/a	162998	ignore	3532	n/a	n/a	1
167.5980000000	n/a	167598	ignore	1000	n/a	n/a	1
169.5980000000	n/a	169598	ignore	1700	n/a	n/a	1
171.2980000000	n/a	171298	ignore	5027	n/a	n/a	1
177.3980000000	n/a	177398	ignore	1000	n/a	n/a	1
179.3980000000	n/a	179398	ignore	1700	n/a	n/a	1
181.0980000000	n/a	181098	ignore	7940	n/a	n/a	1
190.1150000000	n/a	190115	ignore	1000	n/a	n/a	1
192.1150000000	n/a	192115	ignore	1700	n/a	n/a	1
193.8150000000	n/a	193815	ignore	2543	n/a	n/a	1
196.4320000000	n/a	196432	ignore 	2000	n/a	n/a	1
220.5980000000	n/a	220598	PenaltyB1	4490	n/a	n/a	1
226.1650000000	n/a	226165	NeuCorrB1	1000	n/a	n/a	1
228.1650000000	n/a	228165	ignore	1700	n/a	n/a	1
229.8650000000	n/a	229865	PenaltyB1	3991	n/a	n/a	0
234.9320000000	n/a	234932	PunIncorrB1	1000	n/a	n/a	1
236.9320000000	n/a	236932	ignore	1700	n/a	n/a	1
238.6320000000	n/a	238632	PenaltyB1	2138	n/a	n/a	1
241.8320000000	n/a	241832	NeuCorrB1	1000	n/a	n/a	1
243.8320000000	n/a	243832	ignore	1700	n/a	n/a	1
245.5320000000	n/a	245532	RewardB1	6293	n/a	n/a	0
252.8980000000	n/a	252898	NeuIncorrB1	1000	n/a	n/a	1
254.8980000000	n/a	254898	ignore	1700	n/a	n/a	1
256.5980000000	n/a	256598	RewardB1	2441	n/a	n/a	0
260.1150000000	n/a	260115	NeuIncorrB1	1000	n/a	n/a	1
262.1150000000	n/a	262115	ignore	1700	n/a	n/a	1
263.8150000000	n/a	263815	PenaltyB1	1434	n/a	n/a	1
266.3150000000	n/a	266315	NeuCorrB1	1000	n/a	n/a	1
268.3150000000	n/a	268315	ignore	1700	n/a	n/a	1
270.0150000000	n/a	270015	PenaltyB1	1178	n/a	n/a	1
272.2650000000	n/a	272265	NeuCorrB1	1000	n/a	n/a	1
274.2650000000	n/a	274265	ignore	1700	n/a	n/a	1
275.9650000000	n/a	275965	PenaltyB1	4984	n/a	n/a	0
282.0150000000	n/a	282015	PunIncorrB1	1000	n/a	n/a	1
284.0150000000	n/a	284015	STATUS	1700	n/a	n/a	1
285.7150000000	n/a	285715	PenaltyB1	820	n/a	n/a	1
287.5980000000	n/a	287598	PunCorrB1	1000	n/a	n/a	1
289.5980000000	n/a	289598	STATUS	1700	n/a	n/a	1
291.2980000000	n/a	291298	RewardB1	4738	n/a	n/a	0
297.1150000000	n/a	297115	NeuIncorrB1	1000	n/a	n/a	1
299.1150000000	n/a	299115	STATUS	1700	n/a	n/a	1
300.8150000000	n/a	300815	PenaltyB1	2225	n/a	n/a	0
304.1150000000	n/a	304115	PunIncorrB1	1000	n/a	n/a	1
306.1150000000	n/a	306115	STATUS	1700	n/a	n/a	1
307.8150000000	n/a	307815	RewardB1	2390	n/a	n/a	0
311.2810000000	n/a	311281	RewIncorrB1	1000	n/a	n/a	1
313.2810000000	n/a	313281	STATUS	1700	n/a	n/a	1
314.9810000000	n/a	314981	PenaltyB1	2211	n/a	n/a	1
318.2650000000	n/a	318265	NeuCorrB1	1000	n/a	n/a	1
320.2650000000	n/a	320265	STATUS	1700	n/a	n/a	1
321.9650000000	n/a	321965	RewardB1	990	n/a	n/a	0
324.0310000000	n/a	324031	NeuIncorrB1	1000	n/a	n/a	1
326.0310000000	n/a	326031	STATUS	1700	n/a	n/a	1
327.7310000000	n/a	327731	PenaltyB1	776	n/a	n/a	1
329.5810000000	n/a	329581	NeuCorrB1	1000	n/a	n/a	1
331.5810000000	n/a	331581	STATUS	1700	n/a	n/a	1
333.2810000000	n/a	333281	PenaltyB1	524	n/a	n/a	1
334.8810000000	n/a	334881	NeuCorrB1	1000	n/a	n/a	1
336.8810000000	n/a	336881	STATUS	1700	n/a	n/a	1
338.5810000000	n/a	338581	RewardB1	1018	n/a	n/a	0
340.6650000000	n/a	340665	RewIncorrB1	1000	n/a	n/a	1
342.6650000000	n/a	342665	STATUS	1700	n/a	n/a	1
344.3650000000	n/a	344365	PenaltyB1	1422	n/a	n/a	1
346.8650000000	n/a	346865	NeuCorrB1	1000	n/a	n/a	1
348.8650000000	n/a	348865	STATUS	1700	n/a	n/a	1
350.5650000000	n/a	350565	RewardB1	612	n/a	n/a	0
352.2480000000	n/a	352248	NeuIncorrB1	1000	n/a	n/a	1
354.2480000000	n/a	354248	STATUS	1700	n/a	n/a	1
355.9480000000	n/a	355948	RewardB1	782	n/a	n/a	0
357.7980000000	n/a	357798	NeuIncorrB1	1000	n/a	n/a	1
359.7980000000	n/a	359798	STATUS	1700	n/a	n/a	1
361.4980000000	n/a	361498	RewardB1	2858	n/a	n/a	0
365.4310000000	n/a	365431	RewIncorrB1	1000	n/a	n/a	1
367.4310000000	n/a	367431	ignore	1700	n/a	n/a	1
369.1310000000	n/a	369131	RewardB1	1101	n/a	n/a	0
371.2980000000	n/a	371298	NeuIncorrB1	1000	n/a	n/a	1
373.2980000000	n/a	373298	ignore	1700	n/a	n/a	1
374.9980000000	n/a	374998	RewardB1	919	n/a	n/a	0
376.9810000000	n/a	376981	NeuIncorrB1	1000	n/a	n/a	1
378.9810000000	n/a	378981	ignore	1700	n/a	n/a	1
380.6810000000	n/a	380681	PenaltyB1	1668	n/a	n/a	1
383.4150000000	n/a	383415	NeuCorrB1	1000	n/a	n/a	1
385.4150000000	n/a	385415	ignore	1700	n/a	n/a	1
387.1150000000	n/a	387115	RewardB1	1105	n/a	n/a	0
389.2980000000	n/a	389298	NeuIncorrB1	1000	n/a	n/a	1
391.2980000000	n/a	391298	ignore	1700	n/a	n/a	1
392.9980000000	n/a	392998	PenaltyB1	2051	n/a	n/a	1
396.1150000000	n/a	396115	PunCorrB1	1000	n/a	n/a	1
398.1150000000	n/a	398115	STATUS	1700	n/a	n/a	1
399.8150000000	n/a	399815	RewardB1	1558	n/a	n/a	0
402.4480000000	n/a	402448	NeuIncorrB1	1000	n/a	n/a	1
404.4480000000	n/a	404448	STATUS	1700	n/a	n/a	1
406.1480000000	n/a	406148	RewardB1	634	n/a	n/a	0
407.8480000000	n/a	407848	NeuIncorrB1	1000	n/a	n/a	1
409.8480000000	n/a	409848	STATUS	1700	n/a	n/a	1
411.5480000000	n/a	411548	RewardB1	2121	n/a	n/a	0
414.7310000000	n/a	414731	NeuIncorrB1	1000	n/a	n/a	1
416.7310000000	n/a	416731	STATUS	1700	n/a	n/a	1
418.4310000000	n/a	418431	PenaltyB1	3861	n/a	n/a	0
423.3650000000	n/a	423365	PunIncorrB1	1000	n/a	n/a	1
425.3650000000	n/a	425365	STATUS	1700	n/a	n/a	1
427.0650000000	n/a	427065	RewardB1	992	n/a	n/a	1
429.1310000000	n/a	429131	NeuCorrB1	1000	n/a	n/a	1
431.1310000000	n/a	431131	STATUS	1700	n/a	n/a	1
432.8310000000	n/a	432831	PenaltyB1	1569	n/a	n/a	1
435.4650000000	n/a	435465	NeuCorrB1	1000	n/a	n/a	1
437.4650000000	n/a	437465	STATUS	1700	n/a	n/a	1
439.1650000000	n/a	439165	RewardB1	808	n/a	n/a	0
441.0480000000	n/a	441048	NeuIncorrB1	1000	n/a	n/a	1
443.0480000000	n/a	443048	STATUS	1700	n/a	n/a	1
444.7480000000	n/a	444748	PenaltyB1	1558	n/a	n/a	1
447.3810000000	n/a	447381	PunCorrB1	1000	n/a	n/a	1
449.3810000000	n/a	449381	STATUS	1700	n/a	n/a	1
451.0810000000	n/a	451081	RewardB1	1750	n/a	n/a	0
453.8980000000	n/a	453898	NeuIncorrB1	1000	n/a	n/a	1
455.8980000000	n/a	455898	STATUS	1700	n/a	n/a	1
457.5980000000	n/a	457598	PenaltyB1	3045	n/a	n/a	0
461.7140000000	n/a	461714	PunIncorrB1	1000	n/a	n/a	1
463.7150000000	n/a	463715	STATUS	1700	n/a	n/a	1
465.4140000000	n/a	465414	PenaltyB1	1602	n/a	n/a	1
468.0810000000	n/a	468081	NeuCorrB1	1000	n/a	n/a	1
470.0810000000	n/a	470081	STATUS	1700	n/a	n/a	1
471.7810000000	n/a	471781	RewardB1	4528	n/a	n/a	0
477.3810000000	n/a	477381	NeuIncorrB1	1000	n/a	n/a	1
479.3810000000	n/a	479381	STATUS	1700	n/a	n/a	1
481.0810000000	n/a	481081	PenaltyB1	757	n/a	n/a	1
482.9140000000	n/a	482914	PunCorrB1	1000	n/a	n/a	1
484.9140000000	n/a	484914	STATUS	1700	n/a	n/a	1
486.6140000000	n/a	486614	RewardB1	754	n/a	n/a	0
488.4310000000	n/a	488431	NeuIncorrB1	1000	n/a	n/a	1
490.4310000000	n/a	490431	STATUS	1700	n/a	n/a	1
495.9810000000	n/a	495981	RewardB2	837	n/a	n/a	0
497.8810000000	n/a	497881	NeuIncorrB2	1000	n/a	n/a	1
499.8810000000	n/a	499881	STATUS	1700	n/a	n/a	1
501.5810000000	n/a	501581	PenaltyB2	603	n/a	n/a	0
503.2480000000	n/a	503248	PunIncorrB2	1000	n/a	n/a	1
505.2480000000	n/a	505248	STATUS	1700	n/a	n/a	1
506.9480000000	n/a	506948	RewardB2	777	n/a	n/a	0
508.7980000000	n/a	508798	NeuIncorrB2	1000	n/a	n/a	1
510.7980000000	n/a	510798	STATUS	1700	n/a	n/a	1
512.4980000000	n/a	512498	RewardB2	862	n/a	n/a	0
514.4310000000	n/a	514431	RewIncorrB2	1000	n/a	n/a	1
516.4310000000	n/a	516431	STATUS	1700	n/a	n/a	1
518.1310000000	n/a	518131	PenaltyB2	1341	n/a	n/a	1
520.5480000000	n/a	520548	NeuCorrB2	1000	n/a	n/a	1
522.5480000000	n/a	522548	STATUS	1700	n/a	n/a	1
524.2480000000	n/a	524248	RewardB2	953	n/a	n/a	0
526.2640000000	n/a	526264	NeuIncorrB2	1000	n/a	n/a	1
528.2640000000	n/a	528264	STATUS	1700	n/a	n/a	1
529.9640000000	n/a	529964	PenaltyB2	6377	n/a	n/a	0
537.4140000000	n/a	537414	PunIncorrB2	1000	n/a	n/a	1
539.4140000000	n/a	539414	STATUS	1700	n/a	n/a	1
541.1140000000	n/a	541114	RewardB2	935	n/a	n/a	0
543.1140000000	n/a	543114	NeuIncorrB2	1000	n/a	n/a	1
545.1140000000	n/a	545114	STATUS	1700	n/a	n/a	1
546.8140000000	n/a	546814	PenaltyB2	794	n/a	n/a	1
548.6810000000	n/a	548681	NeuCorrB2	1000	n/a	n/a	1
550.6810000000	n/a	550681	STATUS	1700	n/a	n/a	1
552.3810000000	n/a	552381	RewardB2	788	n/a	n/a	0
554.2310000000	n/a	554231	NeuIncorrB2	1000	n/a	n/a	1
556.2310000000	n/a	556231	STATUS	1700	n/a	n/a	1
557.9310000000	n/a	557931	PenaltyB2	1491	n/a	n/a	1
560.4980000000	n/a	560498	PunCorrB2	1000	n/a	n/a	1
562.4980000000	n/a	562498	STATUS	1700	n/a	n/a	1
564.1980000000	n/a	564198	RewardB2	3152	n/a	n/a	0
568.4140000000	n/a	568414	NeuIncorrB2	1000	n/a	n/a	1
570.4140000000	n/a	570414	STATUS	1700	n/a	n/a	1
572.1140000000	n/a	572114	PenaltyB2	1959	n/a	n/a	1
575.1480000000	n/a	575148	NeuCorrB2	1000	n/a	n/a	1
577.1480000000	n/a	577148	STATUS	1700	n/a	n/a	1
578.8480000000	n/a	578848	RewardB2	780	n/a	n/a	0
580.6980000000	n/a	580698	NeuIncorrB2	1000	n/a	n/a	1
582.6980000000	n/a	582698	STATUS	1700	n/a	n/a	1
584.3980000000	n/a	584398	PenaltyB2	1336	n/a	n/a	1
586.7980000000	n/a	586798	NeuCorrB2	1000	n/a	n/a	1
588.7980000000	n/a	588798	STATUS	1700	n/a	n/a	1
590.4980000000	n/a	590498	RewardB2	719	n/a	n/a	0
592.2810000000	n/a	592281	RewIncorrB2	1000	n/a	n/a	1
594.2810000000	n/a	594281	STATUS	1700	n/a	n/a	1
595.9810000000	n/a	595981	PenaltyB2	8817	n/a	n/a	0
605.8640000000	n/a	605864	PunIncorrB2	1000	n/a	n/a	1
607.8640000000	n/a	607864	STATUS	1700	n/a	n/a	1
609.5640000000	n/a	609564	RewardB2	1201	n/a	n/a	0
611.8310000000	n/a	611831	NeuIncorrB2	1000	n/a	n/a	1
613.8310000000	n/a	613831	STATUS	1700	n/a	n/a	1
615.5310000000	n/a	615531	PenaltyB2	1174	n/a	n/a	1
617.7810000000	n/a	617781	NeuCorrB2	1000	n/a	n/a	1
619.7810000000	n/a	619781	STATUS	1700	n/a	n/a	1
621.4810000000	n/a	621481	RewardB2	1024	n/a	n/a	0
623.5810000000	n/a	623581	NeuIncorrB2	1000	n/a	n/a	1
625.5810000000	n/a	625581	STATUS	1700	n/a	n/a	1
627.2810000000	n/a	627281	PenaltyB2	2429	n/a	n/a	1
630.7810000000	n/a	630781	PunCorrB2	1000	n/a	n/a	1
632.7810000000	n/a	632781	STATUS	1700	n/a	n/a	1
634.4810000000	n/a	634481	PenaltyB2	843	n/a	n/a	1
636.3980000000	n/a	636398	NeuCorrB2	1000	n/a	n/a	1
638.3980000000	n/a	638398	STATUS	1700	n/a	n/a	1
640.0970000000	n/a	640097	PenaltyB2	1456	n/a	n/a	0
642.6310000000	n/a	642631	PunIncorrB2	1000	n/a	n/a	1
644.6310000000	n/a	644631	STATUS	1700	n/a	n/a	1
646.3310000000	n/a	646331	RewardB2	1267	n/a	n/a	0
648.6640000000	n/a	648664	NeuIncorrB2	1000	n/a	n/a	1
650.6640000000	n/a	650664	STATUS	1700	n/a	n/a	1
652.3640000000	n/a	652364	RewardB2	709	n/a	n/a	0
654.1470000000	n/a	654147	RewIncorrB2	1000	n/a	n/a	1
656.1480000000	n/a	656148	STATUS	1700	n/a	n/a	1
657.8470000000	n/a	657847	RewardB2	715	n/a	n/a	0
659.6310000000	n/a	659631	NeuIncorrB2	1000	n/a	n/a	1
661.6310000000	n/a	661631	STATUS	1700	n/a	n/a	1
663.3310000000	n/a	663331	PenaltyB2	3444	n/a	n/a	1
667.8470000000	n/a	667847	NeuCorrB2	1000	n/a	n/a	1
669.8480000000	n/a	669848	STATUS	1700	n/a	n/a	1
671.5470000000	n/a	671547	PenaltyB2	2759	n/a	n/a	1
675.3810000000	n/a	675381	NeuCorrB2	1000	n/a	n/a	1
677.3810000000	n/a	677381	STATUS	1700	n/a	n/a	1
679.0810000000	n/a	679081	RewardB2	995	n/a	n/a	0
681.1470000000	n/a	681147	NeuIncorrB2	1000	n/a	n/a	1
683.1470000000	n/a	683147	STATUS	1700	n/a	n/a	1
684.8470000000	n/a	684847	PenaltyB2	3399	n/a	n/a	0
689.3140000000	n/a	689314	PunIncorrB2	1000	n/a	n/a	1
691.3140000000	n/a	691314	STATUS	1700	n/a	n/a	1
693.0140000000	n/a	693014	RewardB2	988	n/a	n/a	0
695.0810000000	n/a	695081	RewIncorrB2	1000	n/a	n/a	1
697.0810000000	n/a	697081	STATUS	1700	n/a	n/a	1
698.7810000000	n/a	698781	PenaltyB2	822	n/a	n/a	1
700.6810000000	n/a	700681	NeuCorrB2	1000	n/a	n/a	1
702.6810000000	n/a	702681	STATUS	1700	n/a	n/a	1
704.3810000000	n/a	704381	RewardB2	585	n/a	n/a	0
706.0310000000	n/a	706031	NeuIncorrB2	1000	n/a	n/a	1
708.0310000000	n/a	708031	STATUS	1700	n/a	n/a	1
709.7310000000	n/a	709731	PenaltyB2	1980	n/a	n/a	1
712.7810000000	n/a	712781	NeuCorrB2	1000	n/a	n/a	1
714.7810000000	n/a	714781	STATUS	1700	n/a	n/a	1
716.4810000000	n/a	716481	PenaltyB2	830	n/a	n/a	1
718.3810000000	n/a	718381	PunCorrB2	1000	n/a	n/a	1
720.3810000000	n/a	720381	STATUS	1700	n/a	n/a	1
722.0810000000	n/a	722081	RewardB2	995	n/a	n/a	0
724.1470000000	n/a	724147	NeuIncorrB2	1000	n/a	n/a	1
726.1470000000	n/a	726147	STATUS	1700	n/a	n/a	1
727.8470000000	n/a	727847	PenaltyB2	2952	n/a	n/a	0
731.8640000000	n/a	731864	PunIncorrB2	1000	n/a	n/a	1
733.8640000000	n/a	733864	STATUS	1700	n/a	n/a	1
735.5640000000	n/a	735564	RewardB2	927	n/a	n/a	0
737.5640000000	n/a	737564	NeuIncorrB2	1000	n/a	n/a	1
739.5640000000	n/a	739564	STATUS	1700	n/a	n/a	1
741.2640000000	n/a	741264	PenaltyB2	1207	n/a	n/a	0
743.5470000000	n/a	743547	NeuIncorrB2	1000	n/a	n/a	1
745.5470000000	n/a	745547	STATUS	1700	n/a	n/a	1
747.2470000000	n/a	747247	RewardB2	1402	n/a	n/a	0
749.7140000000	n/a	749714	NeuIncorrB2	1000	n/a	n/a	1
751.7140000000	n/a	751714	STATUS	1700	n/a	n/a	1
758.3640000000	n/a	758364	RewardB3	1124	n/a	n/a	0
760.5640000000	n/a	760564	NeuIncorrB3	1000	n/a	n/a	1
762.5640000000	n/a	762564	STATUS	1700	n/a	n/a	1
764.2640000000	n/a	764264	PenaltyB3	2079	n/a	n/a	0
767.4140000000	n/a	767414	NeuIncorrB3	1000	n/a	n/a	1
769.4140000000	n/a	769414	STATUS	1700	n/a	n/a	1
771.1140000000	n/a	771114	RewardB3	751	n/a	n/a	0
772.9310000000	n/a	772931	NeuIncorrB3	1000	n/a	n/a	1
774.9310000000	n/a	774931	STATUS	1700	n/a	n/a	1
776.6310000000	n/a	776631	PenaltyB3	2343	n/a	n/a	1
780.0470000000	n/a	780047	NeuCorrB3	1000	n/a	n/a	1
782.0470000000	n/a	782047	STATUS	1700	n/a	n/a	1
783.7470000000	n/a	783747	PenaltyB3	1986	n/a	n/a	1
786.7970000000	n/a	786797	NeuCorrB3	1000	n/a	n/a	1
788.7970000000	n/a	788797	STATUS	1700	n/a	n/a	1
790.4970000000	n/a	790497	RewardB3	1393	n/a	n/a	0
792.9640000000	n/a	792964	NeuIncorrB3	1000	n/a	n/a	1
794.9640000000	n/a	794964	STATUS	1700	n/a	n/a	1
796.6640000000	n/a	796664	PenaltyB3	2842	n/a	n/a	0
800.5810000000	n/a	800581	NeuIncorrB3	1000	n/a	n/a	1
802.5810000000	n/a	802581	STATUS	1700	n/a	n/a	1
804.2810000000	n/a	804281	RewardB3	712	n/a	n/a	0
806.0640000000	n/a	806064	NeuIncorrB3	1000	n/a	n/a	1
808.0640000000	n/a	808064	STATUS	1700	n/a	n/a	1
809.7640000000	n/a	809764	PenaltyB3	1613	n/a	n/a	1
812.4470000000	n/a	812447	NeuCorrB3	1000	n/a	n/a	1
814.4470000000	n/a	814447	STATUS	1700	n/a	n/a	1
816.1470000000	n/a	816147	RewardB3	695	n/a	n/a	0
817.9140000000	n/a	817914	RewIncorrB3	1000	n/a	n/a	1
819.9140000000	n/a	819914	STATUS	1700	n/a	n/a	1
821.6140000000	n/a	821614	PenaltyB3	1755	n/a	n/a	1
824.4470000000	n/a	824447	NeuCorrB3	1000	n/a	n/a	1
826.4470000000	n/a	826447	STATUS	1700	n/a	n/a	1
828.1470000000	n/a	828147	RewardB3	906	n/a	n/a	0
830.1300000000	n/a	830130	NeuIncorrB3	1000	n/a	n/a	1
832.1310000000	n/a	832131	STATUS	1700	n/a	n/a	1
833.8300000000	n/a	833830	RewardB3	808	n/a	n/a	0
835.7140000000	n/a	835714	NeuIncorrB3	1000	n/a	n/a	1
837.7140000000	n/a	837714	STATUS	1700	n/a	n/a	1
839.4140000000	n/a	839414	RewardB3	1223	n/a	n/a	0
841.7140000000	n/a	841714	NeuIncorrB3	1000	n/a	n/a	1
843.7140000000	n/a	843714	STATUS	1700	n/a	n/a	1
845.4140000000	n/a	845414	PenaltyB3	2441	n/a	n/a	0
848.9300000000	n/a	848930	NeuIncorrB3	1000	n/a	n/a	1
850.9310000000	n/a	850931	STATUS	1700	n/a	n/a	1
852.6300000000	n/a	852630	RewardB3	951	n/a	n/a	0
854.6470000000	n/a	854647	NeuIncorrB3	1000	n/a	n/a	1
856.6470000000	n/a	856647	STATUS	1700	n/a	n/a	1
858.3470000000	n/a	858347	PenaltyB3	3980	n/a	n/a	1
863.3970000000	n/a	863397	NeuCorrB3	1000	n/a	n/a	1
865.3970000000	n/a	865397	STATUS	1700	n/a	n/a	1
867.0970000000	n/a	867097	RewardB3	1195	n/a	n/a	0
869.3640000000	n/a	869364	NeuIncorrB3	1000	n/a	n/a	1
871.3640000000	n/a	871364	STATUS	1700	n/a	n/a	1
873.0640000000	n/a	873064	RewardB3	869	n/a	n/a	0
874.9970000000	n/a	874997	NeuIncorrB3	1000	n/a	n/a	1
876.9970000000	n/a	876997	STATUS	1700	n/a	n/a	1
878.6970000000	n/a	878697	RewardB3	819	n/a	n/a	0
880.5800000000	n/a	880580	RewIncorrB3	1000	n/a	n/a	1
882.5800000000	n/a	882580	STATUS	1700	n/a	n/a	1
884.2800000000	n/a	884280	RewardB3	864	n/a	n/a	0
886.2140000000	n/a	886214	NeuIncorrB3	1000	n/a	n/a	1
888.2140000000	n/a	888214	STATUS	1700	n/a	n/a	1
889.9140000000	n/a	889914	RewardB3	5249	n/a	n/a	0
896.2300000000	n/a	896230	NeuIncorrB3	1000	n/a	n/a	1
898.2300000000	n/a	898230	STATUS	1700	n/a	n/a	1
899.9300000000	n/a	899930	PenaltyB3	1904	n/a	n/a	1
902.8970000000	n/a	902897	NeuCorrB3	1000	n/a	n/a	1
904.8970000000	n/a	904897	STATUS	1700	n/a	n/a	1
906.5970000000	n/a	906597	RewardB3	1073	n/a	n/a	0
908.7470000000	n/a	908747	RewIncorrB3	1000	n/a	n/a	1
910.7470000000	n/a	910747	STATUS	1700	n/a	n/a	1
912.4470000000	n/a	912447	PenaltyB3	1691	n/a	n/a	1
915.2140000000	n/a	915214	NeuCorrB3	1000	n/a	n/a	1
917.2140000000	n/a	917214	STATUS	1700	n/a	n/a	1
918.9140000000	n/a	918914	PenaltyB3	1158	n/a	n/a	1
921.1470000000	n/a	921147	NeuCorrB3	1000	n/a	n/a	1
923.1470000000	n/a	923147	STATUS	1700	n/a	n/a	1
924.8470000000	n/a	924847	RewardB3	882	n/a	n/a	0
926.7970000000	n/a	926797	NeuIncorrB3	1000	n/a	n/a	1
928.7970000000	n/a	928797	STATUS	1700	n/a	n/a	1
930.4970000000	n/a	930497	PenaltyB3	1452	n/a	n/a	1
933.0140000000	n/a	933014	NeuCorrB3	1000	n/a	n/a	1
935.0140000000	n/a	935014	STATUS	1700	n/a	n/a	1
936.7140000000	n/a	936714	RewardB3	806	n/a	n/a	0
938.5970000000	n/a	938597	RewIncorrB3	1000	n/a	n/a	1
940.5970000000	n/a	940597	STATUS	1700	n/a	n/a	1
942.2970000000	n/a	942297	PenaltyB3	1045	n/a	n/a	1
944.4140000000	n/a	944414	NeuCorrB3	1000	n/a	n/a	1
946.4140000000	n/a	946414	STATUS	1700	n/a	n/a	1
948.1140000000	n/a	948114	RewardB3	727	n/a	n/a	0
949.9140000000	n/a	949914	NeuIncorrB3	1000	n/a	n/a	1
951.9140000000	n/a	951914	STATUS	1700	n/a	n/a	1
953.6140000000	n/a	953614	PenaltyB3	2017	n/a	n/a	1
956.6970000000	n/a	956697	PunCorrB3	1000	n/a	n/a	1
958.6970000000	n/a	958697	STATUS	1700	n/a	n/a	1
960.3970000000	n/a	960397	PenaltyB3	3400	n/a	n/a	0
964.8640000000	n/a	964864	PunIncorrB3	1000	n/a	n/a	1
966.8640000000	n/a	966864	STATUS	1700	n/a	n/a	1
968.5640000000	n/a	968564	PenaltyB3	1089	n/a	n/a	1
970.7300000000	n/a	970730	NeuCorrB3	1000	n/a	n/a	1
972.7300000000	n/a	972730	STATUS	1700	n/a	n/a	1
974.4300000000	n/a	974430	PenaltyB3	1088	n/a	n/a	1
976.5970000000	n/a	976597	NeuCorrB3	1000	n/a	n/a	1
978.5970000000	n/a	978597	STATUS	1700	n/a	n/a	1
980.2970000000	n/a	980297	RewardB3	908	n/a	n/a	0
982.2800000000	n/a	982280	NeuIncorrB3	1000	n/a	n/a	1
984.2800000000	n/a	984280	STATUS	1700	n/a	n/a	1
985.9800000000	n/a	985980	RewardB3	651	n/a	n/a	0
987.6970000000	n/a	987697	NeuIncorrB3	1000	n/a	n/a	1
989.6970000000	n/a	989697	STATUS	1700	n/a	n/a	1
991.3970000000	n/a	991397	PenaltyB3	1096	n/a	n/a	1
993.5640000000	n/a	993564	NeuCorrB3	1000	n/a	n/a	1
995.5640000000	n/a	995564	STATUS	1700	n/a	n/a	1
997.2640000000	n/a	997264	PenaltyB3	2256	n/a	n/a	1
1000.5970000000	n/a	1000597	NeuCorrB3	1000	n/a	n/a	1
1002.5970000000	n/a	1002597	STATUS	1700	n/a	n/a	1
1004.2970000000	n/a	1004297	PenaltyB3	1127	n/a	n/a	1
1006.4970000000	n/a	1006497	NeuCorrB3	1000	n/a	n/a	1
1008.4970000000	n/a	1008497	STATUS	1700	n/a	n/a	1
1013.5800000000	n/a	1013580	RewardB4	782	n/a	n/a	0
1015.4300000000	n/a	1015430	NeuIncorrB4	1000	n/a	n/a	1
1017.4300000000	n/a	1017430	STATUS	1700	n/a	n/a	1
1019.1300000000	n/a	1019130	PenaltyB4	1070	n/a	n/a	1
1021.2630000000	n/a	1021263	PunCorrB4	1000	n/a	n/a	1
1023.2640000000	n/a	1023264	STATUS	1700	n/a	n/a	1
1024.9630000000	n/a	1024963	RewardB4	1388	n/a	n/a	0
1027.4130000000	n/a	1027413	NeuIncorrB4	1000	n/a	n/a	1
1029.4140000000	n/a	1029414	STATUS	1700	n/a	n/a	1
1031.1130000000	n/a	1031113	PenaltyB4	4184	n/a	n/a	0
1036.3630000000	n/a	1036363	PunIncorrB4	1000	n/a	n/a	1
1038.3640000000	n/a	1038364	STATUS	1700	n/a	n/a	1
1040.0630000000	n/a	1040063	RewardB4	1030	n/a	n/a	0
1042.1630000000	n/a	1042163	NeuIncorrB4	1000	n/a	n/a	1
1044.1640000000	n/a	1044164	STATUS	1700	n/a	n/a	1
1045.8630000000	n/a	1045863	PenaltyB4	1096	n/a	n/a	1
1048.0300000000	n/a	1048030	PunCorrB4	1000	n/a	n/a	1
1050.0300000000	n/a	1050030	STATUS	1700	n/a	n/a	1
1051.7300000000	n/a	1051730	PenaltyB4	1552	n/a	n/a	1
1054.3470000000	n/a	1054347	NeuCorrB4	1000	n/a	n/a	1
1056.3470000000	n/a	1056347	STATUS	1700	n/a	n/a	1
1058.0470000000	n/a	1058047	RewardB4	746	n/a	n/a	0
1059.8630000000	n/a	1059863	NeuIncorrB4	1000	n/a	n/a	1
1061.8630000000	n/a	1061863	STATUS	1700	n/a	n/a	1
1063.5630000000	n/a	1063563	PenaltyB4	2029	n/a	n/a	0
1066.6630000000	n/a	1066663	PunIncorrB4	1000	n/a	n/a	1
1068.6630000000	n/a	1068663	STATUS	1700	n/a	n/a	1
1070.3630000000	n/a	1070363	RewardB4	655	n/a	n/a	0
1072.0970000000	n/a	1072097	RewIncorrB4	1000	n/a	n/a	1
1074.0970000000	n/a	1074097	STATUS	1700	n/a	n/a	1
1075.7970000000	n/a	1075797	PenaltyB4	1423	n/a	n/a	0
1078.2970000000	n/a	1078297	PunIncorrB4	1000	n/a	n/a	1
1080.2970000000	n/a	1080297	STATUS	1700	n/a	n/a	1
1081.9970000000	n/a	1081997	RewardB4	808	n/a	n/a	0
1083.8800000000	n/a	1083880	NeuIncorrB4	1000	n/a	n/a	1
1085.8800000000	n/a	1085880	STATUS	1700	n/a	n/a	1
1087.5800000000	n/a	1087580	PenaltyB4	1912	n/a	n/a	0
1090.5630000000	n/a	1090563	PunIncorrB4	1000	n/a	n/a	1
1092.5630000000	n/a	1092563	STATUS	1700	n/a	n/a	1
1094.2630000000	n/a	1094263	PenaltyB4	1065	n/a	n/a	1
1096.3970000000	n/a	1096397	NeuCorrB4	1000	n/a	n/a	1
1098.3970000000	n/a	1098397	STATUS	1700	n/a	n/a	1
1100.0970000000	n/a	1100097	RewardB4	480	n/a	n/a	0
1101.6470000000	n/a	1101647	NeuIncorrB4	1000	n/a	n/a	1
1103.6470000000	n/a	1103647	STATUS	1700	n/a	n/a	1
1105.3470000000	n/a	1105347	RewardB4	801	n/a	n/a	0
1107.2130000000	n/a	1107213	RewIncorrB4	1000	n/a	n/a	1
1109.2130000000	n/a	1109213	STATUS	1700	n/a	n/a	1
1110.9130000000	n/a	1110913	RewardB4	2082	n/a	n/a	0
1114.0630000000	n/a	1114063	NeuIncorrB4	1000	n/a	n/a	1
1116.0630000000	n/a	1116063	STATUS	1700	n/a	n/a	1
1117.7630000000	n/a	1117763	PenaltyB4	1393	n/a	n/a	1
1120.2300000000	n/a	1120230	NeuCorrB4	1000	n/a	n/a	1
1122.2300000000	n/a	1122230	STATUS	1700	n/a	n/a	1
1123.9300000000	n/a	1123930	PenaltyB4	1823	n/a	n/a	0
1126.8300000000	n/a	1126830	PunIncorrB4	1000	n/a	n/a	1
1128.8300000000	n/a	1128830	STATUS	1700	n/a	n/a	1
1130.5300000000	n/a	1130530	PenaltyB4	2114	n/a	n/a	0
1133.7130000000	n/a	1133713	NeuIncorrB4	1000	n/a	n/a	1
1135.7130000000	n/a	1135713	STATUS	1700	n/a	n/a	1
1137.4130000000	n/a	1137413	RewardB4	690	n/a	n/a	0
1139.1800000000	n/a	1139180	NeuIncorrB4	1000	n/a	n/a	1
1141.1800000000	n/a	1141180	STATUS	1700	n/a	n/a	1
1142.8800000000	n/a	1142880	PenaltyB4	2059	n/a	n/a	0
1146.0130000000	n/a	1146013	PunIncorrB4	1000	n/a	n/a	1
1148.0130000000	n/a	1148013	ignore	1700	n/a	n/a	1
1149.7130000000	n/a	1149713	RewardB4	945	n/a	n/a	0
1151.7300000000	n/a	1151730	NeuIncorrB4	1000	n/a	n/a	1
1153.7300000000	n/a	1153730	ignore	1700	n/a	n/a	1
1155.4300000000	n/a	1155430	PenaltyB4	2894	n/a	n/a	0
1159.3970000000	n/a	1159397	PunIncorrB4	1000	n/a	n/a	1
1161.3970000000	n/a	1161397	ignore	1700	n/a	n/a	1
1163.0970000000	n/a	1163097	RewardB4	821	n/a	n/a	0
1164.9800000000	n/a	1164980	RewIncorrB4	1000	n/a	n/a	1
1166.9800000000	n/a	1166980	ignore	1700	n/a	n/a	1
1168.6800000000	n/a	1168680	PenaltyB4	1260	n/a	n/a	0
1171.0130000000	n/a	1171013	PunIncorrB4	1000	n/a	n/a	1
1173.0130000000	n/a	1173013	ignore	1700	n/a	n/a	1
1174.7130000000	n/a	1174713	RewardB4	1067	n/a	n/a	0
1176.8470000000	n/a	1176847	NeuIncorrB4	1000	n/a	n/a	1
1178.8470000000	n/a	1178847	ignore	1700	n/a	n/a	1
1180.5470000000	n/a	1180547	PenaltyB4	2315	n/a	n/a	1
1183.9300000000	n/a	1183930	NeuCorrB4	1000	n/a	n/a	1
1185.9300000000	n/a	1185930	ignore	1700	n/a	n/a	1
1187.6300000000	n/a	1187630	RewardB4	442	n/a	n/a	0
1189.1470000000	n/a	1189147	NeuIncorrB4	1000	n/a	n/a	1
1191.1470000000	n/a	1191147	ignore	1700	n/a	n/a	1
1192.8470000000	n/a	1192847	PenaltyB4	1103	n/a	n/a	1
1195.0130000000	n/a	1195013	PunCorrB4	1000	n/a	n/a	1
1197.0130000000	n/a	1197013	ignore	1700	n/a	n/a	1
1198.7130000000	n/a	1198713	RewardB4	1175	n/a	n/a	0
1200.9630000000	n/a	1200963	NeuIncorrB4	1000	n/a	n/a	1
1202.9630000000	n/a	1202963	ignore	1700	n/a	n/a	1
1204.6630000000	n/a	1204663	PenaltyB4	1622	n/a	n/a	0
1207.3630000000	n/a	1207363	PunIncorrB4	1000	n/a	n/a	1
1209.3630000000	n/a	1209363	ignore	1700	n/a	n/a	1
1211.0630000000	n/a	1211063	RewardB4	1215	n/a	n/a	0
1213.3460000000	n/a	1213346	NeuIncorrB4	1000	n/a	n/a	1
1215.3470000000	n/a	1215347	ignore	1700	n/a	n/a	1
1217.0460000000	n/a	1217046	PenaltyB4	4137	n/a	n/a	1
1222.2460000000	n/a	1222246	NeuCorrB4	1000	n/a	n/a	1
1224.2470000000	n/a	1224247	ignore	1700	n/a	n/a	1
1225.9460000000	n/a	1225946	RewardB4	1256	n/a	n/a	0
1228.2800000000	n/a	1228280	NeuIncorrB4	1000	n/a	n/a	1
1230.2800000000	n/a	1230280	ignore	1700	n/a	n/a	1
1231.9800000000	n/a	1231980	PenaltyB4	2021	n/a	n/a	1
1235.0630000000	n/a	1235063	NeuCorrB4	1000	n/a	n/a	1
1237.0630000000	n/a	1237063	ignore	1700	n/a	n/a	1
1238.7630000000	n/a	1238763	RewardB4	824	n/a	n/a	0
1240.6630000000	n/a	1240663	RewIncorrB4	1000	n/a	n/a	1
1242.6630000000	n/a	1242663	ignore	1700	n/a	n/a	1
1244.3630000000	n/a	1244363	RewardB4	904	n/a	n/a	0
1246.3300000000	n/a	1246330	NeuIncorrB4	1000	n/a	n/a	1
1248.3300000000	n/a	1248330	ignore	1700	n/a	n/a	1
1250.0300000000	n/a	1250030	PenaltyB4	1223	n/a	n/a	1
1252.3300000000	n/a	1252330	NeuCorrB4	1000	n/a	n/a	1
1254.3300000000	n/a	1254330	ignore	1700	n/a	n/a	1
1256.0300000000	n/a	1256030	RewardB4	773	n/a	n/a	0
1257.8800000000	n/a	1257880	NeuIncorrB4	1000	n/a	n/a	1
1259.8800000000	n/a	1259880	ignore	1700	n/a	n/a	1
1263.6960000000	n/a	1263696	ignore	1700	n/a	n/a	1
