onset	duration	sample	trial_type	response_time	stim_file	value	correct
9.8120000000	n/a	9812	ignore	3370	n/a	n/a	1
14.2450000000	n/a	14245	ignore	1000	n/a	n/a	1
16.2450000000	n/a	16245	ignore	1700	n/a	n/a	1
17.9450000000	n/a	17945	ignore	1810	n/a	n/a	0
20.8290000000	n/a	20829	ignore	1000	n/a	n/a	1
22.8290000000	n/a	22829	ignore	1700	n/a	n/a	1
24.5290000000	n/a	24529	ignore	5714	n/a	n/a	1
31.3120000000	n/a	31312	ignore	1000	n/a	n/a	1
33.3120000000	n/a	33312	ignore	1700	n/a	n/a	1
35.0120000000	n/a	35012	ignore	1350	n/a	n/a	1
37.4290000000	n/a	37429	ignore	1000	n/a	n/a	1
39.4290000000	n/a	39429	ignore	1700	n/a	n/a	1
41.1280000000	n/a	41128	ignore	4472	n/a	n/a	1
46.6780000000	n/a	46678	ignore	1000	n/a	n/a	1
48.6790000000	n/a	48679	ignore	1700	n/a	n/a	1
50.3780000000	n/a	50378	ignore	3852	n/a	n/a	0
55.2950000000	n/a	55295	ignore	1000	n/a	n/a	1
57.2950000000	n/a	57295	ignore	1700	n/a	n/a	1
58.9950000000	n/a	58995	ignore	4838	n/a	n/a	0
64.9120000000	n/a	64912	ignore	1000	n/a	n/a	1
66.9120000000	n/a	66912	ignore	1700	n/a	n/a	1
68.6120000000	n/a	68612	ignore	2977	n/a	n/a	1
72.6620000000	n/a	72662	ignore	1000	n/a	n/a	1
74.6620000000	n/a	74662	STATUS	1700	n/a	n/a	1
76.3620000000	n/a	76362	ignore	5332	n/a	n/a	0
81.7620000000	n/a	81762	STATUS	2000	n/a	n/a	1
90.4620000000	n/a	90462	ignore	1000	n/a	n/a	1
92.4620000000	n/a	92462	ignore	1700	n/a	n/a	1
94.1620000000	n/a	94162	ignore	4190	n/a	n/a	1
99.4280000000	n/a	99428	ignore	1000	n/a	n/a	1
101.4280000000	n/a	101428	ignore	1700	n/a	n/a	1
103.1280000000	n/a	103128	ignore	6124	n/a	n/a	1
110.3280000000	n/a	110328	ignore	1000	n/a	n/a	1
112.3280000000	n/a	112328	ignore	1700	n/a	n/a	1
114.0280000000	n/a	114028	ignore	3243	n/a	n/a	1
118.3450000000	n/a	118345	ignore	1000	n/a	n/a	1
120.3450000000	n/a	120345	ignore	1700	n/a	n/a	1
122.0450000000	n/a	122045	ignore	2157	n/a	n/a	0
125.2780000000	n/a	125278	ignore	1000	n/a	n/a	1
127.2780000000	n/a	127278	ignore	1700	n/a	n/a	1
128.9780000000	n/a	128978	ignore	2222	n/a	n/a	0
132.2780000000	n/a	132278	ignore	1000	n/a	n/a	1
134.2780000000	n/a	134278	ignore	1700	n/a	n/a	1
135.9780000000	n/a	135978	ignore	3315	n/a	n/a	0
140.3620000000	n/a	140362	ignore	1000	n/a	n/a	1
142.3620000000	n/a	142362	ignore	1700	n/a	n/a	1
144.0620000000	n/a	144062	ignore	1358	n/a	n/a	1
146.4950000000	n/a	146495	ignore	1000	n/a	n/a	1
148.4950000000	n/a	148495	ignore	1700	n/a	n/a	1
150.1950000000	n/a	150195	ignore	2306	n/a	n/a	1
152.5780000000	n/a	152578	ignore 	2000	n/a	n/a	1
164.0780000000	n/a	164078	PenaltyB1	3954	n/a	n/a	0
169.0950000000	n/a	169095	PunIncorrB1	1000	n/a	n/a	1
171.0950000000	n/a	171095	ignore	1700	n/a	n/a	1
172.7950000000	n/a	172795	PenaltyB1	1842	n/a	n/a	1
175.7120000000	n/a	175712	NeuCorrB1	1000	n/a	n/a	1
177.7120000000	n/a	177712	ignore	1700	n/a	n/a	1
179.4120000000	n/a	179412	PenaltyB1	3373	n/a	n/a	1
183.8620000000	n/a	183862	NeuCorrB1	1000	n/a	n/a	1
185.8620000000	n/a	185862	ignore	1700	n/a	n/a	1
187.5620000000	n/a	187562	RewardB1	1797	n/a	n/a	0
190.4280000000	n/a	190428	NeuIncorrB1	1000	n/a	n/a	1
192.4280000000	n/a	192428	ignore	1700	n/a	n/a	1
194.1280000000	n/a	194128	RewardB1	1807	n/a	n/a	0
197.0120000000	n/a	197012	NeuIncorrB1	1000	n/a	n/a	1
199.0120000000	n/a	199012	ignore	1700	n/a	n/a	1
200.7120000000	n/a	200712	PenaltyB1	1827	n/a	n/a	0
203.6120000000	n/a	203612	PunIncorrB1	1000	n/a	n/a	1
205.6120000000	n/a	205612	STATUS	1700	n/a	n/a	1
207.3120000000	n/a	207312	PenaltyB1	1230	n/a	n/a	0
209.6120000000	n/a	209612	PunIncorrB1	1000	n/a	n/a	1
211.6120000000	n/a	211612	STATUS	1700	n/a	n/a	1
213.3120000000	n/a	213312	PenaltyB1	959	n/a	n/a	0
215.3450000000	n/a	215345	PunIncorrB1	1000	n/a	n/a	1
217.3450000000	n/a	217345	STATUS	1700	n/a	n/a	1
219.0450000000	n/a	219045	PenaltyB1	1764	n/a	n/a	0
221.8780000000	n/a	221878	NeuIncorrB1	1000	n/a	n/a	1
223.8780000000	n/a	223878	STATUS	1700	n/a	n/a	1
225.5780000000	n/a	225578	RewardB1	3316	n/a	n/a	1
229.9620000000	n/a	229962	RewardCorrB1	1000	n/a	n/a	1
231.9620000000	n/a	231962	STATUS	1700	n/a	n/a	1
233.6620000000	n/a	233662	PenaltyB1	958	n/a	n/a	0
235.6950000000	n/a	235695	PunIncorrB1	1000	n/a	n/a	1
237.6950000000	n/a	237695	STATUS	1700	n/a	n/a	1
239.3950000000	n/a	239395	RewardB1	1098	n/a	n/a	0
241.5620000000	n/a	241562	RewIncorrB1	1000	n/a	n/a	1
243.5620000000	n/a	243562	STATUS	1700	n/a	n/a	1
245.2620000000	n/a	245262	PenaltyB1	1154	n/a	n/a	0
247.4780000000	n/a	247478	PunIncorrB1	1000	n/a	n/a	1
249.4780000000	n/a	249478	STATUS	1700	n/a	n/a	1
251.1780000000	n/a	251178	RewardB1	950	n/a	n/a	0
253.1950000000	n/a	253195	NeuIncorrB1	1000	n/a	n/a	1
255.1950000000	n/a	255195	STATUS	1700	n/a	n/a	1
256.8950000000	n/a	256895	PenaltyB1	1689	n/a	n/a	1
259.6620000000	n/a	259662	NeuCorrB1	1000	n/a	n/a	1
261.6620000000	n/a	261662	STATUS	1700	n/a	n/a	1
263.3620000000	n/a	263362	PenaltyB1	2649	n/a	n/a	0
267.0780000000	n/a	267078	PunIncorrB1	1000	n/a	n/a	1
269.0780000000	n/a	269078	STATUS	1700	n/a	n/a	1
270.7780000000	n/a	270778	RewardB1	1299	n/a	n/a	0
273.1450000000	n/a	273145	RewIncorrB1	1000	n/a	n/a	1
275.1450000000	n/a	275145	STATUS	1700	n/a	n/a	1
276.8450000000	n/a	276845	PenaltyB1	1799	n/a	n/a	0
279.7110000000	n/a	279711	PunIncorrB1	1000	n/a	n/a	1
281.7120000000	n/a	281712	STATUS	1700	n/a	n/a	1
283.4110000000	n/a	283411	RewardB1	1448	n/a	n/a	0
285.9280000000	n/a	285928	NeuIncorrB1	1000	n/a	n/a	1
287.9280000000	n/a	287928	STATUS	1700	n/a	n/a	1
289.6280000000	n/a	289628	RewardB1	1493	n/a	n/a	1
292.1950000000	n/a	292195	RewardCorrB1	1000	n/a	n/a	1
294.1950000000	n/a	294195	STATUS	1700	n/a	n/a	1
295.8950000000	n/a	295895	RewardB1	1605	n/a	n/a	0
298.5780000000	n/a	298578	RewIncorrB1	1000	n/a	n/a	1
300.5780000000	n/a	300578	STATUS	1700	n/a	n/a	1
302.2780000000	n/a	302278	RewardB1	2528	n/a	n/a	0
305.8780000000	n/a	305878	NeuIncorrB1	1000	n/a	n/a	1
307.8780000000	n/a	307878	STATUS	1700	n/a	n/a	1
309.5780000000	n/a	309578	RewardB1	1185	n/a	n/a	0
311.8280000000	n/a	311828	NeuIncorrB1	1000	n/a	n/a	1
313.8280000000	n/a	313828	STATUS	1700	n/a	n/a	1
315.5280000000	n/a	315528	PenaltyB1	1502	n/a	n/a	1
318.0950000000	n/a	318095	NeuCorrB1	1000	n/a	n/a	1
320.0950000000	n/a	320095	STATUS	1700	n/a	n/a	1
321.7950000000	n/a	321795	RewardB1	802	n/a	n/a	0
323.6610000000	n/a	323661	NeuIncorrB1	1000	n/a	n/a	1
325.6610000000	n/a	325661	STATUS	1700	n/a	n/a	1
327.3610000000	n/a	327361	PenaltyB1	1419	n/a	n/a	0
329.8450000000	n/a	329845	NeuIncorrB1	1000	n/a	n/a	1
331.8450000000	n/a	331845	STATUS	1700	n/a	n/a	1
333.5450000000	n/a	333545	RewardB1	858	n/a	n/a	0
335.4780000000	n/a	335478	NeuIncorrB1	1000	n/a	n/a	1
337.4780000000	n/a	337478	STATUS	1700	n/a	n/a	1
339.1780000000	n/a	339178	RewardB1	1150	n/a	n/a	0
341.3950000000	n/a	341395	NeuIncorrB1	1000	n/a	n/a	1
343.3950000000	n/a	343395	STATUS	1700	n/a	n/a	1
345.0950000000	n/a	345095	RewardB1	802	n/a	n/a	0
346.9610000000	n/a	346961	NeuIncorrB1	1000	n/a	n/a	1
348.9610000000	n/a	348961	STATUS	1700	n/a	n/a	1
350.6610000000	n/a	350661	PenaltyB1	1332	n/a	n/a	1
353.0610000000	n/a	353061	NeuCorrB1	1000	n/a	n/a	1
355.0610000000	n/a	355061	STATUS	1700	n/a	n/a	1
356.7610000000	n/a	356761	RewardB1	1187	n/a	n/a	1
359.0110000000	n/a	359011	NeuCorrB1	1000	n/a	n/a	1
361.0110000000	n/a	361011	STATUS	1700	n/a	n/a	1
362.7110000000	n/a	362711	PenaltyB1	1019	n/a	n/a	0
364.7950000000	n/a	364795	PunIncorrB1	1000	n/a	n/a	1
366.7950000000	n/a	366795	STATUS	1700	n/a	n/a	1
368.4950000000	n/a	368495	RewardB1	2171	n/a	n/a	1
371.7280000000	n/a	371728	RewardCorrB1	1000	n/a	n/a	1
373.7280000000	n/a	373728	STATUS	1700	n/a	n/a	1
375.4280000000	n/a	375428	PenaltyB1	1911	n/a	n/a	1
378.4110000000	n/a	378411	PunCorrB1	1000	n/a	n/a	1
380.4110000000	n/a	380411	STATUS	1700	n/a	n/a	1
382.1110000000	n/a	382111	RewardB1	1364	n/a	n/a	1
384.5450000000	n/a	384545	RewardCorrB1	1000	n/a	n/a	1
386.5450000000	n/a	386545	STATUS	1700	n/a	n/a	1
388.2450000000	n/a	388245	PenaltyB1	1917	n/a	n/a	1
391.2280000000	n/a	391228	NeuCorrB1	1000	n/a	n/a	1
393.2280000000	n/a	393228	STATUS	1700	n/a	n/a	1
394.9280000000	n/a	394928	PenaltyB1	1627	n/a	n/a	1
397.6280000000	n/a	397628	NeuCorrB1	1000	n/a	n/a	1
399.6280000000	n/a	399628	STATUS	1700	n/a	n/a	1
401.3280000000	n/a	401328	RewardB1	1386	n/a	n/a	1
403.7780000000	n/a	403778	RewardCorrB1	1000	n/a	n/a	1
405.7780000000	n/a	405778	STATUS	1700	n/a	n/a	1
407.4780000000	n/a	407478	PenaltyB1	1703	n/a	n/a	0
410.2450000000	n/a	410245	NeuIncorrB1	1000	n/a	n/a	1
412.2450000000	n/a	412245	STATUS	1700	n/a	n/a	1
413.9450000000	n/a	413945	RewardB1	2784	n/a	n/a	0
417.7950000000	n/a	417795	NeuIncorrB1	1000	n/a	n/a	1
419.7950000000	n/a	419795	STATUS	1700	n/a	n/a	1
429.6950000000	n/a	429695	RewardB2	2690	n/a	n/a	1
433.4610000000	n/a	433461	RewardCorrB2	1000	n/a	n/a	1
435.4610000000	n/a	435461	ignore	1700	n/a	n/a	1
437.1610000000	n/a	437161	PenaltyB2	3114	n/a	n/a	0
441.3450000000	n/a	441345	PunIncorrB2	1000	n/a	n/a	1
443.3450000000	n/a	443345	STATUS	1700	n/a	n/a	1
445.0450000000	n/a	445045	RewardB2	2434	n/a	n/a	1
448.5450000000	n/a	448545	RewardCorrB2	1000	n/a	n/a	1
450.5450000000	n/a	450545	ignore	1700	n/a	n/a	1
452.2450000000	n/a	452245	RewardB2	2198	n/a	n/a	1
455.5110000000	n/a	455511	NeuCorrB2	1000	n/a	n/a	1
457.5110000000	n/a	457511	ignore	1700	n/a	n/a	1
459.2110000000	n/a	459211	PenaltyB2	2198	n/a	n/a	1
462.4780000000	n/a	462478	NeuCorrB2	1000	n/a	n/a	1
464.4780000000	n/a	464478	ignore	1700	n/a	n/a	1
466.1780000000	n/a	466178	RewardB2	1745	n/a	n/a	0
468.9950000000	n/a	468995	NeuIncorrB2	1000	n/a	n/a	1
470.9950000000	n/a	470995	ignore	1700	n/a	n/a	1
472.6950000000	n/a	472695	PenaltyB2	958	n/a	n/a	0
474.7280000000	n/a	474728	PunIncorrB2	1000	n/a	n/a	1
476.7280000000	n/a	476728	STATUS	1700	n/a	n/a	1
478.4280000000	n/a	478428	RewardB2	610	n/a	n/a	1
480.1110000000	n/a	480111	RewardCorrB2	1000	n/a	n/a	1
482.1110000000	n/a	482111	ignore	1700	n/a	n/a	1
483.8110000000	n/a	483811	PenaltyB2	643	n/a	n/a	1
485.5280000000	n/a	485528	NeuCorrB2	1000	n/a	n/a	1
487.5280000000	n/a	487528	ignore	1700	n/a	n/a	1
489.2280000000	n/a	489228	RewardB2	1091	n/a	n/a	1
491.3950000000	n/a	491395	RewardCorrB2	1000	n/a	n/a	1
493.3950000000	n/a	493395	ignore	1700	n/a	n/a	1
495.0950000000	n/a	495095	PenaltyB2	2131	n/a	n/a	0
498.2940000000	n/a	498294	NeuIncorrB2	1000	n/a	n/a	1
500.2950000000	n/a	500295	ignore	1700	n/a	n/a	1
501.9940000000	n/a	501994	RewardB2	1026	n/a	n/a	0
504.0940000000	n/a	504094	NeuIncorrB2	1000	n/a	n/a	1
506.0950000000	n/a	506095	ignore	1700	n/a	n/a	1
507.7940000000	n/a	507794	PenaltyB2	1388	n/a	n/a	0
510.2610000000	n/a	510261	PunIncorrB2	1000	n/a	n/a	1
512.2610000000	n/a	512261	ignore	1700	n/a	n/a	1
513.9610000000	n/a	513961	RewardB2	1606	n/a	n/a	0
516.6440000000	n/a	516644	NeuIncorrB2	1000	n/a	n/a	1
518.6450000000	n/a	518645	ignore	1700	n/a	n/a	1
520.3440000000	n/a	520344	PenaltyB2	1093	n/a	n/a	1
522.5110000000	n/a	522511	NeuCorrB2	1000	n/a	n/a	1
524.5110000000	n/a	524511	ignore	1700	n/a	n/a	1
526.2110000000	n/a	526211	RewardB2	1606	n/a	n/a	1
528.8940000000	n/a	528894	NeuCorrB2	1000	n/a	n/a	1
530.8950000000	n/a	530895	ignore	1700	n/a	n/a	1
532.5940000000	n/a	532594	PenaltyB2	815	n/a	n/a	0
534.4780000000	n/a	534478	PunIncorrB2	1000	n/a	n/a	1
536.4780000000	n/a	536478	STATUS	1700	n/a	n/a	1
538.1780000000	n/a	538178	RewardB2	562	n/a	n/a	1
539.8110000000	n/a	539811	RewardCorrB2	1000	n/a	n/a	1
541.8110000000	n/a	541811	ignore	1700	n/a	n/a	1
543.5110000000	n/a	543511	PenaltyB2	516	n/a	n/a	1
545.0940000000	n/a	545094	NeuCorrB2	1000	n/a	n/a	1
547.0940000000	n/a	547094	ignore	1700	n/a	n/a	1
548.7940000000	n/a	548794	RewardB2	1598	n/a	n/a	0
551.4610000000	n/a	551461	NeuIncorrB2	1000	n/a	n/a	1
553.4610000000	n/a	553461	ignore	1700	n/a	n/a	1
555.1610000000	n/a	555161	PenaltyB2	863	n/a	n/a	0
557.0940000000	n/a	557094	NeuIncorrB2	1000	n/a	n/a	1
559.0940000000	n/a	559094	ignore	1700	n/a	n/a	1
560.7940000000	n/a	560794	PenaltyB2	1411	n/a	n/a	1
563.2780000000	n/a	563278	NeuCorrB2	1000	n/a	n/a	1
565.2780000000	n/a	565278	ignore	1700	n/a	n/a	1
566.9780000000	n/a	566978	PenaltyB2	609	n/a	n/a	1
568.6610000000	n/a	568661	NeuCorrB2	1000	n/a	n/a	1
570.6610000000	n/a	570661	ignore	1700	n/a	n/a	1
572.3610000000	n/a	572361	RewardB2	1179	n/a	n/a	0
574.6110000000	n/a	574611	NeuIncorrB2	1000	n/a	n/a	1
576.6110000000	n/a	576611	ignore	1700	n/a	n/a	1
578.3110000000	n/a	578311	RewardB2	1246	n/a	n/a	0
580.6280000000	n/a	580628	RewIncorrB2	1000	n/a	n/a	1
582.6280000000	n/a	582628	ignore	1700	n/a	n/a	1
584.3280000000	n/a	584328	RewardB2	951	n/a	n/a	1
586.3440000000	n/a	586344	RewardCorrB2	1000	n/a	n/a	1
588.3440000000	n/a	588344	ignore	1700	n/a	n/a	1
590.0440000000	n/a	590044	PenaltyB2	1631	n/a	n/a	0
592.7440000000	n/a	592744	PunIncorrB2	1000	n/a	n/a	1
594.7440000000	n/a	594744	ignore	1700	n/a	n/a	1
596.4440000000	n/a	596444	PenaltyB2	1333	n/a	n/a	1
598.8440000000	n/a	598844	NeuCorrB2	1000	n/a	n/a	1
600.8440000000	n/a	600844	ignore	1700	n/a	n/a	1
602.5440000000	n/a	602544	RewardB2	966	n/a	n/a	1
604.5780000000	n/a	604578	RewardCorrB2	1000	n/a	n/a	1
606.5780000000	n/a	606578	ignore	1700	n/a	n/a	1
608.2780000000	n/a	608278	PenaltyB2	1659	n/a	n/a	1
611.0110000000	n/a	611011	NeuCorrB2	1000	n/a	n/a	1
613.0110000000	n/a	613011	ignore	1700	n/a	n/a	1
614.7110000000	n/a	614711	RewardB2	1376	n/a	n/a	0
617.1610000000	n/a	617161	RewIncorrB2	1000	n/a	n/a	1
619.1610000000	n/a	619161	ignore	1700	n/a	n/a	1
620.8610000000	n/a	620861	PenaltyB2	1528	n/a	n/a	1
623.4610000000	n/a	623461	NeuCorrB2	1000	n/a	n/a	1
625.4610000000	n/a	625461	ignore	1700	n/a	n/a	1
627.1610000000	n/a	627161	RewardB2	1037	n/a	n/a	0
629.2610000000	n/a	629261	NeuIncorrB2	1000	n/a	n/a	1
631.2610000000	n/a	631261	ignore	1700	n/a	n/a	1
632.9610000000	n/a	632961	PenaltyB2	1576	n/a	n/a	1
635.6110000000	n/a	635611	NeuCorrB2	1000	n/a	n/a	1
637.6110000000	n/a	637611	ignore	1700	n/a	n/a	1
639.3110000000	n/a	639311	PenaltyB2	924	n/a	n/a	0
641.3110000000	n/a	641311	NeuIncorrB2	1000	n/a	n/a	1
643.3110000000	n/a	643311	ignore	1700	n/a	n/a	1
645.0110000000	n/a	645011	RewardB2	1015	n/a	n/a	0
647.0940000000	n/a	647094	NeuIncorrB2	1000	n/a	n/a	1
649.0940000000	n/a	649094	ignore	1700	n/a	n/a	1
650.7940000000	n/a	650794	PenaltyB2	1540	n/a	n/a	0
653.4110000000	n/a	653411	PunIncorrB2	1000	n/a	n/a	1
655.4110000000	n/a	655411	ignore	1700	n/a	n/a	1
657.1110000000	n/a	657111	RewardB2	811	n/a	n/a	0
658.9940000000	n/a	658994	NeuIncorrB2	1000	n/a	n/a	1
660.9940000000	n/a	660994	ignore	1700	n/a	n/a	1
662.6940000000	n/a	662694	PenaltyB2	2748	n/a	n/a	0
666.5110000000	n/a	666511	NeuIncorrB2	1000	n/a	n/a	1
668.5110000000	n/a	668511	ignore	1700	n/a	n/a	1
670.2110000000	n/a	670211	RewardB2	2185	n/a	n/a	0
673.4610000000	n/a	673461	NeuIncorrB2	1000	n/a	n/a	1
675.4610000000	n/a	675461	ignore	1700	n/a	n/a	1
689.5280000000	n/a	689528	RewardB3	813	n/a	n/a	1
691.4110000000	n/a	691411	RewardCorrB3	1000	n/a	n/a	1
693.4110000000	n/a	693411	ignore	1700	n/a	n/a	1
695.1110000000	n/a	695111	PenaltyB3	713	n/a	n/a	0
696.8940000000	n/a	696894	NeuIncorrB3	1000	n/a	n/a	1
698.8940000000	n/a	698894	ignore	1700	n/a	n/a	1
700.5940000000	n/a	700594	RewardB3	4159	n/a	n/a	1
705.8280000000	n/a	705828	RewardCorrB3	1000	n/a	n/a	1
707.8280000000	n/a	707828	ignore	1700	n/a	n/a	1
709.5280000000	n/a	709528	PenaltyB3	1806	n/a	n/a	0
712.4110000000	n/a	712411	PunIncorrB3	1000	n/a	n/a	1
714.4110000000	n/a	714411	ignore	1700	n/a	n/a	1
716.1110000000	n/a	716111	PenaltyB3	791	n/a	n/a	1
717.9780000000	n/a	717978	NeuCorrB3	1000	n/a	n/a	1
719.9780000000	n/a	719978	ignore	1700	n/a	n/a	1
721.6780000000	n/a	721678	RewardB3	2423	n/a	n/a	1
725.1780000000	n/a	725178	RewardCorrB3	1000	n/a	n/a	1
727.1780000000	n/a	727178	ignore	1700	n/a	n/a	1
728.8770000000	n/a	728877	PenaltyB3	1020	n/a	n/a	1
730.9610000000	n/a	730961	PunCorrB3	1000	n/a	n/a	1
732.9610000000	n/a	732961	ignore	1700	n/a	n/a	1
734.6610000000	n/a	734661	RewardB3	937	n/a	n/a	1
736.6610000000	n/a	736661	RewardCorrB3	1000	n/a	n/a	1
738.6610000000	n/a	738661	ignore	1700	n/a	n/a	1
740.3610000000	n/a	740361	PenaltyB3	1589	n/a	n/a	1
743.0270000000	n/a	743027	NeuCorrB3	1000	n/a	n/a	1
745.0280000000	n/a	745028	ignore	1700	n/a	n/a	1
746.7270000000	n/a	746727	RewardB3	1683	n/a	n/a	0
749.4770000000	n/a	749477	RewIncorrB3	1000	n/a	n/a	1
751.4780000000	n/a	751478	ignore	1700	n/a	n/a	1
753.1770000000	n/a	753177	PenaltyB3	1827	n/a	n/a	1
756.0770000000	n/a	756077	NeuCorrB3	1000	n/a	n/a	1
758.0780000000	n/a	758078	ignore	1700	n/a	n/a	1
759.7770000000	n/a	759777	RewardB3	2618	n/a	n/a	0
763.4610000000	n/a	763461	NeuIncorrB3	1000	n/a	n/a	1
765.4610000000	n/a	765461	ignore	1700	n/a	n/a	1
767.1610000000	n/a	767161	RewardB3	2337	n/a	n/a	0
770.5610000000	n/a	770561	NeuIncorrB3	1000	n/a	n/a	1
772.5610000000	n/a	772561	ignore	1700	n/a	n/a	1
774.2610000000	n/a	774261	RewardB3	744	n/a	n/a	1
776.0770000000	n/a	776077	RewardCorrB3	1000	n/a	n/a	1
778.0770000000	n/a	778077	ignore	1700	n/a	n/a	1
779.7770000000	n/a	779777	PenaltyB3	1515	n/a	n/a	0
782.3610000000	n/a	782361	NeuIncorrB3	1000	n/a	n/a	1
784.3610000000	n/a	784361	ignore	1700	n/a	n/a	1
786.0610000000	n/a	786061	RewardB3	943	n/a	n/a	0
788.0770000000	n/a	788077	NeuIncorrB3	1000	n/a	n/a	1
790.0770000000	n/a	790077	ignore	1700	n/a	n/a	1
791.7770000000	n/a	791777	PenaltyB3	1554	n/a	n/a	0
794.3940000000	n/a	794394	PunIncorrB3	1000	n/a	n/a	1
796.3940000000	n/a	796394	ignore	1700	n/a	n/a	1
798.0940000000	n/a	798094	RewardB3	1302	n/a	n/a	0
800.4610000000	n/a	800461	NeuIncorrB3	1000	n/a	n/a	1
802.4610000000	n/a	802461	ignore	1700	n/a	n/a	1
804.1610000000	n/a	804161	RewardB3	867	n/a	n/a	0
806.0940000000	n/a	806094	NeuIncorrB3	1000	n/a	n/a	1
808.0940000000	n/a	808094	ignore	1700	n/a	n/a	1
809.7940000000	n/a	809794	RewardB3	2670	n/a	n/a	0
813.5270000000	n/a	813527	RewIncorrB3	1000	n/a	n/a	1
815.5270000000	n/a	815527	ignore	1700	n/a	n/a	1
817.2270000000	n/a	817227	RewardB3	1056	n/a	n/a	0
819.3610000000	n/a	819361	NeuIncorrB3	1000	n/a	n/a	1
821.3610000000	n/a	821361	ignore	1700	n/a	n/a	1
823.0610000000	n/a	823061	RewardB3	675	n/a	n/a	1
824.8110000000	n/a	824811	RewardCorrB3	1000	n/a	n/a	1
826.8110000000	n/a	826811	ignore	1700	n/a	n/a	1
828.5110000000	n/a	828511	PenaltyB3	1368	n/a	n/a	1
830.9440000000	n/a	830944	NeuCorrB3	1000	n/a	n/a	1
832.9440000000	n/a	832944	ignore	1700	n/a	n/a	1
834.6440000000	n/a	834644	RewardB3	1590	n/a	n/a	1
837.3110000000	n/a	837311	NeuCorrB3	1000	n/a	n/a	1
839.3110000000	n/a	839311	ignore	1700	n/a	n/a	1
841.0110000000	n/a	841011	PenaltyB3	912	n/a	n/a	1
842.9940000000	n/a	842994	NeuCorrB3	1000	n/a	n/a	1
844.9940000000	n/a	844994	ignore	1700	n/a	n/a	1
846.6940000000	n/a	846694	PenaltyB3	1055	n/a	n/a	0
848.8270000000	n/a	848827	PunIncorrB3	1000	n/a	n/a	1
850.8270000000	n/a	850827	ignore	1700	n/a	n/a	1
852.5270000000	n/a	852527	RewardB3	1925	n/a	n/a	0
855.5270000000	n/a	855527	NeuIncorrB3	1000	n/a	n/a	1
857.5270000000	n/a	857527	ignore	1700	n/a	n/a	1
859.2270000000	n/a	859227	PenaltyB3	1284	n/a	n/a	1
861.5770000000	n/a	861577	NeuCorrB3	1000	n/a	n/a	1
863.5770000000	n/a	863577	ignore	1700	n/a	n/a	1
865.2770000000	n/a	865277	RewardB3	1357	n/a	n/a	0
867.7110000000	n/a	867711	RewIncorrB3	1000	n/a	n/a	1
869.7110000000	n/a	869711	ignore	1700	n/a	n/a	1
871.4110000000	n/a	871411	PenaltyB3	1105	n/a	n/a	0
873.5770000000	n/a	873577	PunIncorrB3	1000	n/a	n/a	1
875.5770000000	n/a	875577	ignore	1700	n/a	n/a	1
877.2770000000	n/a	877277	RewardB3	1027	n/a	n/a	0
879.3770000000	n/a	879377	NeuIncorrB3	1000	n/a	n/a	1
881.3770000000	n/a	881377	ignore	1700	n/a	n/a	1
883.0770000000	n/a	883077	PenaltyB3	2550	n/a	n/a	1
886.6940000000	n/a	886694	PunCorrB3	1000	n/a	n/a	1
888.6940000000	n/a	888694	ignore	1700	n/a	n/a	1
890.3940000000	n/a	890394	PenaltyB3	802	n/a	n/a	1
892.2610000000	n/a	892261	NeuCorrB3	1000	n/a	n/a	1
894.2610000000	n/a	894261	ignore	1700	n/a	n/a	1
895.9610000000	n/a	895961	PenaltyB3	603	n/a	n/a	1
897.6270000000	n/a	897627	NeuCorrB3	1000	n/a	n/a	1
899.6270000000	n/a	899627	ignore	1700	n/a	n/a	1
901.3270000000	n/a	901327	PenaltyB3	1263	n/a	n/a	0
903.6610000000	n/a	903661	PunIncorrB3	1000	n/a	n/a	1
905.6610000000	n/a	905661	ignore	1700	n/a	n/a	1
907.3610000000	n/a	907361	RewardB3	994	n/a	n/a	1
909.4270000000	n/a	909427	RewardCorrB3	1000	n/a	n/a	1
911.4270000000	n/a	911427	ignore	1700	n/a	n/a	1
913.1270000000	n/a	913127	RewardB3	599	n/a	n/a	1
914.7940000000	n/a	914794	RewardCorrB3	1000	n/a	n/a	1
916.7940000000	n/a	916794	ignore	1700	n/a	n/a	1
918.4940000000	n/a	918494	PenaltyB3	2177	n/a	n/a	0
921.7440000000	n/a	921744	PunIncorrB3	1000	n/a	n/a	1
923.7440000000	n/a	923744	ignore	1700	n/a	n/a	1
925.4440000000	n/a	925444	PenaltyB3	1774	n/a	n/a	1
928.2940000000	n/a	928294	NeuCorrB3	1000	n/a	n/a	1
930.2940000000	n/a	930294	ignore	1700	n/a	n/a	1
931.9940000000	n/a	931994	PenaltyB3	1227	n/a	n/a	1
934.2940000000	n/a	934294	NeuCorrB3	1000	n/a	n/a	1
936.2940000000	n/a	936294	ignore	1700	n/a	n/a	1
945.6270000000	n/a	945627	RewardB4	1852	n/a	n/a	0
948.5440000000	n/a	948544	NeuIncorrB4	1000	n/a	n/a	1
950.5440000000	n/a	950544	ignore	1700	n/a	n/a	1
952.2440000000	n/a	952244	PenaltyB4	2243	n/a	n/a	1
955.5610000000	n/a	955561	PunCorrB4	1000	n/a	n/a	1
957.5610000000	n/a	957561	ignore	1700	n/a	n/a	1
959.2600000000	n/a	959260	RewardB4	1357	n/a	n/a	1
961.6940000000	n/a	961694	RewardCorrB4	1000	n/a	n/a	1
963.6940000000	n/a	963694	ignore	1700	n/a	n/a	1
965.3940000000	n/a	965394	PenaltyB4	1714	n/a	n/a	0
968.1770000000	n/a	968177	PunIncorrB4	1000	n/a	n/a	1
970.1770000000	n/a	970177	ignore	1700	n/a	n/a	1
971.8770000000	n/a	971877	RewardB4	1957	n/a	n/a	1
974.9100000000	n/a	974910	RewardCorrB4	1000	n/a	n/a	1
976.9110000000	n/a	976911	ignore	1700	n/a	n/a	1
978.6100000000	n/a	978610	PenaltyB4	1459	n/a	n/a	0
981.1440000000	n/a	981144	NeuIncorrB4	1000	n/a	n/a	1
983.1440000000	n/a	983144	ignore	1700	n/a	n/a	1
984.8440000000	n/a	984844	PenaltyB4	764	n/a	n/a	0
986.6770000000	n/a	986677	PunIncorrB4	1000	n/a	n/a	1
988.6770000000	n/a	988677	ignore	1700	n/a	n/a	1
990.3770000000	n/a	990377	RewardB4	1377	n/a	n/a	0
992.8270000000	n/a	992827	NeuIncorrB4	1000	n/a	n/a	1
994.8270000000	n/a	994827	ignore	1700	n/a	n/a	1
996.5270000000	n/a	996527	PenaltyB4	3570	n/a	n/a	0
1001.1600000000	n/a	1001160	PunIncorrB4	1000	n/a	n/a	1
1003.1610000000	n/a	1003161	ignore	1700	n/a	n/a	1
1004.8600000000	n/a	1004860	RewardB4	2407	n/a	n/a	0
1008.3440000000	n/a	1008344	RewIncorrB4	1000	n/a	n/a	1
1010.3440000000	n/a	1010344	ignore	1700	n/a	n/a	1
1012.0440000000	n/a	1012044	PenaltyB4	1304	n/a	n/a	0
1014.4100000000	n/a	1014410	PunIncorrB4	1000	n/a	n/a	1
1016.4100000000	n/a	1016410	ignore	1700	n/a	n/a	1
1018.1100000000	n/a	1018110	RewardB4	919	n/a	n/a	0
1020.0940000000	n/a	1020094	NeuIncorrB4	1000	n/a	n/a	1
1022.0940000000	n/a	1022094	ignore	1700	n/a	n/a	1
1023.7940000000	n/a	1023794	PenaltyB4	1620	n/a	n/a	1
1026.4770000000	n/a	1026477	NeuCorrB4	1000	n/a	n/a	1
1028.4770000000	n/a	1028477	ignore	1700	n/a	n/a	1
1030.1770000000	n/a	1030177	PenaltyB4	1703	n/a	n/a	1
1032.9440000000	n/a	1032944	NeuCorrB4	1000	n/a	n/a	1
1034.9440000000	n/a	1034944	ignore	1700	n/a	n/a	1
1036.6440000000	n/a	1036644	RewardB4	1109	n/a	n/a	1
1038.8270000000	n/a	1038827	RewardCorrB4	1000	n/a	n/a	1
1040.8270000000	n/a	1040827	ignore	1700	n/a	n/a	1
1042.5270000000	n/a	1042527	RewardB4	770	n/a	n/a	0
1044.3600000000	n/a	1044360	RewIncorrB4	1000	n/a	n/a	1
1046.3600000000	n/a	1046360	ignore	1700	n/a	n/a	1
1048.0600000000	n/a	1048060	RewardB4	1455	n/a	n/a	1
1050.5770000000	n/a	1050577	RewardCorrB4	1000	n/a	n/a	1
1052.5770000000	n/a	1052577	ignore	1700	n/a	n/a	1
1054.2770000000	n/a	1054277	PenaltyB4	1330	n/a	n/a	1
1056.6770000000	n/a	1056677	NeuCorrB4	1000	n/a	n/a	1
1058.6770000000	n/a	1058677	ignore	1700	n/a	n/a	1
1060.3770000000	n/a	1060377	PenaltyB4	571	n/a	n/a	1
1062.0100000000	n/a	1062010	NeuCorrB4	1000	n/a	n/a	1
1064.0100000000	n/a	1064010	ignore	1700	n/a	n/a	1
1065.7100000000	n/a	1065710	PenaltyB4	866	n/a	n/a	1
1067.6440000000	n/a	1067644	PunCorrB4	1000	n/a	n/a	1
1069.6440000000	n/a	1069644	ignore	1700	n/a	n/a	1
1071.3440000000	n/a	1071344	RewardB4	1063	n/a	n/a	0
1073.4770000000	n/a	1073477	NeuIncorrB4	1000	n/a	n/a	1
1075.4770000000	n/a	1075477	ignore	1700	n/a	n/a	1
1077.1770000000	n/a	1077177	PenaltyB4	1943	n/a	n/a	1
1080.1940000000	n/a	1080194	NeuCorrB4	1000	n/a	n/a	1
1082.1940000000	n/a	1082194	ignore	1700	n/a	n/a	1
1083.8940000000	n/a	1083894	RewardB4	917	n/a	n/a	0
1085.8770000000	n/a	1085877	NeuIncorrB4	1000	n/a	n/a	1
1087.8770000000	n/a	1087877	ignore	1700	n/a	n/a	1
1089.5770000000	n/a	1089577	PenaltyB4	1082	n/a	n/a	1
1091.7270000000	n/a	1091727	NeuCorrB4	1000	n/a	n/a	1
1093.7270000000	n/a	1093727	ignore	1700	n/a	n/a	1
1095.4270000000	n/a	1095427	RewardB4	571	n/a	n/a	1
1097.0600000000	n/a	1097060	NeuCorrB4	1000	n/a	n/a	1
1099.0600000000	n/a	1099060	ignore	1700	n/a	n/a	1
1100.7600000000	n/a	1100760	PenaltyB4	1245	n/a	n/a	0
1103.0770000000	n/a	1103077	PunIncorrB4	1000	n/a	n/a	1
1105.0770000000	n/a	1105077	ignore	1700	n/a	n/a	1
1106.7770000000	n/a	1106777	RewardB4	1112	n/a	n/a	1
1108.9600000000	n/a	1108960	RewardCorrB4	1000	n/a	n/a	1
1110.9600000000	n/a	1110960	ignore	1700	n/a	n/a	1
1112.6600000000	n/a	1112660	PenaltyB4	1280	n/a	n/a	0
1115.0100000000	n/a	1115010	PunIncorrB4	1000	n/a	n/a	1
1117.0100000000	n/a	1117010	ignore	1700	n/a	n/a	1
1118.7100000000	n/a	1118710	RewardB4	1223	n/a	n/a	1
1121.0100000000	n/a	1121010	RewardCorrB4	1000	n/a	n/a	1
1123.0100000000	n/a	1123010	ignore	1700	n/a	n/a	1
1124.7100000000	n/a	1124710	PenaltyB4	1158	n/a	n/a	1
1126.9440000000	n/a	1126944	PunCorrB4	1000	n/a	n/a	1
1128.9440000000	n/a	1128944	ignore	1700	n/a	n/a	1
1130.6440000000	n/a	1130644	RewardB4	774	n/a	n/a	1
1132.4940000000	n/a	1132494	RewardCorrB4	1000	n/a	n/a	1
1134.4940000000	n/a	1134494	ignore	1700	n/a	n/a	1
1136.1940000000	n/a	1136194	PenaltyB4	906	n/a	n/a	0
1138.1770000000	n/a	1138177	PunIncorrB4	1000	n/a	n/a	1
1140.1770000000	n/a	1140177	ignore	1700	n/a	n/a	1
1141.8770000000	n/a	1141877	RewardB4	1341	n/a	n/a	0
1144.2940000000	n/a	1144294	NeuIncorrB4	1000	n/a	n/a	1
1146.2940000000	n/a	1146294	ignore	1700	n/a	n/a	1
1147.9940000000	n/a	1147994	PenaltyB4	524	n/a	n/a	0
1149.5940000000	n/a	1149594	PunIncorrB4	1000	n/a	n/a	1
1151.5940000000	n/a	1151594	ignore	1700	n/a	n/a	1
1153.2940000000	n/a	1153294	RewardB4	1157	n/a	n/a	0
1155.5270000000	n/a	1155527	NeuIncorrB4	1000	n/a	n/a	1
1157.5270000000	n/a	1157527	ignore	1700	n/a	n/a	1
1159.2270000000	n/a	1159227	PenaltyB4	1113	n/a	n/a	0
1161.4100000000	n/a	1161410	PunIncorrB4	1000	n/a	n/a	1
1163.4100000000	n/a	1163410	ignore	1700	n/a	n/a	1
1165.1100000000	n/a	1165110	RewardB4	922	n/a	n/a	1
1167.1100000000	n/a	1167110	NeuCorrB4	1000	n/a	n/a	1
1169.1100000000	n/a	1169110	ignore	1700	n/a	n/a	1
1170.8100000000	n/a	1170810	RewardB4	1272	n/a	n/a	1
1173.1600000000	n/a	1173160	RewardCorrB4	1000	n/a	n/a	1
1175.1600000000	n/a	1175160	ignore	1700	n/a	n/a	1
1176.8600000000	n/a	1176860	PenaltyB4	995	n/a	n/a	1
1178.9270000000	n/a	1178927	NeuCorrB4	1000	n/a	n/a	1
1180.9270000000	n/a	1180927	ignore	1700	n/a	n/a	1
1182.6270000000	n/a	1182627	RewardB4	1919	n/a	n/a	0
1185.6100000000	n/a	1185610	NeuIncorrB4	1000	n/a	n/a	1
1187.6100000000	n/a	1187610	ignore	1700	n/a	n/a	1
1192.3770000000	n/a	1192377	ignore	1700	n/a	n/a	1
