onset	duration	sample	trial_type	response_time	stim_file	value	correct
10.7570000000	n/a	10757	ignore	n/a	n/a	n/a	n/a
13.8570000000	n/a	13857	ignore	n/a	n/a	n/a	n/a
16.8690000000	n/a	16869	ignore	n/a	n/a	n/a	n/a
32.9740000000	n/a	32974	ignore	n/a	n/a	n/a	n/a
36.0740000000	n/a	36074	ignore	n/a	n/a	n/a	n/a
39.0610000000	n/a	39061	ignore	n/a	n/a	n/a	n/a
57.0400000000	n/a	57040	PosStim	n/a	n/a	n/a	n/a
60.0740000000	n/a	60074	PosNonAlcStimWithoutStartle	n/a	n/a	n/a	n/a
74.1400000000	n/a	74140	NegStim	n/a	n/a	n/a	n/a
77.1740000000	n/a	77174	NegNonAlcStimWithoutStartle	n/a	n/a	n/a	n/a
92.0740000000	n/a	92074	NeuStim	n/a	n/a	n/a	n/a
95.1740000000	n/a	95174	NeuNonAlcP2000	n/a	n/a	n/a	n/a
99.1610000000	n/a	99161	NeuNonAlcP2000	n/a	n/a	n/a	n/a
109.7070000000	n/a	109707	NegStim	n/a	n/a	n/a	n/a
112.8070000000	n/a	112807	NegAlcP2000	n/a	n/a	n/a	n/a
116.7940000000	n/a	116794	NegAlcP2000	n/a	n/a	n/a	n/a
127.3900000000	n/a	127390	NeuStim	n/a	n/a	n/a	n/a
130.4240000000	n/a	130424	NeuAlcStimWithoutStartle	n/a	n/a	n/a	n/a
146.5070000000	n/a	146507	PosStim	n/a	n/a	n/a	n/a
149.6070000000	n/a	149607	PosAlcP1000	n/a	n/a	n/a	n/a
154.5940000000	n/a	154594	PosAlcP1000	n/a	n/a	n/a	n/a
163.0400000000	n/a	163040	NeuStim	n/a	n/a	n/a	n/a
166.1400000000	n/a	166140	NeuAlcP2000	n/a	n/a	n/a	n/a
170.1270000000	n/a	170127	NeuAlcP2000	n/a	n/a	n/a	n/a
182.9900000000	n/a	182990	NegStim	n/a	n/a	n/a	n/a
186.0900000000	n/a	186090	NegAlcP3000	n/a	n/a	n/a	n/a
189.0770000000	n/a	189077	NegAlcP3000	n/a	n/a	n/a	n/a
201.0070000000	n/a	201007	PosStim	n/a	n/a	n/a	n/a
204.0400000000	n/a	204040	PosNonAlcStimWithoutStartle	n/a	n/a	n/a	n/a
218.1400000000	n/a	218140	NeuStim	n/a	n/a	n/a	n/a
221.2400000000	n/a	221240	NeuAlcP1000	n/a	n/a	n/a	n/a
226.2270000000	n/a	226227	NeuAlcP1000	n/a	n/a	n/a	n/a
236.6900000000	n/a	236690	NegStim	n/a	n/a	n/a	n/a
239.7900000000	n/a	239790	NegNonAlcP3000	n/a	n/a	n/a	n/a
242.7770000000	n/a	242777	NegNonAlcP3000	n/a	n/a	n/a	n/a
255.3400000000	n/a	255340	PosStim	n/a	n/a	n/a	n/a
258.4400000000	n/a	258440	PosAlcP2000	n/a	n/a	n/a	n/a
262.4270000000	n/a	262427	PosAlcP2000	n/a	n/a	n/a	n/a
272.7570000000	n/a	272757	NegStim	n/a	n/a	n/a	n/a
275.7900000000	n/a	275790	NegNonAlcStimWithoutStartle	n/a	n/a	n/a	n/a
292.3900000000	n/a	292390	PosStim	n/a	n/a	n/a	n/a
295.4230000000	n/a	295423	PosAlcStimWithoutStartle	n/a	n/a	n/a	n/a
311.8900000000	n/a	311890	NeuStim	n/a	n/a	n/a	n/a
314.9900000000	n/a	314990	NeuNonAlcP3000	n/a	n/a	n/a	n/a
317.9770000000	n/a	317977	NeuNonAlcP3000	n/a	n/a	n/a	n/a
329.6070000000	n/a	329607	NegStim	n/a	n/a	n/a	n/a
332.7070000000	n/a	332707	NegAlcP1000	n/a	n/a	n/a	n/a
337.6940000000	n/a	337694	NegAlcP1000	n/a	n/a	n/a	n/a
347.4900000000	n/a	347490	NeuStim	n/a	n/a	n/a	n/a
350.5900000000	n/a	350590	NeuAlcP3000	n/a	n/a	n/a	n/a
353.5770000000	n/a	353577	NeuAlcP3000	n/a	n/a	n/a	n/a
363.9900000000	n/a	363990	PosStim	n/a	n/a	n/a	n/a
367.0900000000	n/a	367090	PosAlcP3000	n/a	n/a	n/a	n/a
370.0770000000	n/a	370077	PosAlcP3000	n/a	n/a	n/a	n/a
381.0400000000	n/a	381040	NeuStim	n/a	n/a	n/a	n/a
384.0730000000	n/a	384073	NeuAlcStimWithoutStartle	n/a	n/a	n/a	n/a
400.0230000000	n/a	400023	NegStim	n/a	n/a	n/a	n/a
403.1230000000	n/a	403123	NegAlcP1000	n/a	n/a	n/a	n/a
408.1100000000	n/a	408110	NegAlcP1000	n/a	n/a	n/a	n/a
417.6070000000	n/a	417607	NeuStim	n/a	n/a	n/a	n/a
420.7070000000	n/a	420707	NeuNonAlcP3000	n/a	n/a	n/a	n/a
423.6940000000	n/a	423694	NeuNonAlcP3000	n/a	n/a	n/a	n/a
437.1070000000	n/a	437107	NegStim	n/a	n/a	n/a	n/a
440.2070000000	n/a	440207	NegNonAlcP2000	n/a	n/a	n/a	n/a
444.1940000000	n/a	444194	NegNonAlcP2000	n/a	n/a	n/a	n/a
454.7730000000	n/a	454773	PosStim	n/a	n/a	n/a	n/a
457.8070000000	n/a	457807	PosNonAlcStimWithoutStartle	n/a	n/a	n/a	n/a
471.0570000000	n/a	471057	NeuStim	n/a	n/a	n/a	n/a
474.0900000000	n/a	474090	NeuNonAlcStimWithoutStartle	n/a	n/a	n/a	n/a
490.6400000000	n/a	490640	PosStim	n/a	n/a	n/a	n/a
493.7400000000	n/a	493740	PosNonAlcP1000	n/a	n/a	n/a	n/a
498.7270000000	n/a	498727	PosNonAlcP1000	n/a	n/a	n/a	n/a
507.5070000000	n/a	507507	NegStim	n/a	n/a	n/a	n/a
510.5400000000	n/a	510540	NegAlcStimWithoutStartle	n/a	n/a	n/a	n/a
525.7570000000	n/a	525757	NeuStim	n/a	n/a	n/a	n/a
528.8570000000	n/a	528857	NeuAlcP2000	n/a	n/a	n/a	n/a
532.8440000000	n/a	532844	NeuAlcP2000	n/a	n/a	n/a	n/a
543.1560000000	n/a	543156	PosStim	n/a	n/a	n/a	n/a
546.2560000000	n/a	546256	PosNonAlcP1000	n/a	n/a	n/a	n/a
551.2440000000	n/a	551244	PosNonAlcP1000	n/a	n/a	n/a	n/a
562.7730000000	n/a	562773	NeuStim	n/a	n/a	n/a	n/a
565.8730000000	n/a	565873	NeuNonAlcP1000	n/a	n/a	n/a	n/a
570.8600000000	n/a	570860	NeuNonAlcP1000	n/a	n/a	n/a	n/a
582.1400000000	n/a	582140	PosStim	n/a	n/a	n/a	n/a
585.1730000000	n/a	585173	PosNonAlcStimWithoutStartle	n/a	n/a	n/a	n/a
599.0060000000	n/a	599006	NegStim	n/a	n/a	n/a	n/a
602.1060000000	n/a	602106	NegAlcP2000	n/a	n/a	n/a	n/a
606.0930000000	n/a	606093	NegAlcP2000	n/a	n/a	n/a	n/a
618.6730000000	n/a	618673	NeuStim	n/a	n/a	n/a	n/a
621.7730000000	n/a	621773	NeuAlcP3000	n/a	n/a	n/a	n/a
624.7600000000	n/a	624760	NeuAlcP3000	n/a	n/a	n/a	n/a
635.8900000000	n/a	635890	NegStim	n/a	n/a	n/a	n/a
638.9230000000	n/a	638923	NegAlcStimWithoutStartle	n/a	n/a	n/a	n/a
652.9060000000	n/a	652906	NeuStim	n/a	n/a	n/a	n/a
656.0060000000	n/a	656006	NeuNonAlcP2000	n/a	n/a	n/a	n/a
659.9930000000	n/a	659993	NeuNonAlcP2000	n/a	n/a	n/a	n/a
669.8560000000	n/a	669856	PosStim	n/a	n/a	n/a	n/a
672.9560000000	n/a	672956	PosNonAlcP3000	n/a	n/a	n/a	n/a
675.9430000000	n/a	675943	PosNonAlcP3000	n/a	n/a	n/a	n/a
687.4400000000	n/a	687440	NegStim	n/a	n/a	n/a	n/a
690.5400000000	n/a	690540	NegAlcP3000	n/a	n/a	n/a	n/a
693.5270000000	n/a	693527	NegAlcP3000	n/a	n/a	n/a	n/a
704.5900000000	n/a	704590	PosStim	n/a	n/a	n/a	n/a
707.6230000000	n/a	707623	PosAlcStimWithoutStartle	n/a	n/a	n/a	n/a
722.5900000000	n/a	722590	NegStim	n/a	n/a	n/a	n/a
725.6900000000	n/a	725690	NegAlcP1000	n/a	n/a	n/a	n/a
730.6770000000	n/a	730677	NegAlcP1000	n/a	n/a	n/a	n/a
740.7400000000	n/a	740740	PosStim	n/a	n/a	n/a	n/a
743.7730000000	n/a	743773	PosAlcStimWithoutStartle	n/a	n/a	n/a	n/a
758.8560000000	n/a	758856	NegStim	n/a	n/a	n/a	n/a
761.9560000000	n/a	761956	NegNonAlcP2000	n/a	n/a	n/a	n/a
765.9430000000	n/a	765943	NegNonAlcP2000	n/a	n/a	n/a	n/a
775.4060000000	n/a	775406	PosStim	n/a	n/a	n/a	n/a
778.5060000000	n/a	778506	PosAlcP2000	n/a	n/a	n/a	n/a
782.4930000000	n/a	782493	PosAlcP2000	n/a	n/a	n/a	n/a
793.5060000000	n/a	793506	NeuStim	n/a	n/a	n/a	n/a
796.5400000000	n/a	796540	NeuNonAlcStimWithoutStartle	n/a	n/a	n/a	n/a
810.8900000000	n/a	810890	PosStim	n/a	n/a	n/a	n/a
813.9890000000	n/a	813989	PosNonAlcP2000	n/a	n/a	n/a	n/a
817.9770000000	n/a	817977	PosNonAlcP2000	n/a	n/a	n/a	n/a
830.7390000000	n/a	830739	NegStim	n/a	n/a	n/a	n/a
833.7730000000	n/a	833773	NegAlcStimWithoutStartle	n/a	n/a	n/a	n/a
850.1390000000	n/a	850139	PosStim	n/a	n/a	n/a	n/a
853.2390000000	n/a	853239	PosAlcP3000	n/a	n/a	n/a	n/a
856.2260000000	n/a	856226	PosAlcP3000	n/a	n/a	n/a	n/a
868.0060000000	n/a	868006	PosStim	n/a	n/a	n/a	n/a
871.1060000000	n/a	871106	PosNonAlcP3000	n/a	n/a	n/a	n/a
874.0930000000	n/a	874093	PosNonAlcP3000	n/a	n/a	n/a	n/a
884.2390000000	n/a	884239	NeuStim	n/a	n/a	n/a	n/a
887.2730000000	n/a	887273	NeuNonAlcStimWithoutStartle	n/a	n/a	n/a	n/a
902.5730000000	n/a	902573	NeuStim	n/a	n/a	n/a	n/a
905.6730000000	n/a	905673	NeuNonAlcP3000	n/a	n/a	n/a	n/a
908.6600000000	n/a	908660	NeuNonAlcP3000	n/a	n/a	n/a	n/a
919.1060000000	n/a	919106	PosStim	n/a	n/a	n/a	n/a
922.2060000000	n/a	922206	PosAlcP2000	n/a	n/a	n/a	n/a
926.1930000000	n/a	926193	PosAlcP2000	n/a	n/a	n/a	n/a
935.7390000000	n/a	935739	NegStim	n/a	n/a	n/a	n/a
938.8390000000	n/a	938839	NegAlcP1000	n/a	n/a	n/a	n/a
943.8260000000	n/a	943826	NegAlcP1000	n/a	n/a	n/a	n/a
953.2390000000	n/a	953239	PosStim	n/a	n/a	n/a	n/a
956.3390000000	n/a	956339	PosNonAlcP2000	n/a	n/a	n/a	n/a
960.3260000000	n/a	960326	PosNonAlcP2000	n/a	n/a	n/a	n/a
973.2230000000	n/a	973223	NeuStim	n/a	n/a	n/a	n/a
976.2560000000	n/a	976256	NeuNonAlcStimWithoutStartle	n/a	n/a	n/a	n/a
990.7730000000	n/a	990773	NegStim	n/a	n/a	n/a	n/a
993.8730000000	n/a	993873	NegAlcP2000	n/a	n/a	n/a	n/a
997.8600000000	n/a	997860	NegAlcP2000	n/a	n/a	n/a	n/a
1009.0890000000	n/a	1009089	PosStim	n/a	n/a	n/a	n/a
1012.1890000000	n/a	1012189	PosAlcP3000	n/a	n/a	n/a	n/a
1015.1760000000	n/a	1015176	PosAlcP3000	n/a	n/a	n/a	n/a
1027.5390000000	n/a	1027539	NeuStim	n/a	n/a	n/a	n/a
1030.5730000000	n/a	1030573	NeuAlcStimWithoutStartle	n/a	n/a	n/a	n/a
1043.6560000000	n/a	1043656	NegStim	n/a	n/a	n/a	n/a
1046.7560000000	n/a	1046756	NegNonAlcP3000	n/a	n/a	n/a	n/a
1049.7430000000	n/a	1049743	NegNonAlcP3000	n/a	n/a	n/a	n/a
