onset	duration	sample	trial_type	response_time	stim_file	value	correct
6.3240000000	n/a	6324	ignore	n/a	n/a	n/a	n/a
9.4240000000	n/a	9424	ignore	n/a	n/a	n/a	n/a
12.4420000000	n/a	12442	ignore	n/a	n/a	n/a	n/a
29.6400000000	n/a	29640	ignore	n/a	n/a	n/a	n/a
32.7400000000	n/a	32740	ignore	n/a	n/a	n/a	n/a
35.7270000000	n/a	35727	ignore	n/a	n/a	n/a	n/a
52.3900000000	n/a	52390	PosStim	n/a	n/a	n/a	n/a
55.4230000000	n/a	55423	PosNonAlcStimWithoutStartle	n/a	n/a	n/a	n/a
72.2900000000	n/a	72290	NegStim	n/a	n/a	n/a	n/a
75.3230000000	n/a	75323	NegNonAlcStimWithoutStartle	n/a	n/a	n/a	n/a
88.8070000000	n/a	88807	NeuStim	n/a	n/a	n/a	n/a
91.9070000000	n/a	91907	NeuNonAlcP2000	n/a	n/a	n/a	n/a
95.8940000000	n/a	95894	NeuNonAlcP2000	n/a	n/a	n/a	n/a
107.2070000000	n/a	107207	NegStim	n/a	n/a	n/a	n/a
110.3070000000	n/a	110307	NegAlcP2000	n/a	n/a	n/a	n/a
114.2940000000	n/a	114294	NegAlcP2000	n/a	n/a	n/a	n/a
124.6570000000	n/a	124657	NeuStim	n/a	n/a	n/a	n/a
127.6900000000	n/a	127690	NeuAlcStimWithoutStartle	n/a	n/a	n/a	n/a
143.0900000000	n/a	143090	PosStim	n/a	n/a	n/a	n/a
146.1900000000	n/a	146190	PosAlcP1000	n/a	n/a	n/a	n/a
151.1770000000	n/a	151177	PosAlcP1000	n/a	n/a	n/a	n/a
159.2900000000	n/a	159290	NeuStim	n/a	n/a	n/a	n/a
162.3900000000	n/a	162390	NeuAlcP2000	n/a	n/a	n/a	n/a
166.3770000000	n/a	166377	NeuAlcP2000	n/a	n/a	n/a	n/a
179.2730000000	n/a	179273	NegStim	n/a	n/a	n/a	n/a
182.3730000000	n/a	182373	NegAlcP3000	n/a	n/a	n/a	n/a
185.3600000000	n/a	185360	NegAlcP3000	n/a	n/a	n/a	n/a
196.7230000000	n/a	196723	PosStim	n/a	n/a	n/a	n/a
199.7560000000	n/a	199756	PosNonAlcStimWithoutStartle	n/a	n/a	n/a	n/a
215.3060000000	n/a	215306	NeuStim	n/a	n/a	n/a	n/a
218.4060000000	n/a	218406	NeuAlcP1000	n/a	n/a	n/a	n/a
223.3930000000	n/a	223393	NeuAlcP1000	n/a	n/a	n/a	n/a
231.5730000000	n/a	231573	NegStim	n/a	n/a	n/a	n/a
234.6730000000	n/a	234673	NegNonAlcP3000	n/a	n/a	n/a	n/a
237.6600000000	n/a	237660	NegNonAlcP3000	n/a	n/a	n/a	n/a
251.0560000000	n/a	251056	PosStim	n/a	n/a	n/a	n/a
254.1560000000	n/a	254156	PosAlcP2000	n/a	n/a	n/a	n/a
258.1430000000	n/a	258143	PosAlcP2000	n/a	n/a	n/a	n/a
267.4730000000	n/a	267473	NegStim	n/a	n/a	n/a	n/a
270.5060000000	n/a	270506	NegNonAlcStimWithoutStartle	n/a	n/a	n/a	n/a
287.2730000000	n/a	287273	PosStim	n/a	n/a	n/a	n/a
290.3060000000	n/a	290306	PosAlcStimWithoutStartle	n/a	n/a	n/a	n/a
306.0230000000	n/a	306023	NeuStim	n/a	n/a	n/a	n/a
309.1230000000	n/a	309123	NeuNonAlcP3000	n/a	n/a	n/a	n/a
312.1100000000	n/a	312110	NeuNonAlcP3000	n/a	n/a	n/a	n/a
325.4230000000	n/a	325423	NegStim	n/a	n/a	n/a	n/a
328.5230000000	n/a	328523	NegAlcP1000	n/a	n/a	n/a	n/a
333.5100000000	n/a	333510	NegAlcP1000	n/a	n/a	n/a	n/a
344.4230000000	n/a	344423	NeuStim	n/a	n/a	n/a	n/a
347.5230000000	n/a	347523	NeuAlcP3000	n/a	n/a	n/a	n/a
350.5100000000	n/a	350510	NeuAlcP3000	n/a	n/a	n/a	n/a
362.1060000000	n/a	362106	PosStim	n/a	n/a	n/a	n/a
365.2060000000	n/a	365206	PosAlcP3000	n/a	n/a	n/a	n/a
368.1930000000	n/a	368193	PosAlcP3000	n/a	n/a	n/a	n/a
380.9730000000	n/a	380973	NeuStim	n/a	n/a	n/a	n/a
384.0060000000	n/a	384006	NeuAlcStimWithoutStartle	n/a	n/a	n/a	n/a
397.2060000000	n/a	397206	NegStim	n/a	n/a	n/a	n/a
400.3060000000	n/a	400306	NegAlcP1000	n/a	n/a	n/a	n/a
405.2930000000	n/a	405293	NegAlcP1000	n/a	n/a	n/a	n/a
414.1230000000	n/a	414123	NeuStim	n/a	n/a	n/a	n/a
417.2230000000	n/a	417223	NeuNonAlcP3000	n/a	n/a	n/a	n/a
420.2100000000	n/a	420210	NeuNonAlcP3000	n/a	n/a	n/a	n/a
432.7560000000	n/a	432756	NegStim	n/a	n/a	n/a	n/a
435.8560000000	n/a	435856	NegNonAlcP2000	n/a	n/a	n/a	n/a
439.8430000000	n/a	439843	NegNonAlcP2000	n/a	n/a	n/a	n/a
450.5230000000	n/a	450523	PosStim	n/a	n/a	n/a	n/a
453.5560000000	n/a	453556	PosNonAlcStimWithoutStartle	n/a	n/a	n/a	n/a
467.4230000000	n/a	467423	NeuStim	n/a	n/a	n/a	n/a
470.4560000000	n/a	470456	NeuNonAlcStimWithoutStartle	n/a	n/a	n/a	n/a
486.4730000000	n/a	486473	PosStim	n/a	n/a	n/a	n/a
489.5730000000	n/a	489573	PosNonAlcP1000	n/a	n/a	n/a	n/a
494.5600000000	n/a	494560	PosNonAlcP1000	n/a	n/a	n/a	n/a
504.5890000000	n/a	504589	NegStim	n/a	n/a	n/a	n/a
507.6230000000	n/a	507623	NegAlcStimWithoutStartle	n/a	n/a	n/a	n/a
520.8560000000	n/a	520856	NeuStim	n/a	n/a	n/a	n/a
523.9560000000	n/a	523956	NeuAlcP2000	n/a	n/a	n/a	n/a
527.9430000000	n/a	527943	NeuAlcP2000	n/a	n/a	n/a	n/a
540.6720000000	n/a	540672	PosStim	n/a	n/a	n/a	n/a
543.7720000000	n/a	543772	PosNonAlcP1000	n/a	n/a	n/a	n/a
548.7600000000	n/a	548760	PosNonAlcP1000	n/a	n/a	n/a	n/a
558.6220000000	n/a	558622	NeuStim	n/a	n/a	n/a	n/a
561.7220000000	n/a	561722	NeuNonAlcP1000	n/a	n/a	n/a	n/a
566.7090000000	n/a	566709	NeuNonAlcP1000	n/a	n/a	n/a	n/a
577.3220000000	n/a	577322	PosStim	n/a	n/a	n/a	n/a
580.3560000000	n/a	580356	PosNonAlcStimWithoutStartle	n/a	n/a	n/a	n/a
595.7390000000	n/a	595739	NegStim	n/a	n/a	n/a	n/a
598.8390000000	n/a	598839	NegAlcP2000	n/a	n/a	n/a	n/a
602.8260000000	n/a	602826	NegAlcP2000	n/a	n/a	n/a	n/a
612.0720000000	n/a	612072	NeuStim	n/a	n/a	n/a	n/a
615.1720000000	n/a	615172	NeuAlcP3000	n/a	n/a	n/a	n/a
618.1590000000	n/a	618159	NeuAlcP3000	n/a	n/a	n/a	n/a
631.1390000000	n/a	631139	NegStim	n/a	n/a	n/a	n/a
634.1720000000	n/a	634172	NegAlcStimWithoutStartle	n/a	n/a	n/a	n/a
647.5220000000	n/a	647522	NeuStim	n/a	n/a	n/a	n/a
650.6220000000	n/a	650622	NeuNonAlcP2000	n/a	n/a	n/a	n/a
654.6090000000	n/a	654609	NeuNonAlcP2000	n/a	n/a	n/a	n/a
666.2060000000	n/a	666206	PosStim	n/a	n/a	n/a	n/a
669.3060000000	n/a	669306	PosNonAlcP3000	n/a	n/a	n/a	n/a
672.2930000000	n/a	672293	PosNonAlcP3000	n/a	n/a	n/a	n/a
683.5390000000	n/a	683539	NegStim	n/a	n/a	n/a	n/a
686.6390000000	n/a	686639	NegAlcP3000	n/a	n/a	n/a	n/a
689.6260000000	n/a	689626	NegAlcP3000	n/a	n/a	n/a	n/a
701.2390000000	n/a	701239	PosStim	n/a	n/a	n/a	n/a
704.2720000000	n/a	704272	PosAlcStimWithoutStartle	n/a	n/a	n/a	n/a
718.1220000000	n/a	718122	NegStim	n/a	n/a	n/a	n/a
721.2220000000	n/a	721222	NegAlcP1000	n/a	n/a	n/a	n/a
726.2090000000	n/a	726209	NegAlcP1000	n/a	n/a	n/a	n/a
734.4050000000	n/a	734405	PosStim	n/a	n/a	n/a	n/a
737.4390000000	n/a	737439	PosAlcStimWithoutStartle	n/a	n/a	n/a	n/a
752.5220000000	n/a	752522	NegStim	n/a	n/a	n/a	n/a
755.6220000000	n/a	755622	NegNonAlcP2000	n/a	n/a	n/a	n/a
759.6090000000	n/a	759609	NegNonAlcP2000	n/a	n/a	n/a	n/a
769.5220000000	n/a	769522	PosStim	n/a	n/a	n/a	n/a
772.6220000000	n/a	772622	PosAlcP2000	n/a	n/a	n/a	n/a
776.6090000000	n/a	776609	PosAlcP2000	n/a	n/a	n/a	n/a
786.2390000000	n/a	786239	NeuStim	n/a	n/a	n/a	n/a
789.2720000000	n/a	789272	NeuNonAlcStimWithoutStartle	n/a	n/a	n/a	n/a
804.1720000000	n/a	804172	PosStim	n/a	n/a	n/a	n/a
807.2720000000	n/a	807272	PosNonAlcP2000	n/a	n/a	n/a	n/a
811.2590000000	n/a	811259	PosNonAlcP2000	n/a	n/a	n/a	n/a
820.3890000000	n/a	820389	NegStim	n/a	n/a	n/a	n/a
823.4220000000	n/a	823422	NegAlcStimWithoutStartle	n/a	n/a	n/a	n/a
839.0890000000	n/a	839089	PosStim	n/a	n/a	n/a	n/a
842.1890000000	n/a	842189	PosAlcP3000	n/a	n/a	n/a	n/a
845.1760000000	n/a	845176	PosAlcP3000	n/a	n/a	n/a	n/a
858.4890000000	n/a	858489	PosStim	n/a	n/a	n/a	n/a
861.5890000000	n/a	861589	PosNonAlcP3000	n/a	n/a	n/a	n/a
864.5760000000	n/a	864576	PosNonAlcP3000	n/a	n/a	n/a	n/a
878.0390000000	n/a	878039	NeuStim	n/a	n/a	n/a	n/a
881.0720000000	n/a	881072	NeuNonAlcStimWithoutStartle	n/a	n/a	n/a	n/a
896.2550000000	n/a	896255	NeuStim	n/a	n/a	n/a	n/a
899.3550000000	n/a	899355	NeuNonAlcP3000	n/a	n/a	n/a	n/a
902.3420000000	n/a	902342	NeuNonAlcP3000	n/a	n/a	n/a	n/a
914.9380000000	n/a	914938	PosStim	n/a	n/a	n/a	n/a
918.0380000000	n/a	918038	PosAlcP2000	n/a	n/a	n/a	n/a
922.0260000000	n/a	922026	PosAlcP2000	n/a	n/a	n/a	n/a
933.7050000000	n/a	933705	NegStim	n/a	n/a	n/a	n/a
936.8050000000	n/a	936805	NegAlcP1000	n/a	n/a	n/a	n/a
941.7920000000	n/a	941792	NegAlcP1000	n/a	n/a	n/a	n/a
953.0050000000	n/a	953005	PosStim	n/a	n/a	n/a	n/a
956.1050000000	n/a	956105	PosNonAlcP2000	n/a	n/a	n/a	n/a
960.0920000000	n/a	960092	PosNonAlcP2000	n/a	n/a	n/a	n/a
972.9050000000	n/a	972905	NeuStim	n/a	n/a	n/a	n/a
975.9380000000	n/a	975938	NeuNonAlcStimWithoutStartle	n/a	n/a	n/a	n/a
992.8880000000	n/a	992888	NegStim	n/a	n/a	n/a	n/a
995.9880000000	n/a	995988	NegAlcP2000	n/a	n/a	n/a	n/a
999.9750000000	n/a	999975	NegAlcP2000	n/a	n/a	n/a	n/a
1010.6380000000	n/a	1010638	PosStim	n/a	n/a	n/a	n/a
1013.7380000000	n/a	1013738	PosAlcP3000	n/a	n/a	n/a	n/a
1016.7250000000	n/a	1016725	PosAlcP3000	n/a	n/a	n/a	n/a
1030.4220000000	n/a	1030422	NeuStim	n/a	n/a	n/a	n/a
1033.4550000000	n/a	1033455	NeuAlcStimWithoutStartle	n/a	n/a	n/a	n/a
1048.0220000000	n/a	1048022	NegStim	n/a	n/a	n/a	n/a
1051.1220000000	n/a	1051122	NegNonAlcP3000	n/a	n/a	n/a	n/a
1054.1090000000	n/a	1054109	NegNonAlcP3000	n/a	n/a	n/a	n/a
