onset	duration	sample	trial_type	response_time	stim_file	value	correct
3.1430000000	n/a	3143	FrequentFixedSOA	695	n/a	n/a	0
4.7760000000	n/a	4776	FrequentFixedSOA	1633	n/a	n/a	1
6.4090000000	n/a	6409	FrequentFixedSOA	1633	n/a	n/a	1
8.0420000000	n/a	8042	FrequentFixedSOA	1633	n/a	n/a	1
9.6760000000	n/a	9676	FrequentFixedSOA	1633	n/a	n/a	1
11.3090000000	n/a	11309	FrequentFixedSOA	1633	n/a	n/a	1
12.9420000000	n/a	12942	FrequentFixedSOA	1633	n/a	n/a	1
14.5760000000	n/a	14576	FrequentFixedSOA	1633	n/a	n/a	1
16.2090000000	n/a	16209	FrequentFixedSOA	1633	n/a	n/a	1
17.8420000000	n/a	17842	FrequentFixedSOA	1633	n/a	n/a	1
19.4760000000	n/a	19476	NovelFixedSOA	1633	n/a	n/a	1
21.1090000000	n/a	21109	FrequentFixedSOA	1633	n/a	n/a	1
22.7420000000	n/a	22742	GoFixedSOA	418	n/a	n/a	1
24.3760000000	n/a	24376	FrequentFixedSOA	1633	n/a	n/a	1
26.0090000000	n/a	26009	FrequentFixedSOA	1633	n/a	n/a	1
27.6420000000	n/a	27642	FrequentFixedSOA	1633	n/a	n/a	1
29.2760000000	n/a	29276	GoFixedSOA	405	n/a	n/a	1
30.9090000000	n/a	30909	FrequentFixedSOA	1633	n/a	n/a	1
32.5420000000	n/a	32542	FrequentFixedSOA	1633	n/a	n/a	1
34.1760000000	n/a	34176	FrequentFixedSOA	1633	n/a	n/a	1
35.8090000000	n/a	35809	NovelFixedSOA	1633	n/a	n/a	1
37.4420000000	n/a	37442	FrequentFixedSOA	1633	n/a	n/a	1
39.0760000000	n/a	39076	FrequentFixedSOA	1633	n/a	n/a	1
40.7090000000	n/a	40709	FrequentFixedSOA	1633	n/a	n/a	1
42.3420000000	n/a	42342	GoFixedSOA	373	n/a	n/a	1
43.9760000000	n/a	43976	FrequentFixedSOA	1633	n/a	n/a	1
45.6090000000	n/a	45609	NovelFixedSOA	1633	n/a	n/a	1
47.2420000000	n/a	47242	FrequentFixedSOA	1633	n/a	n/a	1
48.8750000000	n/a	48875	FrequentFixedSOA	1633	n/a	n/a	1
50.5090000000	n/a	50509	FrequentFixedSOA	1633	n/a	n/a	1
52.1420000000	n/a	52142	GoFixedSOA	367	n/a	n/a	1
53.7750000000	n/a	53775	FrequentFixedSOA	1633	n/a	n/a	1
55.4090000000	n/a	55409	GoFixedSOA	408	n/a	n/a	1
57.0420000000	n/a	57042	FrequentFixedSOA	1633	n/a	n/a	1
58.6750000000	n/a	58675	FrequentFixedSOA	1633	n/a	n/a	1
60.3090000000	n/a	60309	GoFixedSOA	360	n/a	n/a	1
61.9420000000	n/a	61942	FrequentFixedSOA	1633	n/a	n/a	1
63.5750000000	n/a	63575	FrequentFixedSOA	1633	n/a	n/a	1
65.2090000000	n/a	65209	FrequentFixedSOA	1633	n/a	n/a	1
66.8420000000	n/a	66842	FrequentFixedSOA	1633	n/a	n/a	1
68.4750000000	n/a	68475	NovelFixedSOA	1633	n/a	n/a	1
70.1090000000	n/a	70109	FrequentFixedSOA	1633	n/a	n/a	1
71.7420000000	n/a	71742	NovelFixedSOA	1633	n/a	n/a	1
73.3750000000	n/a	73375	FrequentFixedSOA	1633	n/a	n/a	1
75.0090000000	n/a	75009	FrequentFixedSOA	1633	n/a	n/a	1
76.6420000000	n/a	76642	GoFixedSOA	303	n/a	n/a	1
78.2750000000	n/a	78275	FrequentFixedSOA	1633	n/a	n/a	1
79.9090000000	n/a	79909	FrequentFixedSOA	1633	n/a	n/a	1
81.5420000000	n/a	81542	FrequentFixedSOA	1633	n/a	n/a	1
83.1750000000	n/a	83175	FrequentFixedSOA	1633	n/a	n/a	1
84.8090000000	n/a	84809	NovelFixedSOA	1633	n/a	n/a	1
86.4420000000	n/a	86442	FrequentFixedSOA	1633	n/a	n/a	1
88.0750000000	n/a	88075	FrequentFixedSOA	1633	n/a	n/a	1
89.7090000000	n/a	89709	FrequentFixedSOA	1633	n/a	n/a	1
91.3420000000	n/a	91342	FrequentFixedSOA	1633	n/a	n/a	1
92.9750000000	n/a	92975	GoFixedSOA	325	n/a	n/a	1
94.6090000000	n/a	94609	FrequentFixedSOA	1633	n/a	n/a	1
96.2420000000	n/a	96242	FrequentFixedSOA	1633	n/a	n/a	1
97.8750000000	n/a	97875	NovelFixedSOA	1633	n/a	n/a	1
99.5090000000	n/a	99509	FrequentFixedSOA	1633	n/a	n/a	1
101.1420000000	n/a	101142	FrequentFixedSOA	1633	n/a	n/a	1
102.7750000000	n/a	102775	GoFixedSOA	376	n/a	n/a	1
104.4090000000	n/a	104409	FrequentFixedSOA	1633	n/a	n/a	1
106.0420000000	n/a	106042	FrequentFixedSOA	1633	n/a	n/a	1
107.6750000000	n/a	107675	FrequentFixedSOA	1633	n/a	n/a	1
109.3090000000	n/a	109309	FrequentFixedSOA	1633	n/a	n/a	1
110.9420000000	n/a	110942	NovelFixedSOA	1633	n/a	n/a	1
112.5750000000	n/a	112575	FrequentFixedSOA	1633	n/a	n/a	1
114.2090000000	n/a	114209	FrequentFixedSOA	1633	n/a	n/a	1
115.8420000000	n/a	115842	GoFixedSOA	329	n/a	n/a	1
117.4750000000	n/a	117475	FrequentVariableSOA	1733	n/a	n/a	1
119.2090000000	n/a	119209	FrequentVariableSOA	1600	n/a	n/a	1
120.8090000000	n/a	120809	FrequentVariableSOA	1533	n/a	n/a	1
122.3420000000	n/a	122342	FrequentVariableSOA	1716	n/a	n/a	1
124.0590000000	n/a	124059	FrequentVariableSOA	1700	n/a	n/a	1
125.7590000000	n/a	125759	FrequentVariableSOA	1783	n/a	n/a	1
127.5420000000	n/a	127542	FrequentVariableSOA	1600	n/a	n/a	1
129.1420000000	n/a	129142	FrequentVariableSOA	1683	n/a	n/a	1
130.8250000000	n/a	130825	FrequentVariableSOA	1600	n/a	n/a	1
132.4250000000	n/a	132425	FrequentVariableSOA	1550	n/a	n/a	1
133.9750000000	n/a	133975	NovelVariableSOA	1783	n/a	n/a	1
135.7590000000	n/a	135759	FrequentVariableSOA	1783	n/a	n/a	1
137.5420000000	n/a	137542	GoVariableSOA	394	n/a	n/a	1
139.1920000000	n/a	139192	FrequentVariableSOA	1583	n/a	n/a	1
140.7750000000	n/a	140775	FrequentVariableSOA	1683	n/a	n/a	1
142.4590000000	n/a	142459	FrequentVariableSOA	1766	n/a	n/a	1
144.2250000000	n/a	144225	GoVariableSOA	340	n/a	n/a	1
145.7420000000	n/a	145742	FrequentVariableSOA	1616	n/a	n/a	1
147.3590000000	n/a	147359	FrequentVariableSOA	1733	n/a	n/a	1
149.0920000000	n/a	149092	FrequentVariableSOA	1666	n/a	n/a	1
150.7590000000	n/a	150759	NovelVariableSOA	1650	n/a	n/a	1
152.4090000000	n/a	152409	FrequentVariableSOA	1550	n/a	n/a	1
153.9590000000	n/a	153959	FrequentVariableSOA	1550	n/a	n/a	1
155.5090000000	n/a	155509	FrequentVariableSOA	1550	n/a	n/a	1
157.0590000000	n/a	157059	GoVariableSOA	301	n/a	n/a	1
158.7090000000	n/a	158709	FrequentVariableSOA	1533	n/a	n/a	1
160.2420000000	n/a	160242	NovelVariableSOA	1583	n/a	n/a	1
161.8250000000	n/a	161825	FrequentVariableSOA	1616	n/a	n/a	1
163.4420000000	n/a	163442	FrequentVariableSOA	1716	n/a	n/a	1
165.1590000000	n/a	165159	FrequentVariableSOA	1733	n/a	n/a	1
166.8920000000	n/a	166892	GoVariableSOA	360	n/a	n/a	1
168.6420000000	n/a	168642	FrequentVariableSOA	1666	n/a	n/a	1
170.3090000000	n/a	170309	GoVariableSOA	480	n/a	n/a	1
171.9920000000	n/a	171992	FrequentVariableSOA	1600	n/a	n/a	1
173.5920000000	n/a	173592	FrequentVariableSOA	1500	n/a	n/a	1
175.0920000000	n/a	175092	GoVariableSOA	1616	n/a	n/a	0
176.7090000000	n/a	176709	FrequentVariableSOA	1583	n/a	n/a	1
178.2920000000	n/a	178292	FrequentVariableSOA	1716	n/a	n/a	1
180.0090000000	n/a	180009	FrequentVariableSOA	1733	n/a	n/a	1
181.7420000000	n/a	181742	FrequentVariableSOA	1500	n/a	n/a	1
183.2420000000	n/a	183242	NovelVariableSOA	1650	n/a	n/a	1
184.8920000000	n/a	184892	FrequentVariableSOA	1633	n/a	n/a	1
186.5250000000	n/a	186525	NovelVariableSOA	1633	n/a	n/a	1
188.1590000000	n/a	188159	FrequentVariableSOA	1633	n/a	n/a	1
189.7920000000	n/a	189792	FrequentVariableSOA	1700	n/a	n/a	1
191.4920000000	n/a	191492	GoVariableSOA	329	n/a	n/a	1
193.1250000000	n/a	193125	FrequentVariableSOA	1600	n/a	n/a	1
194.7250000000	n/a	194725	FrequentVariableSOA	1600	n/a	n/a	1
196.3250000000	n/a	196325	FrequentVariableSOA	1716	n/a	n/a	1
198.0420000000	n/a	198042	FrequentVariableSOA	1800	n/a	n/a	1
199.8420000000	n/a	199842	NovelVariableSOA	1700	n/a	n/a	1
201.5420000000	n/a	201542	FrequentVariableSOA	1650	n/a	n/a	1
203.1920000000	n/a	203192	FrequentVariableSOA	1600	n/a	n/a	1
204.7920000000	n/a	204792	FrequentVariableSOA	1766	n/a	n/a	1
206.5590000000	n/a	206559	FrequentVariableSOA	1766	n/a	n/a	1
208.3250000000	n/a	208325	GoVariableSOA	261	n/a	n/a	1
210.0090000000	n/a	210009	FrequentVariableSOA	1516	n/a	n/a	1
211.5250000000	n/a	211525	FrequentVariableSOA	1683	n/a	n/a	1
213.2090000000	n/a	213209	NovelVariableSOA	1600	n/a	n/a	1
214.8090000000	n/a	214809	FrequentVariableSOA	1683	n/a	n/a	1
216.4920000000	n/a	216492	FrequentVariableSOA	1566	n/a	n/a	1
218.0590000000	n/a	218059	GoVariableSOA	319	n/a	n/a	1
219.5920000000	n/a	219592	FrequentVariableSOA	1616	n/a	n/a	1
221.2090000000	n/a	221209	FrequentVariableSOA	1700	n/a	n/a	1
222.9090000000	n/a	222909	FrequentVariableSOA	1500	n/a	n/a	1
224.4090000000	n/a	224409	FrequentVariableSOA	1533	n/a	n/a	1
225.9420000000	n/a	225942	NovelVariableSOA	1533	n/a	n/a	1
227.4750000000	n/a	227475	FrequentVariableSOA	1650	n/a	n/a	1
229.1250000000	n/a	229125	FrequentVariableSOA	1750	n/a	n/a	1
230.8750000000	n/a	230875	GoVariableSOA	351	n/a	n/a	1
232.4250000000	n/a	232425	FrequentFixedSOA	1633	n/a	n/a	1
234.0580000000	n/a	234058	FrequentFixedSOA	1633	n/a	n/a	1
235.6920000000	n/a	235692	FrequentFixedSOA	1633	n/a	n/a	1
237.3250000000	n/a	237325	GoFixedSOA	347	n/a	n/a	1
238.9580000000	n/a	238958	FrequentFixedSOA	1633	n/a	n/a	1
240.5920000000	n/a	240592	FrequentFixedSOA	1633	n/a	n/a	1
242.2250000000	n/a	242225	FrequentFixedSOA	1633	n/a	n/a	1
243.8580000000	n/a	243858	GoFixedSOA	368	n/a	n/a	1
245.4920000000	n/a	245492	FrequentFixedSOA	1633	n/a	n/a	1
247.1250000000	n/a	247125	FrequentFixedSOA	1633	n/a	n/a	1
248.7580000000	n/a	248758	FrequentFixedSOA	1633	n/a	n/a	1
250.3920000000	n/a	250392	NovelFixedSOA	1633	n/a	n/a	1
252.0250000000	n/a	252025	FrequentFixedSOA	1633	n/a	n/a	1
253.6580000000	n/a	253658	NovelFixedSOA	1633	n/a	n/a	1
255.2920000000	n/a	255292	FrequentFixedSOA	1633	n/a	n/a	1
256.9250000000	n/a	256925	FrequentFixedSOA	1633	n/a	n/a	1
258.5580000000	n/a	258558	NovelFixedSOA	1633	n/a	n/a	1
260.1920000000	n/a	260192	FrequentFixedSOA	1633	n/a	n/a	1
261.8250000000	n/a	261825	FrequentFixedSOA	1633	n/a	n/a	1
263.4580000000	n/a	263458	FrequentFixedSOA	1633	n/a	n/a	1
265.0920000000	n/a	265092	FrequentFixedSOA	1633	n/a	n/a	1
266.7250000000	n/a	266725	FrequentFixedSOA	1633	n/a	n/a	1
268.3580000000	n/a	268358	NovelFixedSOA	1633	n/a	n/a	1
269.9920000000	n/a	269992	FrequentFixedSOA	1633	n/a	n/a	1
271.6250000000	n/a	271625	FrequentFixedSOA	1633	n/a	n/a	1
273.2580000000	n/a	273258	FrequentFixedSOA	1633	n/a	n/a	1
274.8920000000	n/a	274892	FrequentFixedSOA	1633	n/a	n/a	1
276.5250000000	n/a	276525	FrequentFixedSOA	1633	n/a	n/a	1
278.1580000000	n/a	278158	GoFixedSOA	373	n/a	n/a	1
279.7920000000	n/a	279792	FrequentFixedSOA	1633	n/a	n/a	1
281.4250000000	n/a	281425	FrequentFixedSOA	1633	n/a	n/a	1
283.0580000000	n/a	283058	GoFixedSOA	438	n/a	n/a	1
284.6920000000	n/a	284692	FrequentFixedSOA	1633	n/a	n/a	1
286.3250000000	n/a	286325	NovelFixedSOA	1633	n/a	n/a	1
287.9580000000	n/a	287958	FrequentFixedSOA	1633	n/a	n/a	1
289.5920000000	n/a	289592	GoFixedSOA	1633	n/a	n/a	0
291.2250000000	n/a	291225	FrequentFixedSOA	1633	n/a	n/a	1
292.8580000000	n/a	292858	GoFixedSOA	1633	n/a	n/a	0
294.4920000000	n/a	294492	FrequentFixedSOA	1633	n/a	n/a	1
296.1250000000	n/a	296125	FrequentFixedSOA	1633	n/a	n/a	1
297.7580000000	n/a	297758	FrequentFixedSOA	1633	n/a	n/a	1
299.3920000000	n/a	299392	FrequentFixedSOA	1633	n/a	n/a	1
301.0250000000	n/a	301025	GoFixedSOA	294	n/a	n/a	1
302.6580000000	n/a	302658	FrequentFixedSOA	1633	n/a	n/a	1
304.2920000000	n/a	304292	FrequentFixedSOA	1633	n/a	n/a	1
305.9250000000	n/a	305925	FrequentFixedSOA	1633	n/a	n/a	1
307.5580000000	n/a	307558	NovelFixedSOA	1633	n/a	n/a	1
309.1920000000	n/a	309192	FrequentFixedSOA	1633	n/a	n/a	1
310.8250000000	n/a	310825	FrequentFixedSOA	1633	n/a	n/a	1
312.4580000000	n/a	312458	FrequentFixedSOA	1633	n/a	n/a	1
314.0920000000	n/a	314092	FrequentFixedSOA	1633	n/a	n/a	1
315.7250000000	n/a	315725	NovelFixedSOA	1633	n/a	n/a	1
317.3580000000	n/a	317358	FrequentFixedSOA	1633	n/a	n/a	1
318.9920000000	n/a	318992	FrequentFixedSOA	1633	n/a	n/a	1
320.6250000000	n/a	320625	FrequentFixedSOA	1633	n/a	n/a	1
322.2580000000	n/a	322258	FrequentFixedSOA	1633	n/a	n/a	1
323.8920000000	n/a	323892	NovelFixedSOA	1633	n/a	n/a	1
325.5250000000	n/a	325525	FrequentFixedSOA	1633	n/a	n/a	1
327.1580000000	n/a	327158	FrequentFixedSOA	1633	n/a	n/a	1
328.7920000000	n/a	328792	GoFixedSOA	354	n/a	n/a	1
330.4250000000	n/a	330425	FrequentFixedSOA	1633	n/a	n/a	1
332.0580000000	n/a	332058	FrequentFixedSOA	1633	n/a	n/a	1
333.6920000000	n/a	333692	FrequentFixedSOA	1633	n/a	n/a	1
335.3250000000	n/a	335325	FrequentFixedSOA	1633	n/a	n/a	1
336.9580000000	n/a	336958	NovelFixedSOA	1633	n/a	n/a	1
338.5920000000	n/a	338592	FrequentFixedSOA	1633	n/a	n/a	1
340.2250000000	n/a	340225	FrequentFixedSOA	1633	n/a	n/a	1
341.8580000000	n/a	341858	FrequentFixedSOA	1633	n/a	n/a	1
343.4920000000	n/a	343492	FrequentFixedSOA	1633	n/a	n/a	1
345.1250000000	n/a	345125	FrequentFixedSOA	1633	n/a	n/a	1
346.7580000000	n/a	346758	FrequentVariableSOA	1716	n/a	n/a	1
348.4750000000	n/a	348475	FrequentVariableSOA	1766	n/a	n/a	1
350.2420000000	n/a	350242	FrequentVariableSOA	1500	n/a	n/a	1
351.7420000000	n/a	351742	GoVariableSOA	417	n/a	n/a	1
353.4420000000	n/a	353442	FrequentVariableSOA	1683	n/a	n/a	1
355.1250000000	n/a	355125	FrequentVariableSOA	1733	n/a	n/a	1
356.8580000000	n/a	356858	FrequentVariableSOA	1766	n/a	n/a	1
358.6250000000	n/a	358625	GoVariableSOA	414	n/a	n/a	1
360.1750000000	n/a	360175	FrequentVariableSOA	1516	n/a	n/a	1
361.6920000000	n/a	361692	FrequentVariableSOA	1700	n/a	n/a	1
363.3920000000	n/a	363392	FrequentVariableSOA	1800	n/a	n/a	1
365.1920000000	n/a	365192	NovelVariableSOA	1783	n/a	n/a	1
366.9750000000	n/a	366975	FrequentVariableSOA	1783	n/a	n/a	1
368.7580000000	n/a	368758	NovelVariableSOA	1700	n/a	n/a	1
370.4580000000	n/a	370458	FrequentVariableSOA	1683	n/a	n/a	1
372.1420000000	n/a	372142	FrequentVariableSOA	1600	n/a	n/a	1
373.7420000000	n/a	373742	NovelVariableSOA	1633	n/a	n/a	1
375.3750000000	n/a	375375	FrequentVariableSOA	1683	n/a	n/a	1
377.0580000000	n/a	377058	FrequentVariableSOA	1783	n/a	n/a	1
378.8420000000	n/a	378842	FrequentVariableSOA	1683	n/a	n/a	1
380.5250000000	n/a	380525	FrequentVariableSOA	1600	n/a	n/a	1
382.1250000000	n/a	382125	FrequentVariableSOA	1633	n/a	n/a	1
383.7580000000	n/a	383758	NovelVariableSOA	1700	n/a	n/a	1
385.4580000000	n/a	385458	FrequentVariableSOA	1516	n/a	n/a	1
386.9750000000	n/a	386975	FrequentVariableSOA	1783	n/a	n/a	1
388.7580000000	n/a	388758	FrequentVariableSOA	1566	n/a	n/a	1
390.3250000000	n/a	390325	FrequentVariableSOA	1700	n/a	n/a	1
392.0250000000	n/a	392025	FrequentVariableSOA	1800	n/a	n/a	1
393.8250000000	n/a	393825	GoVariableSOA	350	n/a	n/a	1
395.4920000000	n/a	395492	FrequentVariableSOA	1700	n/a	n/a	1
397.1920000000	n/a	397192	FrequentVariableSOA	1700	n/a	n/a	1
398.8920000000	n/a	398892	GoVariableSOA	401	n/a	n/a	1
400.5580000000	n/a	400558	FrequentVariableSOA	1783	n/a	n/a	1
402.3420000000	n/a	402342	NovelVariableSOA	1600	n/a	n/a	1
403.9420000000	n/a	403942	FrequentVariableSOA	1716	n/a	n/a	1
405.6580000000	n/a	405658	GoVariableSOA	334	n/a	n/a	1
407.2750000000	n/a	407275	FrequentVariableSOA	1766	n/a	n/a	1
409.0420000000	n/a	409042	GoVariableSOA	371	n/a	n/a	1
410.7580000000	n/a	410758	FrequentVariableSOA	1633	n/a	n/a	1
412.3920000000	n/a	412392	FrequentVariableSOA	1516	n/a	n/a	1
413.9080000000	n/a	413908	FrequentVariableSOA	1633	n/a	n/a	1
415.5410000000	n/a	415541	FrequentVariableSOA	1550	n/a	n/a	1
417.0910000000	n/a	417091	GoVariableSOA	1583	n/a	n/a	0
418.6750000000	n/a	418675	FrequentVariableSOA	1600	n/a	n/a	1
420.2750000000	n/a	420275	FrequentVariableSOA	1733	n/a	n/a	1
422.0080000000	n/a	422008	FrequentVariableSOA	1516	n/a	n/a	1
423.5250000000	n/a	423525	NovelVariableSOA	1733	n/a	n/a	1
425.2580000000	n/a	425258	FrequentVariableSOA	1666	n/a	n/a	1
426.9250000000	n/a	426925	FrequentVariableSOA	1650	n/a	n/a	1
428.5750000000	n/a	428575	FrequentVariableSOA	1733	n/a	n/a	1
430.3080000000	n/a	430308	FrequentVariableSOA	1583	n/a	n/a	1
431.8910000000	n/a	431891	NovelVariableSOA	1783	n/a	n/a	1
433.6750000000	n/a	433675	FrequentVariableSOA	1550	n/a	n/a	1
435.2250000000	n/a	435225	FrequentVariableSOA	1633	n/a	n/a	1
436.8580000000	n/a	436858	FrequentVariableSOA	1733	n/a	n/a	1
438.5910000000	n/a	438591	FrequentVariableSOA	1666	n/a	n/a	1
440.2580000000	n/a	440258	NovelVariableSOA	1750	n/a	n/a	1
442.0080000000	n/a	442008	FrequentVariableSOA	1650	n/a	n/a	1
443.6580000000	n/a	443658	FrequentVariableSOA	1716	n/a	n/a	1
445.3750000000	n/a	445375	GoVariableSOA	328	n/a	n/a	1
447.0750000000	n/a	447075	FrequentVariableSOA	1633	n/a	n/a	1
448.7080000000	n/a	448708	FrequentVariableSOA	1550	n/a	n/a	1
450.2580000000	n/a	450258	FrequentVariableSOA	1550	n/a	n/a	1
451.8080000000	n/a	451808	FrequentVariableSOA	1750	n/a	n/a	1
453.5580000000	n/a	453558	NovelVariableSOA	1616	n/a	n/a	1
455.1750000000	n/a	455175	FrequentVariableSOA	1700	n/a	n/a	1
456.8750000000	n/a	456875	FrequentVariableSOA	1516	n/a	n/a	1
458.3910000000	n/a	458391	FrequentVariableSOA	1683	n/a	n/a	1
460.0750000000	n/a	460075	FrequentVariableSOA	1683	n/a	n/a	1
461.7580000000	n/a	461758	FrequentVariableSOA	1650	n/a	n/a	1
463.4080000000	n/a	463408	GoFixedSOA	383	n/a	n/a	1
465.0410000000	n/a	465041	FrequentFixedSOA	1633	n/a	n/a	1
466.6750000000	n/a	466675	FrequentFixedSOA	1633	n/a	n/a	1
468.3080000000	n/a	468308	FrequentFixedSOA	1633	n/a	n/a	1
469.9410000000	n/a	469941	FrequentFixedSOA	1633	n/a	n/a	1
471.5750000000	n/a	471575	FrequentFixedSOA	1633	n/a	n/a	1
473.2080000000	n/a	473208	FrequentFixedSOA	1633	n/a	n/a	1
474.8410000000	n/a	474841	NovelFixedSOA	1633	n/a	n/a	1
476.4750000000	n/a	476475	FrequentFixedSOA	1633	n/a	n/a	1
478.1080000000	n/a	478108	FrequentFixedSOA	1633	n/a	n/a	1
479.7410000000	n/a	479741	FrequentFixedSOA	1633	n/a	n/a	1
481.3750000000	n/a	481375	NovelFixedSOA	1633	n/a	n/a	1
483.0080000000	n/a	483008	FrequentFixedSOA	1633	n/a	n/a	1
484.6410000000	n/a	484641	GoFixedSOA	298	n/a	n/a	1
486.2750000000	n/a	486275	FrequentFixedSOA	1633	n/a	n/a	1
487.9080000000	n/a	487908	FrequentFixedSOA	1633	n/a	n/a	1
489.5410000000	n/a	489541	GoFixedSOA	396	n/a	n/a	1
491.1750000000	n/a	491175	FrequentFixedSOA	1633	n/a	n/a	1
492.8080000000	n/a	492808	NovelFixedSOA	1633	n/a	n/a	1
494.4410000000	n/a	494441	FrequentFixedSOA	1633	n/a	n/a	1
496.0750000000	n/a	496075	FrequentFixedSOA	1633	n/a	n/a	1
497.7080000000	n/a	497708	FrequentFixedSOA	1633	n/a	n/a	1
499.3410000000	n/a	499341	FrequentFixedSOA	1633	n/a	n/a	1
500.9750000000	n/a	500975	FrequentFixedSOA	1633	n/a	n/a	1
502.6080000000	n/a	502608	GoFixedSOA	1633	n/a	n/a	0
504.2410000000	n/a	504241	FrequentFixedSOA	1633	n/a	n/a	1
505.8750000000	n/a	505875	FrequentFixedSOA	1633	n/a	n/a	1
507.5080000000	n/a	507508	NovelFixedSOA	1633	n/a	n/a	1
509.1410000000	n/a	509141	FrequentFixedSOA	1633	n/a	n/a	1
510.7750000000	n/a	510775	FrequentFixedSOA	1633	n/a	n/a	1
512.4080000000	n/a	512408	FrequentFixedSOA	1633	n/a	n/a	1
514.0410000000	n/a	514041	FrequentFixedSOA	1633	n/a	n/a	1
515.6750000000	n/a	515675	FrequentFixedSOA	1633	n/a	n/a	1
517.3080000000	n/a	517308	NovelFixedSOA	1633	n/a	n/a	1
518.9410000000	n/a	518941	FrequentFixedSOA	1633	n/a	n/a	1
520.5750000000	n/a	520575	FrequentFixedSOA	1633	n/a	n/a	1
522.2080000000	n/a	522208	FrequentFixedSOA	1633	n/a	n/a	1
523.8410000000	n/a	523841	FrequentFixedSOA	1633	n/a	n/a	1
525.4750000000	n/a	525475	GoFixedSOA	488	n/a	n/a	1
527.1080000000	n/a	527108	FrequentFixedSOA	1633	n/a	n/a	1
528.7410000000	n/a	528741	FrequentFixedSOA	1633	n/a	n/a	1
530.3750000000	n/a	530375	NovelFixedSOA	1633	n/a	n/a	1
532.0080000000	n/a	532008	FrequentFixedSOA	1633	n/a	n/a	1
533.6410000000	n/a	533641	FrequentFixedSOA	1633	n/a	n/a	1
535.2750000000	n/a	535275	NovelFixedSOA	1633	n/a	n/a	1
536.9080000000	n/a	536908	FrequentFixedSOA	1633	n/a	n/a	1
538.5410000000	n/a	538541	FrequentFixedSOA	1633	n/a	n/a	1
540.1750000000	n/a	540175	FrequentFixedSOA	1633	n/a	n/a	1
541.8080000000	n/a	541808	FrequentFixedSOA	1633	n/a	n/a	1
543.4410000000	n/a	543441	FrequentFixedSOA	1633	n/a	n/a	1
545.0750000000	n/a	545075	GoFixedSOA	354	n/a	n/a	1
546.7080000000	n/a	546708	FrequentFixedSOA	1633	n/a	n/a	1
548.3410000000	n/a	548341	FrequentFixedSOA	1633	n/a	n/a	1
549.9750000000	n/a	549975	FrequentFixedSOA	1633	n/a	n/a	1
551.6080000000	n/a	551608	FrequentFixedSOA	1633	n/a	n/a	1
553.2410000000	n/a	553241	FrequentFixedSOA	1633	n/a	n/a	1
554.8750000000	n/a	554875	NovelFixedSOA	1633	n/a	n/a	1
556.5080000000	n/a	556508	FrequentFixedSOA	1633	n/a	n/a	1
558.1410000000	n/a	558141	GoFixedSOA	1633	n/a	n/a	0
559.7750000000	n/a	559775	FrequentFixedSOA	1633	n/a	n/a	1
561.4080000000	n/a	561408	FrequentFixedSOA	1633	n/a	n/a	1
563.0410000000	n/a	563041	FrequentFixedSOA	1633	n/a	n/a	1
564.6750000000	n/a	564675	FrequentFixedSOA	1633	n/a	n/a	1
566.3080000000	n/a	566308	FrequentFixedSOA	1633	n/a	n/a	1
567.9410000000	n/a	567941	FrequentFixedSOA	1633	n/a	n/a	1
569.5750000000	n/a	569575	FrequentFixedSOA	1633	n/a	n/a	1
571.2080000000	n/a	571208	FrequentFixedSOA	1633	n/a	n/a	1
572.8410000000	n/a	572841	NovelFixedSOA	1633	n/a	n/a	1
574.4750000000	n/a	574475	FrequentFixedSOA	1633	n/a	n/a	1
576.1080000000	n/a	576108	FrequentFixedSOA	1633	n/a	n/a	1
577.7410000000	n/a	577741	GoVariableSOA	1666	n/a	n/a	0
579.4080000000	n/a	579408	FrequentVariableSOA	1616	n/a	n/a	1
581.0250000000	n/a	581025	FrequentVariableSOA	1633	n/a	n/a	1
582.6580000000	n/a	582658	FrequentVariableSOA	1583	n/a	n/a	1
584.2410000000	n/a	584241	FrequentVariableSOA	1633	n/a	n/a	1
585.8750000000	n/a	585875	FrequentVariableSOA	1650	n/a	n/a	1
587.5250000000	n/a	587525	FrequentVariableSOA	1500	n/a	n/a	1
589.0250000000	n/a	589025	NovelVariableSOA	1600	n/a	n/a	1
590.6250000000	n/a	590625	FrequentVariableSOA	1533	n/a	n/a	1
592.1580000000	n/a	592158	FrequentVariableSOA	1700	n/a	n/a	1
593.8580000000	n/a	593858	FrequentVariableSOA	1600	n/a	n/a	1
595.4580000000	n/a	595458	NovelVariableSOA	1500	n/a	n/a	1
596.9580000000	n/a	596958	FrequentVariableSOA	1733	n/a	n/a	1
598.6910000000	n/a	598691	GoVariableSOA	257	n/a	n/a	1
600.4410000000	n/a	600441	FrequentVariableSOA	1666	n/a	n/a	1
602.1080000000	n/a	602108	FrequentVariableSOA	1716	n/a	n/a	1
603.8240000000	n/a	603824	GoVariableSOA	374	n/a	n/a	1
605.4410000000	n/a	605441	FrequentVariableSOA	1666	n/a	n/a	1
607.1080000000	n/a	607108	NovelVariableSOA	1700	n/a	n/a	1
608.8080000000	n/a	608808	FrequentVariableSOA	1500	n/a	n/a	1
610.3080000000	n/a	610308	FrequentVariableSOA	1766	n/a	n/a	1
612.0740000000	n/a	612074	FrequentVariableSOA	1600	n/a	n/a	1
613.6740000000	n/a	613674	FrequentVariableSOA	1616	n/a	n/a	1
615.2910000000	n/a	615291	FrequentVariableSOA	1783	n/a	n/a	1
617.0740000000	n/a	617074	GoVariableSOA	1716	n/a	n/a	0
618.7910000000	n/a	618791	FrequentVariableSOA	1533	n/a	n/a	1
620.3240000000	n/a	620324	FrequentVariableSOA	1616	n/a	n/a	1
621.9410000000	n/a	621941	NovelVariableSOA	1583	n/a	n/a	1
623.5240000000	n/a	623524	FrequentVariableSOA	1783	n/a	n/a	1
625.3080000000	n/a	625308	FrequentVariableSOA	1700	n/a	n/a	1
627.0080000000	n/a	627008	FrequentVariableSOA	1766	n/a	n/a	1
628.7740000000	n/a	628774	FrequentVariableSOA	1550	n/a	n/a	1
630.3240000000	n/a	630324	FrequentVariableSOA	1650	n/a	n/a	1
631.9740000000	n/a	631974	NovelVariableSOA	1700	n/a	n/a	1
633.6740000000	n/a	633674	FrequentVariableSOA	1583	n/a	n/a	1
635.2580000000	n/a	635258	FrequentVariableSOA	1683	n/a	n/a	1
636.9410000000	n/a	636941	FrequentVariableSOA	1516	n/a	n/a	1
638.4580000000	n/a	638458	FrequentVariableSOA	1633	n/a	n/a	1
640.0910000000	n/a	640091	GoVariableSOA	364	n/a	n/a	1
641.6910000000	n/a	641691	FrequentVariableSOA	1716	n/a	n/a	1
643.4080000000	n/a	643408	FrequentVariableSOA	1550	n/a	n/a	1
644.9580000000	n/a	644958	NovelVariableSOA	1650	n/a	n/a	1
646.6080000000	n/a	646608	FrequentVariableSOA	1583	n/a	n/a	1
648.1910000000	n/a	648191	FrequentVariableSOA	1600	n/a	n/a	1
649.7910000000	n/a	649791	NovelVariableSOA	1683	n/a	n/a	1
651.4740000000	n/a	651474	FrequentVariableSOA	1733	n/a	n/a	1
653.2080000000	n/a	653208	FrequentVariableSOA	1766	n/a	n/a	1
654.9740000000	n/a	654974	FrequentVariableSOA	1533	n/a	n/a	1
656.5080000000	n/a	656508	FrequentVariableSOA	1583	n/a	n/a	1
658.0910000000	n/a	658091	FrequentVariableSOA	1750	n/a	n/a	1
659.8410000000	n/a	659841	GoVariableSOA	351	n/a	n/a	1
661.4240000000	n/a	661424	FrequentVariableSOA	1650	n/a	n/a	1
663.0740000000	n/a	663074	FrequentVariableSOA	1616	n/a	n/a	1
664.6910000000	n/a	664691	FrequentVariableSOA	1666	n/a	n/a	1
666.3580000000	n/a	666358	FrequentVariableSOA	1516	n/a	n/a	1
667.8740000000	n/a	667874	FrequentVariableSOA	1683	n/a	n/a	1
669.5580000000	n/a	669558	NovelVariableSOA	1750	n/a	n/a	1
671.3080000000	n/a	671308	FrequentVariableSOA	1583	n/a	n/a	1
672.8910000000	n/a	672891	GoVariableSOA	1616	n/a	n/a	0
674.5080000000	n/a	674508	FrequentVariableSOA	1733	n/a	n/a	1
676.2410000000	n/a	676241	FrequentVariableSOA	1783	n/a	n/a	1
678.0240000000	n/a	678024	FrequentVariableSOA	1633	n/a	n/a	1
679.6580000000	n/a	679658	FrequentVariableSOA	1683	n/a	n/a	1
681.3410000000	n/a	681341	FrequentVariableSOA	1600	n/a	n/a	1
682.9410000000	n/a	682941	FrequentVariableSOA	1716	n/a	n/a	1
684.6580000000	n/a	684658	FrequentVariableSOA	1500	n/a	n/a	1
686.1580000000	n/a	686158	FrequentVariableSOA	1616	n/a	n/a	1
687.7740000000	n/a	687774	NovelVariableSOA	1766	n/a	n/a	1
689.5410000000	n/a	689541	FrequentVariableSOA	1533	n/a	n/a	1
691.0740000000	n/a	691074	FrequentVariableSOA	1616	n/a	n/a	1
692.6910000000	n/a	692691	GoFixedSOA	362	n/a	n/a	1
694.3240000000	n/a	694324	FrequentFixedSOA	1633	n/a	n/a	1
695.9580000000	n/a	695958	FrequentFixedSOA	1633	n/a	n/a	1
697.5910000000	n/a	697591	FrequentFixedSOA	1633	n/a	n/a	1
699.2240000000	n/a	699224	GoFixedSOA	357	n/a	n/a	1
700.8580000000	n/a	700858	FrequentFixedSOA	1633	n/a	n/a	1
702.4910000000	n/a	702491	FrequentFixedSOA	1633	n/a	n/a	1
704.1240000000	n/a	704124	FrequentFixedSOA	1633	n/a	n/a	1
705.7580000000	n/a	705758	FrequentFixedSOA	1633	n/a	n/a	1
707.3910000000	n/a	707391	GoFixedSOA	1633	n/a	n/a	0
709.0240000000	n/a	709024	FrequentFixedSOA	1633	n/a	n/a	1
710.6580000000	n/a	710658	FrequentFixedSOA	1633	n/a	n/a	1
712.2910000000	n/a	712291	NovelFixedSOA	1633	n/a	n/a	1
713.9240000000	n/a	713924	FrequentFixedSOA	1633	n/a	n/a	1
715.5580000000	n/a	715558	FrequentFixedSOA	1633	n/a	n/a	1
717.1910000000	n/a	717191	GoFixedSOA	381	n/a	n/a	1
718.8240000000	n/a	718824	FrequentFixedSOA	1633	n/a	n/a	1
720.4580000000	n/a	720458	FrequentFixedSOA	1633	n/a	n/a	1
722.0910000000	n/a	722091	FrequentFixedSOA	1633	n/a	n/a	1
723.7240000000	n/a	723724	NovelFixedSOA	1633	n/a	n/a	1
725.3580000000	n/a	725358	FrequentFixedSOA	1633	n/a	n/a	1
726.9910000000	n/a	726991	NovelFixedSOA	1633	n/a	n/a	1
728.6240000000	n/a	728624	FrequentFixedSOA	1633	n/a	n/a	1
730.2580000000	n/a	730258	FrequentFixedSOA	1633	n/a	n/a	1
731.8910000000	n/a	731891	FrequentFixedSOA	1633	n/a	n/a	1
733.5240000000	n/a	733524	GoFixedSOA	1633	n/a	n/a	0
735.1580000000	n/a	735158	FrequentFixedSOA	1633	n/a	n/a	1
736.7910000000	n/a	736791	FrequentFixedSOA	1633	n/a	n/a	1
738.4240000000	n/a	738424	FrequentFixedSOA	1633	n/a	n/a	1
740.0580000000	n/a	740058	GoFixedSOA	458	n/a	n/a	1
741.6910000000	n/a	741691	FrequentFixedSOA	1633	n/a	n/a	1
743.3240000000	n/a	743324	FrequentFixedSOA	1633	n/a	n/a	1
744.9580000000	n/a	744958	NovelFixedSOA	1633	n/a	n/a	1
746.5910000000	n/a	746591	FrequentFixedSOA	1633	n/a	n/a	1
748.2240000000	n/a	748224	GoFixedSOA	339	n/a	n/a	1
749.8580000000	n/a	749858	FrequentFixedSOA	1633	n/a	n/a	1
751.4910000000	n/a	751491	FrequentFixedSOA	1633	n/a	n/a	1
753.1240000000	n/a	753124	FrequentFixedSOA	1633	n/a	n/a	1
754.7580000000	n/a	754758	FrequentFixedSOA	1633	n/a	n/a	1
756.3910000000	n/a	756391	FrequentFixedSOA	1633	n/a	n/a	1
758.0240000000	n/a	758024	FrequentFixedSOA	1633	n/a	n/a	1
759.6580000000	n/a	759658	NovelFixedSOA	1633	n/a	n/a	1
761.2910000000	n/a	761291	FrequentFixedSOA	1633	n/a	n/a	1
762.9240000000	n/a	762924	FrequentFixedSOA	1633	n/a	n/a	1
764.5580000000	n/a	764558	FrequentFixedSOA	1633	n/a	n/a	1
766.1910000000	n/a	766191	GoFixedSOA	376	n/a	n/a	1
767.8240000000	n/a	767824	FrequentFixedSOA	1633	n/a	n/a	1
769.4580000000	n/a	769458	FrequentFixedSOA	1633	n/a	n/a	1
771.0910000000	n/a	771091	FrequentFixedSOA	1633	n/a	n/a	1
772.7240000000	n/a	772724	FrequentFixedSOA	1633	n/a	n/a	1
774.3580000000	n/a	774358	NovelFixedSOA	1633	n/a	n/a	1
775.9910000000	n/a	775991	FrequentFixedSOA	1633	n/a	n/a	1
777.6240000000	n/a	777624	FrequentFixedSOA	1633	n/a	n/a	1
779.2580000000	n/a	779258	NovelFixedSOA	1633	n/a	n/a	1
780.8910000000	n/a	780891	FrequentFixedSOA	1633	n/a	n/a	1
782.5240000000	n/a	782524	NovelFixedSOA	1633	n/a	n/a	1
784.1580000000	n/a	784158	FrequentFixedSOA	1633	n/a	n/a	1
785.7910000000	n/a	785791	FrequentFixedSOA	1633	n/a	n/a	1
787.4240000000	n/a	787424	FrequentFixedSOA	1633	n/a	n/a	1
789.0580000000	n/a	789058	FrequentFixedSOA	1633	n/a	n/a	1
790.6910000000	n/a	790691	FrequentFixedSOA	1633	n/a	n/a	1
792.3240000000	n/a	792324	FrequentFixedSOA	1633	n/a	n/a	1
793.9580000000	n/a	793958	FrequentFixedSOA	1633	n/a	n/a	1
795.5910000000	n/a	795591	GoFixedSOA	420	n/a	n/a	1
797.2240000000	n/a	797224	FrequentFixedSOA	1633	n/a	n/a	1
798.8570000000	n/a	798857	GoFixedSOA	480	n/a	n/a	1
800.4910000000	n/a	800491	FrequentFixedSOA	1633	n/a	n/a	1
802.1240000000	n/a	802124	FrequentFixedSOA	1633	n/a	n/a	1
803.7570000000	n/a	803757	NovelFixedSOA	1633	n/a	n/a	1
805.3910000000	n/a	805391	FrequentFixedSOA	1633	n/a	n/a	1
807.0240000000	n/a	807024	GoVariableSOA	383	n/a	n/a	1
808.5570000000	n/a	808557	FrequentVariableSOA	1550	n/a	n/a	1
810.1070000000	n/a	810107	FrequentVariableSOA	1616	n/a	n/a	1
811.7240000000	n/a	811724	FrequentVariableSOA	1516	n/a	n/a	1
813.2410000000	n/a	813241	GoVariableSOA	1516	n/a	n/a	0
814.7570000000	n/a	814757	FrequentVariableSOA	1766	n/a	n/a	1
816.5240000000	n/a	816524	FrequentVariableSOA	1700	n/a	n/a	1
818.2240000000	n/a	818224	FrequentVariableSOA	1750	n/a	n/a	1
819.9740000000	n/a	819974	FrequentVariableSOA	1666	n/a	n/a	1
821.6410000000	n/a	821641	GoVariableSOA	348	n/a	n/a	1
823.1740000000	n/a	823174	FrequentVariableSOA	1600	n/a	n/a	1
824.7740000000	n/a	824774	FrequentVariableSOA	1516	n/a	n/a	1
826.2910000000	n/a	826291	NovelVariableSOA	1733	n/a	n/a	1
828.0240000000	n/a	828024	FrequentVariableSOA	1716	n/a	n/a	1
829.7410000000	n/a	829741	FrequentVariableSOA	1783	n/a	n/a	1
831.5240000000	n/a	831524	GoVariableSOA	1583	n/a	n/a	0
833.1070000000	n/a	833107	FrequentVariableSOA	1716	n/a	n/a	1
834.8240000000	n/a	834824	FrequentVariableSOA	1633	n/a	n/a	1
836.4570000000	n/a	836457	FrequentVariableSOA	1783	n/a	n/a	1
838.2410000000	n/a	838241	NovelVariableSOA	1516	n/a	n/a	1
839.7570000000	n/a	839757	FrequentVariableSOA	1616	n/a	n/a	1
841.3740000000	n/a	841374	NovelVariableSOA	1766	n/a	n/a	1
843.1410000000	n/a	843141	FrequentVariableSOA	1783	n/a	n/a	1
844.9240000000	n/a	844924	FrequentVariableSOA	1516	n/a	n/a	1
846.4410000000	n/a	846441	FrequentVariableSOA	1600	n/a	n/a	1
848.0410000000	n/a	848041	GoVariableSOA	1600	n/a	n/a	0
849.6410000000	n/a	849641	FrequentVariableSOA	1650	n/a	n/a	1
851.2910000000	n/a	851291	FrequentVariableSOA	1700	n/a	n/a	1
852.9910000000	n/a	852991	FrequentVariableSOA	1683	n/a	n/a	1
854.6740000000	n/a	854674	GoVariableSOA	1516	n/a	n/a	0
856.1910000000	n/a	856191	FrequentVariableSOA	1500	n/a	n/a	1
857.6910000000	n/a	857691	FrequentVariableSOA	1500	n/a	n/a	1
859.1910000000	n/a	859191	NovelVariableSOA	1683	n/a	n/a	1
860.8740000000	n/a	860874	FrequentVariableSOA	1583	n/a	n/a	1
862.4570000000	n/a	862457	GoVariableSOA	574	n/a	n/a	1
864.0240000000	n/a	864024	FrequentVariableSOA	1783	n/a	n/a	1
865.8070000000	n/a	865807	FrequentVariableSOA	1700	n/a	n/a	1
867.5070000000	n/a	867507	FrequentVariableSOA	1800	n/a	n/a	1
869.3070000000	n/a	869307	FrequentVariableSOA	1516	n/a	n/a	1
870.8240000000	n/a	870824	FrequentVariableSOA	1600	n/a	n/a	1
872.4240000000	n/a	872424	FrequentVariableSOA	1633	n/a	n/a	1
874.0570000000	n/a	874057	NovelVariableSOA	1733	n/a	n/a	1
875.7910000000	n/a	875791	FrequentVariableSOA	1616	n/a	n/a	1
877.4070000000	n/a	877407	FrequentVariableSOA	1750	n/a	n/a	1
879.1570000000	n/a	879157	FrequentVariableSOA	1700	n/a	n/a	1
880.8570000000	n/a	880857	GoVariableSOA	486	n/a	n/a	1
882.5910000000	n/a	882591	FrequentVariableSOA	1783	n/a	n/a	1
884.3740000000	n/a	884374	FrequentVariableSOA	1783	n/a	n/a	1
886.1570000000	n/a	886157	FrequentVariableSOA	1666	n/a	n/a	1
887.8240000000	n/a	887824	FrequentVariableSOA	1600	n/a	n/a	1
889.4240000000	n/a	889424	NovelVariableSOA	1666	n/a	n/a	1
891.0910000000	n/a	891091	FrequentVariableSOA	1566	n/a	n/a	1
892.6570000000	n/a	892657	FrequentVariableSOA	1600	n/a	n/a	1
894.2570000000	n/a	894257	NovelVariableSOA	1650	n/a	n/a	1
895.9070000000	n/a	895907	FrequentVariableSOA	1700	n/a	n/a	1
897.6070000000	n/a	897607	NovelVariableSOA	1550	n/a	n/a	1
899.1570000000	n/a	899157	FrequentVariableSOA	1683	n/a	n/a	1
900.8410000000	n/a	900841	FrequentVariableSOA	1533	n/a	n/a	1
902.3740000000	n/a	902374	FrequentVariableSOA	1583	n/a	n/a	1
903.9570000000	n/a	903957	FrequentVariableSOA	1700	n/a	n/a	1
905.6570000000	n/a	905657	FrequentVariableSOA	1800	n/a	n/a	1
907.4570000000	n/a	907457	FrequentVariableSOA	1533	n/a	n/a	1
908.9910000000	n/a	908991	FrequentVariableSOA	1766	n/a	n/a	1
910.7570000000	n/a	910757	GoVariableSOA	349	n/a	n/a	1
912.3570000000	n/a	912357	FrequentVariableSOA	1766	n/a	n/a	1
914.1240000000	n/a	914124	GoVariableSOA	1566	n/a	n/a	0
915.6910000000	n/a	915691	FrequentVariableSOA	1583	n/a	n/a	1
917.2740000000	n/a	917274	FrequentVariableSOA	1783	n/a	n/a	1
919.0570000000	n/a	919057	NovelVariableSOA	1600	n/a	n/a	1
920.6570000000	n/a	920657	FrequentVariableSOA	1533	n/a	n/a	1
