onset	duration	sample	trial_type	response_time	stim_file	value	correct
3.1960000000	n/a	3196	FrequentFixedSOA	1633	n/a	n/a	1
4.8290000000	n/a	4829	FrequentFixedSOA	1633	n/a	n/a	1
6.4620000000	n/a	6462	FrequentFixedSOA	1633	n/a	n/a	1
8.0950000000	n/a	8095	FrequentFixedSOA	1633	n/a	n/a	1
9.7290000000	n/a	9729	FrequentFixedSOA	1633	n/a	n/a	1
11.3620000000	n/a	11362	FrequentFixedSOA	1633	n/a	n/a	1
12.9950000000	n/a	12995	FrequentFixedSOA	1633	n/a	n/a	1
14.6290000000	n/a	14629	FrequentFixedSOA	1633	n/a	n/a	1
16.2620000000	n/a	16262	FrequentFixedSOA	1633	n/a	n/a	1
17.8950000000	n/a	17895	FrequentFixedSOA	1633	n/a	n/a	1
19.5290000000	n/a	19529	NovelFixedSOA	1633	n/a	n/a	1
21.1620000000	n/a	21162	FrequentFixedSOA	1633	n/a	n/a	1
22.7950000000	n/a	22795	GoFixedSOA	475	n/a	n/a	1
24.4290000000	n/a	24429	FrequentFixedSOA	1633	n/a	n/a	1
26.0620000000	n/a	26062	FrequentFixedSOA	1633	n/a	n/a	1
27.6950000000	n/a	27695	FrequentFixedSOA	1633	n/a	n/a	1
29.3290000000	n/a	29329	GoFixedSOA	361	n/a	n/a	1
30.9620000000	n/a	30962	FrequentFixedSOA	1633	n/a	n/a	1
32.5950000000	n/a	32595	FrequentFixedSOA	1633	n/a	n/a	1
34.2290000000	n/a	34229	FrequentFixedSOA	1633	n/a	n/a	1
35.8620000000	n/a	35862	NovelFixedSOA	1633	n/a	n/a	1
37.4950000000	n/a	37495	FrequentFixedSOA	1633	n/a	n/a	1
39.1290000000	n/a	39129	FrequentFixedSOA	1633	n/a	n/a	1
40.7620000000	n/a	40762	FrequentFixedSOA	1633	n/a	n/a	1
42.3950000000	n/a	42395	GoFixedSOA	285	n/a	n/a	1
44.0290000000	n/a	44029	FrequentFixedSOA	1633	n/a	n/a	1
45.6620000000	n/a	45662	NovelFixedSOA	1633	n/a	n/a	1
47.2950000000	n/a	47295	FrequentFixedSOA	1633	n/a	n/a	1
48.9290000000	n/a	48929	FrequentFixedSOA	1633	n/a	n/a	1
50.5620000000	n/a	50562	FrequentFixedSOA	1633	n/a	n/a	1
52.1950000000	n/a	52195	GoFixedSOA	283	n/a	n/a	1
53.8290000000	n/a	53829	FrequentFixedSOA	1633	n/a	n/a	1
55.4620000000	n/a	55462	GoFixedSOA	384	n/a	n/a	1
57.0950000000	n/a	57095	FrequentFixedSOA	1633	n/a	n/a	1
58.7290000000	n/a	58729	FrequentFixedSOA	1633	n/a	n/a	1
60.3620000000	n/a	60362	GoFixedSOA	256	n/a	n/a	1
61.9950000000	n/a	61995	FrequentFixedSOA	1633	n/a	n/a	1
63.6290000000	n/a	63629	FrequentFixedSOA	1633	n/a	n/a	1
65.2620000000	n/a	65262	FrequentFixedSOA	1633	n/a	n/a	1
66.8950000000	n/a	66895	FrequentFixedSOA	1633	n/a	n/a	1
68.5290000000	n/a	68529	NovelFixedSOA	1633	n/a	n/a	1
70.1620000000	n/a	70162	FrequentFixedSOA	1633	n/a	n/a	1
71.7950000000	n/a	71795	NovelFixedSOA	1633	n/a	n/a	1
73.4290000000	n/a	73429	FrequentFixedSOA	1633	n/a	n/a	1
75.0620000000	n/a	75062	FrequentFixedSOA	1633	n/a	n/a	1
76.6950000000	n/a	76695	GoFixedSOA	266	n/a	n/a	1
78.3290000000	n/a	78329	FrequentFixedSOA	1633	n/a	n/a	1
79.9620000000	n/a	79962	FrequentFixedSOA	1633	n/a	n/a	1
81.5950000000	n/a	81595	FrequentFixedSOA	1633	n/a	n/a	1
83.2290000000	n/a	83229	FrequentFixedSOA	1633	n/a	n/a	1
84.8620000000	n/a	84862	NovelFixedSOA	1633	n/a	n/a	1
86.4950000000	n/a	86495	FrequentFixedSOA	1633	n/a	n/a	1
88.1290000000	n/a	88129	FrequentFixedSOA	1633	n/a	n/a	1
89.7620000000	n/a	89762	FrequentFixedSOA	1633	n/a	n/a	1
91.3950000000	n/a	91395	FrequentFixedSOA	1633	n/a	n/a	1
93.0290000000	n/a	93029	GoFixedSOA	340	n/a	n/a	1
94.6620000000	n/a	94662	FrequentFixedSOA	1633	n/a	n/a	1
96.2950000000	n/a	96295	FrequentFixedSOA	1633	n/a	n/a	1
97.9290000000	n/a	97929	NovelFixedSOA	1633	n/a	n/a	1
99.5620000000	n/a	99562	FrequentFixedSOA	1633	n/a	n/a	1
101.1950000000	n/a	101195	FrequentFixedSOA	1633	n/a	n/a	1
102.8290000000	n/a	102829	GoFixedSOA	300	n/a	n/a	1
104.4620000000	n/a	104462	FrequentFixedSOA	1633	n/a	n/a	1
106.0950000000	n/a	106095	FrequentFixedSOA	1633	n/a	n/a	1
107.7290000000	n/a	107729	FrequentFixedSOA	1633	n/a	n/a	1
109.3620000000	n/a	109362	FrequentFixedSOA	1633	n/a	n/a	1
110.9950000000	n/a	110995	NovelFixedSOA	1633	n/a	n/a	1
112.6290000000	n/a	112629	FrequentFixedSOA	1633	n/a	n/a	1
114.2620000000	n/a	114262	FrequentFixedSOA	1633	n/a	n/a	1
115.8950000000	n/a	115895	GoFixedSOA	297	n/a	n/a	1
117.5280000000	n/a	117528	FrequentVariableSOA	1700	n/a	n/a	1
119.2280000000	n/a	119228	FrequentVariableSOA	1700	n/a	n/a	1
120.9280000000	n/a	120928	FrequentVariableSOA	1583	n/a	n/a	1
122.5120000000	n/a	122512	FrequentVariableSOA	1583	n/a	n/a	1
124.0950000000	n/a	124095	FrequentVariableSOA	1700	n/a	n/a	1
125.7950000000	n/a	125795	FrequentVariableSOA	1516	n/a	n/a	1
127.3120000000	n/a	127312	FrequentVariableSOA	1500	n/a	n/a	1
128.8120000000	n/a	128812	FrequentVariableSOA	1733	n/a	n/a	1
130.5450000000	n/a	130545	FrequentVariableSOA	1633	n/a	n/a	1
132.1780000000	n/a	132178	FrequentVariableSOA	1716	n/a	n/a	1
133.8950000000	n/a	133895	NovelVariableSOA	1716	n/a	n/a	1
135.6120000000	n/a	135612	FrequentVariableSOA	1616	n/a	n/a	1
137.2280000000	n/a	137228	GoVariableSOA	404	n/a	n/a	1
138.9120000000	n/a	138912	FrequentVariableSOA	1700	n/a	n/a	1
140.6120000000	n/a	140612	FrequentVariableSOA	1616	n/a	n/a	1
142.2280000000	n/a	142228	FrequentVariableSOA	1550	n/a	n/a	1
143.7780000000	n/a	143778	GoVariableSOA	348	n/a	n/a	1
145.5450000000	n/a	145545	FrequentVariableSOA	1666	n/a	n/a	1
147.2120000000	n/a	147212	FrequentVariableSOA	1766	n/a	n/a	1
148.9780000000	n/a	148978	FrequentVariableSOA	1616	n/a	n/a	1
150.5950000000	n/a	150595	NovelVariableSOA	1783	n/a	n/a	1
152.3780000000	n/a	152378	FrequentVariableSOA	1750	n/a	n/a	1
154.1280000000	n/a	154128	FrequentVariableSOA	1666	n/a	n/a	1
155.7950000000	n/a	155795	FrequentVariableSOA	1616	n/a	n/a	1
157.4120000000	n/a	157412	GoVariableSOA	297	n/a	n/a	1
159.1950000000	n/a	159195	FrequentVariableSOA	1550	n/a	n/a	1
160.7450000000	n/a	160745	NovelVariableSOA	1600	n/a	n/a	1
162.3450000000	n/a	162345	FrequentVariableSOA	1650	n/a	n/a	1
163.9950000000	n/a	163995	FrequentVariableSOA	1600	n/a	n/a	1
165.5950000000	n/a	165595	FrequentVariableSOA	1650	n/a	n/a	1
167.2450000000	n/a	167245	GoVariableSOA	279	n/a	n/a	1
168.9280000000	n/a	168928	FrequentVariableSOA	1566	n/a	n/a	1
170.4950000000	n/a	170495	GoVariableSOA	353	n/a	n/a	1
172.2120000000	n/a	172212	FrequentVariableSOA	1766	n/a	n/a	1
173.9780000000	n/a	173978	FrequentVariableSOA	1500	n/a	n/a	1
175.4780000000	n/a	175478	GoVariableSOA	319	n/a	n/a	1
177.1620000000	n/a	177162	FrequentVariableSOA	1766	n/a	n/a	1
178.9280000000	n/a	178928	FrequentVariableSOA	1766	n/a	n/a	1
180.6950000000	n/a	180695	FrequentVariableSOA	1683	n/a	n/a	1
182.3780000000	n/a	182378	FrequentVariableSOA	1600	n/a	n/a	1
183.9780000000	n/a	183978	NovelVariableSOA	1716	n/a	n/a	1
185.6950000000	n/a	185695	FrequentVariableSOA	1700	n/a	n/a	1
187.3950000000	n/a	187395	NovelVariableSOA	1766	n/a	n/a	1
189.1620000000	n/a	189162	FrequentVariableSOA	1733	n/a	n/a	1
190.8950000000	n/a	190895	FrequentVariableSOA	1750	n/a	n/a	1
192.6450000000	n/a	192645	GoVariableSOA	369	n/a	n/a	1
194.3450000000	n/a	194345	FrequentVariableSOA	1516	n/a	n/a	1
195.8620000000	n/a	195862	FrequentVariableSOA	1750	n/a	n/a	1
197.6120000000	n/a	197612	FrequentVariableSOA	1650	n/a	n/a	1
199.2620000000	n/a	199262	FrequentVariableSOA	1733	n/a	n/a	1
200.9950000000	n/a	200995	NovelVariableSOA	1616	n/a	n/a	1
202.6120000000	n/a	202612	FrequentVariableSOA	1650	n/a	n/a	1
204.2620000000	n/a	204262	FrequentVariableSOA	1600	n/a	n/a	1
205.8620000000	n/a	205862	FrequentVariableSOA	1683	n/a	n/a	1
207.5450000000	n/a	207545	FrequentVariableSOA	1800	n/a	n/a	1
209.3450000000	n/a	209345	GoVariableSOA	322	n/a	n/a	1
211.0120000000	n/a	211012	FrequentVariableSOA	1583	n/a	n/a	1
212.5950000000	n/a	212595	FrequentVariableSOA	1616	n/a	n/a	1
214.2120000000	n/a	214212	NovelVariableSOA	1616	n/a	n/a	1
215.8280000000	n/a	215828	FrequentVariableSOA	1700	n/a	n/a	1
217.5280000000	n/a	217528	FrequentVariableSOA	1733	n/a	n/a	1
219.2620000000	n/a	219262	GoVariableSOA	350	n/a	n/a	1
220.9450000000	n/a	220945	FrequentVariableSOA	1750	n/a	n/a	1
222.6950000000	n/a	222695	FrequentVariableSOA	1750	n/a	n/a	1
224.4450000000	n/a	224445	FrequentVariableSOA	1716	n/a	n/a	1
226.1620000000	n/a	226162	FrequentVariableSOA	1566	n/a	n/a	1
227.7280000000	n/a	227728	NovelVariableSOA	1683	n/a	n/a	1
229.4120000000	n/a	229412	FrequentVariableSOA	1733	n/a	n/a	1
231.1450000000	n/a	231145	FrequentVariableSOA	1650	n/a	n/a	1
232.7950000000	n/a	232795	GoVariableSOA	363	n/a	n/a	1
234.3280000000	n/a	234328	FrequentFixedSOA	1633	n/a	n/a	1
235.9620000000	n/a	235962	FrequentFixedSOA	1633	n/a	n/a	1
237.5950000000	n/a	237595	FrequentFixedSOA	1633	n/a	n/a	1
239.2280000000	n/a	239228	GoFixedSOA	348	n/a	n/a	1
240.8620000000	n/a	240862	FrequentFixedSOA	1633	n/a	n/a	1
242.4950000000	n/a	242495	FrequentFixedSOA	1633	n/a	n/a	1
244.1280000000	n/a	244128	FrequentFixedSOA	1633	n/a	n/a	1
245.7620000000	n/a	245762	GoFixedSOA	295	n/a	n/a	1
247.3950000000	n/a	247395	FrequentFixedSOA	1633	n/a	n/a	1
249.0280000000	n/a	249028	FrequentFixedSOA	1633	n/a	n/a	1
250.6620000000	n/a	250662	FrequentFixedSOA	1633	n/a	n/a	1
252.2950000000	n/a	252295	NovelFixedSOA	1633	n/a	n/a	1
253.9280000000	n/a	253928	FrequentFixedSOA	1633	n/a	n/a	1
255.5620000000	n/a	255562	NovelFixedSOA	1633	n/a	n/a	1
257.1950000000	n/a	257195	FrequentFixedSOA	1633	n/a	n/a	1
258.8280000000	n/a	258828	FrequentFixedSOA	1633	n/a	n/a	1
260.4620000000	n/a	260462	NovelFixedSOA	1633	n/a	n/a	1
262.0950000000	n/a	262095	FrequentFixedSOA	1633	n/a	n/a	1
263.7280000000	n/a	263728	FrequentFixedSOA	1633	n/a	n/a	1
265.3620000000	n/a	265362	FrequentFixedSOA	1633	n/a	n/a	1
266.9950000000	n/a	266995	FrequentFixedSOA	1633	n/a	n/a	1
268.6280000000	n/a	268628	FrequentFixedSOA	1633	n/a	n/a	1
270.2620000000	n/a	270262	NovelFixedSOA	1633	n/a	n/a	1
271.8950000000	n/a	271895	FrequentFixedSOA	1633	n/a	n/a	1
273.5280000000	n/a	273528	FrequentFixedSOA	1633	n/a	n/a	1
275.1620000000	n/a	275162	FrequentFixedSOA	1633	n/a	n/a	1
276.7950000000	n/a	276795	FrequentFixedSOA	1633	n/a	n/a	1
278.4280000000	n/a	278428	FrequentFixedSOA	1633	n/a	n/a	1
280.0620000000	n/a	280062	GoFixedSOA	274	n/a	n/a	1
281.6950000000	n/a	281695	FrequentFixedSOA	1633	n/a	n/a	1
283.3280000000	n/a	283328	FrequentFixedSOA	1633	n/a	n/a	1
284.9620000000	n/a	284962	GoFixedSOA	482	n/a	n/a	1
286.5950000000	n/a	286595	FrequentFixedSOA	1633	n/a	n/a	1
288.2280000000	n/a	288228	NovelFixedSOA	1633	n/a	n/a	1
289.8620000000	n/a	289862	FrequentFixedSOA	1633	n/a	n/a	1
291.4950000000	n/a	291495	GoFixedSOA	324	n/a	n/a	1
293.1280000000	n/a	293128	FrequentFixedSOA	1633	n/a	n/a	1
294.7620000000	n/a	294762	GoFixedSOA	316	n/a	n/a	1
296.3950000000	n/a	296395	FrequentFixedSOA	1633	n/a	n/a	1
298.0280000000	n/a	298028	FrequentFixedSOA	1633	n/a	n/a	1
299.6620000000	n/a	299662	FrequentFixedSOA	1633	n/a	n/a	1
301.2950000000	n/a	301295	FrequentFixedSOA	1633	n/a	n/a	1
302.9280000000	n/a	302928	GoFixedSOA	230	n/a	n/a	1
304.5620000000	n/a	304562	FrequentFixedSOA	1633	n/a	n/a	1
306.1950000000	n/a	306195	FrequentFixedSOA	1633	n/a	n/a	1
307.8280000000	n/a	307828	FrequentFixedSOA	1633	n/a	n/a	1
309.4620000000	n/a	309462	NovelFixedSOA	1633	n/a	n/a	1
311.0950000000	n/a	311095	FrequentFixedSOA	1633	n/a	n/a	1
312.7280000000	n/a	312728	FrequentFixedSOA	1633	n/a	n/a	1
314.3620000000	n/a	314362	FrequentFixedSOA	1633	n/a	n/a	1
315.9950000000	n/a	315995	FrequentFixedSOA	1633	n/a	n/a	1
317.6280000000	n/a	317628	NovelFixedSOA	1633	n/a	n/a	1
319.2620000000	n/a	319262	FrequentFixedSOA	1633	n/a	n/a	1
320.8950000000	n/a	320895	FrequentFixedSOA	1633	n/a	n/a	1
322.5280000000	n/a	322528	FrequentFixedSOA	1633	n/a	n/a	1
324.1620000000	n/a	324162	FrequentFixedSOA	1633	n/a	n/a	1
325.7950000000	n/a	325795	NovelFixedSOA	1633	n/a	n/a	1
327.4280000000	n/a	327428	FrequentFixedSOA	1633	n/a	n/a	1
329.0620000000	n/a	329062	FrequentFixedSOA	1633	n/a	n/a	1
330.6950000000	n/a	330695	GoFixedSOA	282	n/a	n/a	1
332.3280000000	n/a	332328	FrequentFixedSOA	1633	n/a	n/a	1
333.9620000000	n/a	333962	FrequentFixedSOA	1633	n/a	n/a	1
335.5950000000	n/a	335595	FrequentFixedSOA	1633	n/a	n/a	1
337.2280000000	n/a	337228	FrequentFixedSOA	1633	n/a	n/a	1
338.8620000000	n/a	338862	NovelFixedSOA	1633	n/a	n/a	1
340.4950000000	n/a	340495	FrequentFixedSOA	1633	n/a	n/a	1
342.1280000000	n/a	342128	FrequentFixedSOA	1633	n/a	n/a	1
343.7610000000	n/a	343761	FrequentFixedSOA	1633	n/a	n/a	1
345.3950000000	n/a	345395	FrequentFixedSOA	1633	n/a	n/a	1
347.0280000000	n/a	347028	FrequentFixedSOA	1633	n/a	n/a	1
348.6610000000	n/a	348661	FrequentVariableSOA	1750	n/a	n/a	1
350.4110000000	n/a	350411	FrequentVariableSOA	1616	n/a	n/a	1
352.0280000000	n/a	352028	FrequentVariableSOA	1533	n/a	n/a	1
353.5610000000	n/a	353561	GoVariableSOA	341	n/a	n/a	1
355.2950000000	n/a	355295	FrequentVariableSOA	1566	n/a	n/a	1
356.8610000000	n/a	356861	FrequentVariableSOA	1566	n/a	n/a	1
358.4280000000	n/a	358428	FrequentVariableSOA	1616	n/a	n/a	1
360.0450000000	n/a	360045	GoVariableSOA	400	n/a	n/a	1
361.6950000000	n/a	361695	FrequentVariableSOA	1800	n/a	n/a	1
363.4950000000	n/a	363495	FrequentVariableSOA	1783	n/a	n/a	1
365.2780000000	n/a	365278	FrequentVariableSOA	1533	n/a	n/a	1
366.8110000000	n/a	366811	NovelVariableSOA	1566	n/a	n/a	1
368.3780000000	n/a	368378	FrequentVariableSOA	1600	n/a	n/a	1
369.9780000000	n/a	369978	NovelVariableSOA	1800	n/a	n/a	1
371.7780000000	n/a	371778	FrequentVariableSOA	1533	n/a	n/a	1
373.3110000000	n/a	373311	FrequentVariableSOA	1500	n/a	n/a	1
374.8110000000	n/a	374811	NovelVariableSOA	1766	n/a	n/a	1
376.5780000000	n/a	376578	FrequentVariableSOA	1666	n/a	n/a	1
378.2450000000	n/a	378245	FrequentVariableSOA	1533	n/a	n/a	1
379.7780000000	n/a	379778	FrequentVariableSOA	1666	n/a	n/a	1
381.4450000000	n/a	381445	FrequentVariableSOA	1666	n/a	n/a	1
383.1110000000	n/a	383111	FrequentVariableSOA	1733	n/a	n/a	1
384.8450000000	n/a	384845	NovelVariableSOA	1650	n/a	n/a	1
386.4950000000	n/a	386495	FrequentVariableSOA	1766	n/a	n/a	1
388.2610000000	n/a	388261	FrequentVariableSOA	1750	n/a	n/a	1
390.0110000000	n/a	390011	FrequentVariableSOA	1650	n/a	n/a	1
391.6610000000	n/a	391661	FrequentVariableSOA	1700	n/a	n/a	1
393.3610000000	n/a	393361	FrequentVariableSOA	1800	n/a	n/a	1
395.1610000000	n/a	395161	GoVariableSOA	351	n/a	n/a	1
396.7610000000	n/a	396761	FrequentVariableSOA	1550	n/a	n/a	1
398.3110000000	n/a	398311	FrequentVariableSOA	1650	n/a	n/a	1
399.9610000000	n/a	399961	GoVariableSOA	354	n/a	n/a	1
401.4610000000	n/a	401461	FrequentVariableSOA	1716	n/a	n/a	1
403.1780000000	n/a	403178	NovelVariableSOA	1683	n/a	n/a	1
404.8610000000	n/a	404861	FrequentVariableSOA	1683	n/a	n/a	1
406.5450000000	n/a	406545	GoVariableSOA	259	n/a	n/a	1
408.1110000000	n/a	408111	FrequentVariableSOA	1583	n/a	n/a	1
409.6950000000	n/a	409695	GoVariableSOA	289	n/a	n/a	1
411.2610000000	n/a	411261	FrequentVariableSOA	1650	n/a	n/a	1
412.9110000000	n/a	412911	FrequentVariableSOA	1533	n/a	n/a	1
414.4450000000	n/a	414445	FrequentVariableSOA	1750	n/a	n/a	1
416.1950000000	n/a	416195	FrequentVariableSOA	1750	n/a	n/a	1
417.9450000000	n/a	417945	GoVariableSOA	245	n/a	n/a	1
419.7450000000	n/a	419745	FrequentVariableSOA	1533	n/a	n/a	1
421.2780000000	n/a	421278	FrequentVariableSOA	1750	n/a	n/a	1
423.0280000000	n/a	423028	FrequentVariableSOA	1616	n/a	n/a	1
424.6450000000	n/a	424645	NovelVariableSOA	1716	n/a	n/a	1
426.3610000000	n/a	426361	FrequentVariableSOA	1683	n/a	n/a	1
428.0450000000	n/a	428045	FrequentVariableSOA	1700	n/a	n/a	1
429.7450000000	n/a	429745	FrequentVariableSOA	1666	n/a	n/a	1
431.4110000000	n/a	431411	FrequentVariableSOA	1616	n/a	n/a	1
433.0280000000	n/a	433028	NovelVariableSOA	1650	n/a	n/a	1
434.6780000000	n/a	434678	FrequentVariableSOA	1516	n/a	n/a	1
436.1950000000	n/a	436195	FrequentVariableSOA	1766	n/a	n/a	1
437.9610000000	n/a	437961	FrequentVariableSOA	1716	n/a	n/a	1
439.6780000000	n/a	439678	FrequentVariableSOA	1533	n/a	n/a	1
441.2110000000	n/a	441211	NovelVariableSOA	1783	n/a	n/a	1
442.9950000000	n/a	442995	FrequentVariableSOA	1600	n/a	n/a	1
444.5950000000	n/a	444595	FrequentVariableSOA	1550	n/a	n/a	1
446.1450000000	n/a	446145	GoVariableSOA	266	n/a	n/a	1
447.8110000000	n/a	447811	FrequentVariableSOA	1616	n/a	n/a	1
449.4280000000	n/a	449428	FrequentVariableSOA	1666	n/a	n/a	1
451.0950000000	n/a	451095	FrequentVariableSOA	1766	n/a	n/a	1
452.8610000000	n/a	452861	FrequentVariableSOA	1666	n/a	n/a	1
454.5280000000	n/a	454528	NovelVariableSOA	1783	n/a	n/a	1
456.3110000000	n/a	456311	FrequentVariableSOA	1666	n/a	n/a	1
457.9780000000	n/a	457978	FrequentVariableSOA	1783	n/a	n/a	1
459.7610000000	n/a	459761	FrequentVariableSOA	1566	n/a	n/a	1
461.3280000000	n/a	461328	FrequentVariableSOA	1683	n/a	n/a	1
463.0110000000	n/a	463011	FrequentVariableSOA	1583	n/a	n/a	1
464.5950000000	n/a	464595	GoFixedSOA	315	n/a	n/a	1
466.2280000000	n/a	466228	FrequentFixedSOA	1633	n/a	n/a	1
467.8610000000	n/a	467861	FrequentFixedSOA	1633	n/a	n/a	1
469.4950000000	n/a	469495	FrequentFixedSOA	1633	n/a	n/a	1
471.1280000000	n/a	471128	FrequentFixedSOA	1633	n/a	n/a	1
472.7610000000	n/a	472761	FrequentFixedSOA	1633	n/a	n/a	1
474.3950000000	n/a	474395	FrequentFixedSOA	1633	n/a	n/a	1
476.0280000000	n/a	476028	NovelFixedSOA	1633	n/a	n/a	1
477.6610000000	n/a	477661	FrequentFixedSOA	1633	n/a	n/a	1
479.2950000000	n/a	479295	FrequentFixedSOA	1633	n/a	n/a	1
480.9280000000	n/a	480928	FrequentFixedSOA	1633	n/a	n/a	1
482.5610000000	n/a	482561	NovelFixedSOA	1633	n/a	n/a	1
484.1950000000	n/a	484195	FrequentFixedSOA	1633	n/a	n/a	1
485.8280000000	n/a	485828	GoFixedSOA	335	n/a	n/a	1
487.4610000000	n/a	487461	FrequentFixedSOA	1633	n/a	n/a	1
489.0950000000	n/a	489095	FrequentFixedSOA	1633	n/a	n/a	1
490.7280000000	n/a	490728	GoFixedSOA	349	n/a	n/a	1
492.3610000000	n/a	492361	FrequentFixedSOA	1633	n/a	n/a	1
493.9950000000	n/a	493995	NovelFixedSOA	1633	n/a	n/a	1
495.6280000000	n/a	495628	FrequentFixedSOA	1633	n/a	n/a	1
497.2610000000	n/a	497261	FrequentFixedSOA	1633	n/a	n/a	1
498.8950000000	n/a	498895	FrequentFixedSOA	1633	n/a	n/a	1
500.5280000000	n/a	500528	FrequentFixedSOA	1633	n/a	n/a	1
502.1610000000	n/a	502161	FrequentFixedSOA	1633	n/a	n/a	1
503.7950000000	n/a	503795	GoFixedSOA	355	n/a	n/a	1
505.4280000000	n/a	505428	FrequentFixedSOA	1633	n/a	n/a	1
507.0610000000	n/a	507061	FrequentFixedSOA	1633	n/a	n/a	1
508.6950000000	n/a	508695	NovelFixedSOA	1633	n/a	n/a	1
510.3280000000	n/a	510328	FrequentFixedSOA	1633	n/a	n/a	1
511.9610000000	n/a	511961	FrequentFixedSOA	1633	n/a	n/a	1
513.5950000000	n/a	513595	FrequentFixedSOA	1633	n/a	n/a	1
515.2280000000	n/a	515228	FrequentFixedSOA	1633	n/a	n/a	1
516.8610000000	n/a	516861	FrequentFixedSOA	1633	n/a	n/a	1
518.4950000000	n/a	518495	NovelFixedSOA	1633	n/a	n/a	1
520.1280000000	n/a	520128	FrequentFixedSOA	1633	n/a	n/a	1
521.7610000000	n/a	521761	FrequentFixedSOA	1633	n/a	n/a	1
523.3950000000	n/a	523395	FrequentFixedSOA	1633	n/a	n/a	1
525.0280000000	n/a	525028	FrequentFixedSOA	1633	n/a	n/a	1
526.6610000000	n/a	526661	GoFixedSOA	369	n/a	n/a	1
528.2950000000	n/a	528295	FrequentFixedSOA	1633	n/a	n/a	1
529.9280000000	n/a	529928	FrequentFixedSOA	1633	n/a	n/a	1
531.5610000000	n/a	531561	NovelFixedSOA	1633	n/a	n/a	1
533.1950000000	n/a	533195	FrequentFixedSOA	1633	n/a	n/a	1
534.8280000000	n/a	534828	FrequentFixedSOA	1633	n/a	n/a	1
536.4610000000	n/a	536461	NovelFixedSOA	1633	n/a	n/a	1
538.0950000000	n/a	538095	FrequentFixedSOA	1633	n/a	n/a	1
539.7280000000	n/a	539728	FrequentFixedSOA	1633	n/a	n/a	1
541.3610000000	n/a	541361	FrequentFixedSOA	1633	n/a	n/a	1
542.9950000000	n/a	542995	FrequentFixedSOA	1633	n/a	n/a	1
544.6280000000	n/a	544628	FrequentFixedSOA	1633	n/a	n/a	1
546.2610000000	n/a	546261	GoFixedSOA	363	n/a	n/a	1
547.8950000000	n/a	547895	FrequentFixedSOA	1633	n/a	n/a	1
549.5280000000	n/a	549528	FrequentFixedSOA	1633	n/a	n/a	1
551.1610000000	n/a	551161	FrequentFixedSOA	1633	n/a	n/a	1
552.7950000000	n/a	552795	FrequentFixedSOA	1633	n/a	n/a	1
554.4280000000	n/a	554428	FrequentFixedSOA	1633	n/a	n/a	1
556.0610000000	n/a	556061	NovelFixedSOA	1633	n/a	n/a	1
557.6950000000	n/a	557695	FrequentFixedSOA	1633	n/a	n/a	1
559.3280000000	n/a	559328	GoFixedSOA	391	n/a	n/a	1
560.9610000000	n/a	560961	FrequentFixedSOA	1633	n/a	n/a	1
562.5950000000	n/a	562595	FrequentFixedSOA	1633	n/a	n/a	1
564.2280000000	n/a	564228	FrequentFixedSOA	1633	n/a	n/a	1
565.8610000000	n/a	565861	FrequentFixedSOA	1633	n/a	n/a	1
567.4940000000	n/a	567494	FrequentFixedSOA	1633	n/a	n/a	1
569.1280000000	n/a	569128	FrequentFixedSOA	1633	n/a	n/a	1
570.7610000000	n/a	570761	FrequentFixedSOA	1633	n/a	n/a	1
572.3940000000	n/a	572394	FrequentFixedSOA	1633	n/a	n/a	1
574.0280000000	n/a	574028	NovelFixedSOA	1633	n/a	n/a	1
575.6610000000	n/a	575661	FrequentFixedSOA	1633	n/a	n/a	1
577.2940000000	n/a	577294	FrequentFixedSOA	1633	n/a	n/a	1
578.9280000000	n/a	578928	GoVariableSOA	369	n/a	n/a	1
580.5440000000	n/a	580544	FrequentVariableSOA	1766	n/a	n/a	1
582.3110000000	n/a	582311	FrequentVariableSOA	1683	n/a	n/a	1
583.9940000000	n/a	583994	FrequentVariableSOA	1683	n/a	n/a	1
585.6780000000	n/a	585678	FrequentVariableSOA	1516	n/a	n/a	1
587.1940000000	n/a	587194	FrequentVariableSOA	1766	n/a	n/a	1
588.9610000000	n/a	588961	FrequentVariableSOA	1516	n/a	n/a	1
590.4780000000	n/a	590478	NovelVariableSOA	1700	n/a	n/a	1
592.1780000000	n/a	592178	FrequentVariableSOA	1783	n/a	n/a	1
593.9610000000	n/a	593961	FrequentVariableSOA	1666	n/a	n/a	1
595.6280000000	n/a	595628	FrequentVariableSOA	1500	n/a	n/a	1
597.1280000000	n/a	597128	NovelVariableSOA	1650	n/a	n/a	1
598.7780000000	n/a	598778	FrequentVariableSOA	1666	n/a	n/a	1
600.4440000000	n/a	600444	GoVariableSOA	422	n/a	n/a	1
602.1940000000	n/a	602194	FrequentVariableSOA	1733	n/a	n/a	1
603.9280000000	n/a	603928	FrequentVariableSOA	1600	n/a	n/a	1
605.5280000000	n/a	605528	GoVariableSOA	303	n/a	n/a	1
607.2780000000	n/a	607278	FrequentVariableSOA	1616	n/a	n/a	1
608.8940000000	n/a	608894	NovelVariableSOA	1783	n/a	n/a	1
610.6780000000	n/a	610678	FrequentVariableSOA	1616	n/a	n/a	1
612.2940000000	n/a	612294	FrequentVariableSOA	1633	n/a	n/a	1
613.9280000000	n/a	613928	FrequentVariableSOA	1600	n/a	n/a	1
615.5280000000	n/a	615528	FrequentVariableSOA	1733	n/a	n/a	1
617.2610000000	n/a	617261	FrequentVariableSOA	1750	n/a	n/a	1
619.0110000000	n/a	619011	GoVariableSOA	380	n/a	n/a	1
620.5280000000	n/a	620528	FrequentVariableSOA	1516	n/a	n/a	1
622.0440000000	n/a	622044	FrequentVariableSOA	1633	n/a	n/a	1
623.6780000000	n/a	623678	NovelVariableSOA	1666	n/a	n/a	1
625.3440000000	n/a	625344	FrequentVariableSOA	1616	n/a	n/a	1
626.9610000000	n/a	626961	FrequentVariableSOA	1516	n/a	n/a	1
628.4780000000	n/a	628478	FrequentVariableSOA	1700	n/a	n/a	1
630.1780000000	n/a	630178	FrequentVariableSOA	1616	n/a	n/a	1
631.7940000000	n/a	631794	FrequentVariableSOA	1666	n/a	n/a	1
633.4610000000	n/a	633461	NovelVariableSOA	1733	n/a	n/a	1
635.1940000000	n/a	635194	FrequentVariableSOA	1733	n/a	n/a	1
636.9280000000	n/a	636928	FrequentVariableSOA	1516	n/a	n/a	1
638.4440000000	n/a	638444	FrequentVariableSOA	1500	n/a	n/a	1
639.9440000000	n/a	639944	FrequentVariableSOA	1783	n/a	n/a	1
641.7280000000	n/a	641728	GoVariableSOA	313	n/a	n/a	1
643.2610000000	n/a	643261	FrequentVariableSOA	1750	n/a	n/a	1
645.0110000000	n/a	645011	FrequentVariableSOA	1666	n/a	n/a	1
646.6780000000	n/a	646678	NovelVariableSOA	1683	n/a	n/a	1
648.3610000000	n/a	648361	FrequentVariableSOA	1566	n/a	n/a	1
649.9280000000	n/a	649928	FrequentVariableSOA	1516	n/a	n/a	1
651.4440000000	n/a	651444	NovelVariableSOA	1716	n/a	n/a	1
653.1610000000	n/a	653161	FrequentVariableSOA	1633	n/a	n/a	1
654.7940000000	n/a	654794	FrequentVariableSOA	1700	n/a	n/a	1
656.4940000000	n/a	656494	FrequentVariableSOA	1700	n/a	n/a	1
658.1940000000	n/a	658194	FrequentVariableSOA	1600	n/a	n/a	1
659.7940000000	n/a	659794	FrequentVariableSOA	1616	n/a	n/a	1
661.4110000000	n/a	661411	GoVariableSOA	447	n/a	n/a	1
663.2110000000	n/a	663211	FrequentVariableSOA	1616	n/a	n/a	1
664.8280000000	n/a	664828	FrequentVariableSOA	1666	n/a	n/a	1
666.4940000000	n/a	666494	FrequentVariableSOA	1700	n/a	n/a	1
668.1940000000	n/a	668194	FrequentVariableSOA	1683	n/a	n/a	1
669.8780000000	n/a	669878	FrequentVariableSOA	1616	n/a	n/a	1
671.4940000000	n/a	671494	NovelVariableSOA	1600	n/a	n/a	1
673.0940000000	n/a	673094	FrequentVariableSOA	1683	n/a	n/a	1
674.7780000000	n/a	674778	GoVariableSOA	396	n/a	n/a	1
676.4780000000	n/a	676478	FrequentVariableSOA	1716	n/a	n/a	1
678.1940000000	n/a	678194	FrequentVariableSOA	1783	n/a	n/a	1
679.9780000000	n/a	679978	FrequentVariableSOA	1533	n/a	n/a	1
681.5110000000	n/a	681511	FrequentVariableSOA	1733	n/a	n/a	1
683.2440000000	n/a	683244	FrequentVariableSOA	1750	n/a	n/a	1
684.9940000000	n/a	684994	FrequentVariableSOA	1650	n/a	n/a	1
686.6440000000	n/a	686644	FrequentVariableSOA	1550	n/a	n/a	1
688.1940000000	n/a	688194	FrequentVariableSOA	1583	n/a	n/a	1
689.7780000000	n/a	689778	NovelVariableSOA	1783	n/a	n/a	1
691.5610000000	n/a	691561	FrequentVariableSOA	1516	n/a	n/a	1
693.0780000000	n/a	693078	FrequentVariableSOA	1700	n/a	n/a	1
694.7780000000	n/a	694778	GoFixedSOA	330	n/a	n/a	1
696.4110000000	n/a	696411	FrequentFixedSOA	1633	n/a	n/a	1
698.0440000000	n/a	698044	FrequentFixedSOA	1633	n/a	n/a	1
699.6780000000	n/a	699678	FrequentFixedSOA	1633	n/a	n/a	1
701.3110000000	n/a	701311	GoFixedSOA	378	n/a	n/a	1
702.9440000000	n/a	702944	FrequentFixedSOA	1633	n/a	n/a	1
704.5780000000	n/a	704578	FrequentFixedSOA	1633	n/a	n/a	1
706.2110000000	n/a	706211	FrequentFixedSOA	1633	n/a	n/a	1
707.8440000000	n/a	707844	FrequentFixedSOA	1633	n/a	n/a	1
709.4780000000	n/a	709478	GoFixedSOA	357	n/a	n/a	1
711.1110000000	n/a	711111	FrequentFixedSOA	1633	n/a	n/a	1
712.7440000000	n/a	712744	FrequentFixedSOA	1633	n/a	n/a	1
714.3780000000	n/a	714378	NovelFixedSOA	1633	n/a	n/a	1
716.0110000000	n/a	716011	FrequentFixedSOA	1633	n/a	n/a	1
717.6440000000	n/a	717644	FrequentFixedSOA	1633	n/a	n/a	1
719.2780000000	n/a	719278	GoFixedSOA	380	n/a	n/a	1
720.9110000000	n/a	720911	FrequentFixedSOA	1633	n/a	n/a	1
722.5440000000	n/a	722544	FrequentFixedSOA	1633	n/a	n/a	1
724.1780000000	n/a	724178	FrequentFixedSOA	1633	n/a	n/a	1
725.8110000000	n/a	725811	NovelFixedSOA	1633	n/a	n/a	1
727.4440000000	n/a	727444	FrequentFixedSOA	1633	n/a	n/a	1
729.0780000000	n/a	729078	NovelFixedSOA	1633	n/a	n/a	1
730.7110000000	n/a	730711	FrequentFixedSOA	1633	n/a	n/a	1
732.3440000000	n/a	732344	FrequentFixedSOA	1633	n/a	n/a	1
733.9780000000	n/a	733978	FrequentFixedSOA	1633	n/a	n/a	1
735.6110000000	n/a	735611	GoFixedSOA	402	n/a	n/a	1
737.2440000000	n/a	737244	FrequentFixedSOA	1633	n/a	n/a	1
738.8780000000	n/a	738878	FrequentFixedSOA	1633	n/a	n/a	1
740.5110000000	n/a	740511	FrequentFixedSOA	1633	n/a	n/a	1
742.1440000000	n/a	742144	GoFixedSOA	595	n/a	n/a	1
743.7780000000	n/a	743778	FrequentFixedSOA	1633	n/a	n/a	1
745.4110000000	n/a	745411	FrequentFixedSOA	1633	n/a	n/a	1
747.0440000000	n/a	747044	NovelFixedSOA	1633	n/a	n/a	1
748.6780000000	n/a	748678	FrequentFixedSOA	1633	n/a	n/a	1
750.3110000000	n/a	750311	GoFixedSOA	346	n/a	n/a	1
751.9440000000	n/a	751944	FrequentFixedSOA	1633	n/a	n/a	1
753.5780000000	n/a	753578	FrequentFixedSOA	1633	n/a	n/a	1
755.2110000000	n/a	755211	FrequentFixedSOA	1633	n/a	n/a	1
756.8440000000	n/a	756844	FrequentFixedSOA	1633	n/a	n/a	1
758.4780000000	n/a	758478	FrequentFixedSOA	1633	n/a	n/a	1
760.1110000000	n/a	760111	FrequentFixedSOA	1633	n/a	n/a	1
761.7440000000	n/a	761744	NovelFixedSOA	1633	n/a	n/a	1
763.3780000000	n/a	763378	FrequentFixedSOA	1633	n/a	n/a	1
765.0110000000	n/a	765011	FrequentFixedSOA	1633	n/a	n/a	1
766.6440000000	n/a	766644	FrequentFixedSOA	1633	n/a	n/a	1
768.2780000000	n/a	768278	GoFixedSOA	344	n/a	n/a	1
769.9110000000	n/a	769911	FrequentFixedSOA	1633	n/a	n/a	1
771.5440000000	n/a	771544	FrequentFixedSOA	1633	n/a	n/a	1
773.1780000000	n/a	773178	FrequentFixedSOA	1633	n/a	n/a	1
774.8110000000	n/a	774811	FrequentFixedSOA	1633	n/a	n/a	1
776.4440000000	n/a	776444	NovelFixedSOA	1633	n/a	n/a	1
778.0780000000	n/a	778078	FrequentFixedSOA	1633	n/a	n/a	1
779.7110000000	n/a	779711	FrequentFixedSOA	1633	n/a	n/a	1
781.3440000000	n/a	781344	NovelFixedSOA	1633	n/a	n/a	1
782.9780000000	n/a	782978	FrequentFixedSOA	1633	n/a	n/a	1
784.6110000000	n/a	784611	NovelFixedSOA	1633	n/a	n/a	1
786.2440000000	n/a	786244	FrequentFixedSOA	1633	n/a	n/a	1
787.8780000000	n/a	787878	FrequentFixedSOA	1633	n/a	n/a	1
789.5110000000	n/a	789511	FrequentFixedSOA	1633	n/a	n/a	1
791.1440000000	n/a	791144	FrequentFixedSOA	1633	n/a	n/a	1
792.7780000000	n/a	792778	FrequentFixedSOA	1633	n/a	n/a	1
794.4110000000	n/a	794411	FrequentFixedSOA	1633	n/a	n/a	1
796.0440000000	n/a	796044	FrequentFixedSOA	1633	n/a	n/a	1
797.6780000000	n/a	797678	GoFixedSOA	330	n/a	n/a	1
799.3110000000	n/a	799311	FrequentFixedSOA	1633	n/a	n/a	1
800.9440000000	n/a	800944	GoFixedSOA	377	n/a	n/a	1
802.5770000000	n/a	802577	FrequentFixedSOA	1633	n/a	n/a	1
804.2110000000	n/a	804211	FrequentFixedSOA	1633	n/a	n/a	1
805.8440000000	n/a	805844	NovelFixedSOA	1633	n/a	n/a	1
807.4770000000	n/a	807477	FrequentFixedSOA	1633	n/a	n/a	1
809.1110000000	n/a	809111	GoVariableSOA	316	n/a	n/a	1
810.8610000000	n/a	810861	FrequentVariableSOA	1600	n/a	n/a	1
812.4610000000	n/a	812461	FrequentVariableSOA	1683	n/a	n/a	1
814.1440000000	n/a	814144	FrequentVariableSOA	1766	n/a	n/a	1
815.9110000000	n/a	815911	GoVariableSOA	344	n/a	n/a	1
817.6610000000	n/a	817661	FrequentVariableSOA	1700	n/a	n/a	1
819.3610000000	n/a	819361	FrequentVariableSOA	1733	n/a	n/a	1
821.0940000000	n/a	821094	FrequentVariableSOA	1550	n/a	n/a	1
822.6440000000	n/a	822644	FrequentVariableSOA	1650	n/a	n/a	1
824.2940000000	n/a	824294	GoVariableSOA	298	n/a	n/a	1
826.0110000000	n/a	826011	FrequentVariableSOA	1766	n/a	n/a	1
827.7770000000	n/a	827777	FrequentVariableSOA	1616	n/a	n/a	1
829.3940000000	n/a	829394	NovelVariableSOA	1683	n/a	n/a	1
831.0770000000	n/a	831077	FrequentVariableSOA	1783	n/a	n/a	1
832.8610000000	n/a	832861	FrequentVariableSOA	1500	n/a	n/a	1
834.3610000000	n/a	834361	GoVariableSOA	306	n/a	n/a	1
835.8940000000	n/a	835894	FrequentVariableSOA	1700	n/a	n/a	1
837.5940000000	n/a	837594	FrequentVariableSOA	1733	n/a	n/a	1
839.3270000000	n/a	839327	FrequentVariableSOA	1616	n/a	n/a	1
840.9440000000	n/a	840944	NovelVariableSOA	1666	n/a	n/a	1
842.6110000000	n/a	842611	FrequentVariableSOA	1600	n/a	n/a	1
844.2110000000	n/a	844211	NovelVariableSOA	1750	n/a	n/a	1
845.9610000000	n/a	845961	FrequentVariableSOA	1583	n/a	n/a	1
847.5440000000	n/a	847544	FrequentVariableSOA	1683	n/a	n/a	1
849.2270000000	n/a	849227	FrequentVariableSOA	1566	n/a	n/a	1
850.7940000000	n/a	850794	GoVariableSOA	301	n/a	n/a	1
852.2940000000	n/a	852294	FrequentVariableSOA	1500	n/a	n/a	1
853.7940000000	n/a	853794	FrequentVariableSOA	1550	n/a	n/a	1
855.3440000000	n/a	855344	FrequentVariableSOA	1583	n/a	n/a	1
856.9270000000	n/a	856927	GoVariableSOA	230	n/a	n/a	1
858.6270000000	n/a	858627	FrequentVariableSOA	1550	n/a	n/a	1
860.1770000000	n/a	860177	FrequentVariableSOA	1683	n/a	n/a	1
861.8610000000	n/a	861861	NovelVariableSOA	1550	n/a	n/a	1
863.4110000000	n/a	863411	FrequentVariableSOA	1766	n/a	n/a	1
865.1770000000	n/a	865177	GoVariableSOA	287	n/a	n/a	1
866.7610000000	n/a	866761	FrequentVariableSOA	1583	n/a	n/a	1
868.3440000000	n/a	868344	FrequentVariableSOA	1733	n/a	n/a	1
870.0770000000	n/a	870077	FrequentVariableSOA	1700	n/a	n/a	1
871.7770000000	n/a	871777	FrequentVariableSOA	1533	n/a	n/a	1
873.3110000000	n/a	873311	FrequentVariableSOA	1716	n/a	n/a	1
875.0270000000	n/a	875027	FrequentVariableSOA	1800	n/a	n/a	1
876.8270000000	n/a	876827	NovelVariableSOA	1700	n/a	n/a	1
878.5270000000	n/a	878527	FrequentVariableSOA	1583	n/a	n/a	1
880.1110000000	n/a	880111	FrequentVariableSOA	1533	n/a	n/a	1
881.6440000000	n/a	881644	FrequentVariableSOA	1766	n/a	n/a	1
883.4110000000	n/a	883411	GoVariableSOA	254	n/a	n/a	1
885.0110000000	n/a	885011	FrequentVariableSOA	1533	n/a	n/a	1
886.5440000000	n/a	886544	FrequentVariableSOA	1516	n/a	n/a	1
888.0610000000	n/a	888061	FrequentVariableSOA	1766	n/a	n/a	1
889.8270000000	n/a	889827	FrequentVariableSOA	1716	n/a	n/a	1
891.5440000000	n/a	891544	NovelVariableSOA	1783	n/a	n/a	1
893.3270000000	n/a	893327	FrequentVariableSOA	1500	n/a	n/a	1
894.8270000000	n/a	894827	FrequentVariableSOA	1700	n/a	n/a	1
896.5270000000	n/a	896527	NovelVariableSOA	1683	n/a	n/a	1
898.2110000000	n/a	898211	FrequentVariableSOA	1683	n/a	n/a	1
899.8940000000	n/a	899894	NovelVariableSOA	1783	n/a	n/a	1
901.6770000000	n/a	901677	FrequentVariableSOA	1516	n/a	n/a	1
903.1940000000	n/a	903194	FrequentVariableSOA	1733	n/a	n/a	1
904.9270000000	n/a	904927	FrequentVariableSOA	1516	n/a	n/a	1
906.4440000000	n/a	906444	FrequentVariableSOA	1550	n/a	n/a	1
907.9940000000	n/a	907994	FrequentVariableSOA	1666	n/a	n/a	1
909.6610000000	n/a	909661	FrequentVariableSOA	1650	n/a	n/a	1
911.3110000000	n/a	911311	FrequentVariableSOA	1783	n/a	n/a	1
913.0940000000	n/a	913094	GoVariableSOA	326	n/a	n/a	1
914.6440000000	n/a	914644	FrequentVariableSOA	1750	n/a	n/a	1
916.3940000000	n/a	916394	GoVariableSOA	272	n/a	n/a	1
918.0270000000	n/a	918027	FrequentVariableSOA	1766	n/a	n/a	1
919.7940000000	n/a	919794	FrequentVariableSOA	1766	n/a	n/a	1
921.5610000000	n/a	921561	NovelVariableSOA	1666	n/a	n/a	1
923.2270000000	n/a	923227	FrequentVariableSOA	1516	n/a	n/a	1
