onset	duration	sample	trial_type	response_time	stim_file	value	correct
3.9700000000	n/a	3970	ignore	n/a	n/a	n/a	n/a
7.0700000000	n/a	7070	ignore	n/a	n/a	n/a	n/a
10.0860000000	n/a	10086	ignore	n/a	n/a	n/a	n/a
26.0540000000	n/a	26054	ignore	n/a	n/a	n/a	n/a
29.1540000000	n/a	29154	ignore	n/a	n/a	n/a	n/a
32.1410000000	n/a	32141	ignore	n/a	n/a	n/a	n/a
48.0200000000	n/a	48020	NeuStim	n/a	n/a	n/a	n/a
51.1200000000	n/a	51120	NeuNonAlcP1000	n/a	n/a	n/a	n/a
56.1070000000	n/a	56107	NeuNonAlcP1000	n/a	n/a	n/a	n/a
65.8040000000	n/a	65804	PosStim	n/a	n/a	n/a	n/a
68.8370000000	n/a	68837	PosAlcStimWithoutStartle	n/a	n/a	n/a	n/a
82.3540000000	n/a	82354	NeuStim	n/a	n/a	n/a	n/a
85.4530000000	n/a	85453	NeuAlcP2000	n/a	n/a	n/a	n/a
89.4410000000	n/a	89441	NeuAlcP2000	n/a	n/a	n/a	n/a
99.8370000000	n/a	99837	NegStim	n/a	n/a	n/a	n/a
102.9370000000	n/a	102937	NegNonAlcP2000	n/a	n/a	n/a	n/a
106.9240000000	n/a	106924	NegNonAlcP2000	n/a	n/a	n/a	n/a
119.8870000000	n/a	119887	NeuStim	n/a	n/a	n/a	n/a
122.9200000000	n/a	122920	NeuNonAlcStimWithoutStartle	n/a	n/a	n/a	n/a
139.0870000000	n/a	139087	PosStim	n/a	n/a	n/a	n/a
142.1870000000	n/a	142187	PosNonAlcP1000	n/a	n/a	n/a	n/a
147.1740000000	n/a	147174	PosNonAlcP1000	n/a	n/a	n/a	n/a
159.1530000000	n/a	159153	NeuStim	n/a	n/a	n/a	n/a
162.2530000000	n/a	162253	NeuAlcP1000	n/a	n/a	n/a	n/a
167.2400000000	n/a	167240	NeuAlcP1000	n/a	n/a	n/a	n/a
177.1870000000	n/a	177187	NegStim	n/a	n/a	n/a	n/a
180.2200000000	n/a	180220	NegNonAlcStimWithoutStartle	n/a	n/a	n/a	n/a
194.6530000000	n/a	194653	NeuStim	n/a	n/a	n/a	n/a
197.7530000000	n/a	197753	NeuNonAlcP1000	n/a	n/a	n/a	n/a
202.7400000000	n/a	202740	NeuNonAlcP1000	n/a	n/a	n/a	n/a
212.3700000000	n/a	212370	NegStim	n/a	n/a	n/a	n/a
215.4700000000	n/a	215470	NegNonAlcP3000	n/a	n/a	n/a	n/a
218.4570000000	n/a	218457	NegNonAlcP3000	n/a	n/a	n/a	n/a
230.7030000000	n/a	230703	PosStim	n/a	n/a	n/a	n/a
233.8030000000	n/a	233803	PosNonAlcP3000	n/a	n/a	n/a	n/a
236.7900000000	n/a	236790	PosNonAlcP3000	n/a	n/a	n/a	n/a
250.2030000000	n/a	250203	NeuStim	n/a	n/a	n/a	n/a
253.3030000000	n/a	253303	NeuAlcP1000	n/a	n/a	n/a	n/a
258.2900000000	n/a	258290	NeuAlcP1000	n/a	n/a	n/a	n/a
268.1530000000	n/a	268153	NegStim	n/a	n/a	n/a	n/a
271.1870000000	n/a	271187	NegAlcStimWithoutStartle	n/a	n/a	n/a	n/a
285.8870000000	n/a	285887	PosStim	n/a	n/a	n/a	n/a
288.9200000000	n/a	288920	PosNonAlcStimWithoutStartle	n/a	n/a	n/a	n/a
304.9870000000	n/a	304987	NegStim	n/a	n/a	n/a	n/a
308.0860000000	n/a	308086	NegAlcP3000	n/a	n/a	n/a	n/a
311.0740000000	n/a	311074	NegAlcP3000	n/a	n/a	n/a	n/a
323.4700000000	n/a	323470	NeuStim	n/a	n/a	n/a	n/a
326.5030000000	n/a	326503	NeuAlcStimWithoutStartle	n/a	n/a	n/a	n/a
340.8860000000	n/a	340886	PosStim	n/a	n/a	n/a	n/a
343.9860000000	n/a	343986	PosNonAlcP1000	n/a	n/a	n/a	n/a
348.9730000000	n/a	348973	PosNonAlcP1000	n/a	n/a	n/a	n/a
359.4200000000	n/a	359420	NegStim	n/a	n/a	n/a	n/a
362.5200000000	n/a	362520	NegAlcP3000	n/a	n/a	n/a	n/a
365.5070000000	n/a	365507	NegAlcP3000	n/a	n/a	n/a	n/a
376.0200000000	n/a	376020	NegStim	n/a	n/a	n/a	n/a
379.0530000000	n/a	379053	NegNonAlcStimWithoutStartle	n/a	n/a	n/a	n/a
394.6360000000	n/a	394636	PosStim	n/a	n/a	n/a	n/a
397.7360000000	n/a	397736	PosAlcP1000	n/a	n/a	n/a	n/a
402.7230000000	n/a	402723	PosAlcP1000	n/a	n/a	n/a	n/a
412.7530000000	n/a	412753	NeuStim	n/a	n/a	n/a	n/a
415.7860000000	n/a	415786	NeuAlcStimWithoutStartle	n/a	n/a	n/a	n/a
429.4030000000	n/a	429403	NegStim	n/a	n/a	n/a	n/a
432.5030000000	n/a	432503	NegNonAlcP1000	n/a	n/a	n/a	n/a
437.4900000000	n/a	437490	NegNonAlcP1000	n/a	n/a	n/a	n/a
447.4030000000	n/a	447403	PosStim	n/a	n/a	n/a	n/a
450.5030000000	n/a	450503	PosAlcP3000	n/a	n/a	n/a	n/a
453.4900000000	n/a	453490	PosAlcP3000	n/a	n/a	n/a	n/a
465.0860000000	n/a	465086	NeuStim	n/a	n/a	n/a	n/a
468.1860000000	n/a	468186	NeuAlcP3000	n/a	n/a	n/a	n/a
471.1730000000	n/a	471173	NeuAlcP3000	n/a	n/a	n/a	n/a
482.9860000000	n/a	482986	NegStim	n/a	n/a	n/a	n/a
486.0200000000	n/a	486020	NegAlcStimWithoutStartle	n/a	n/a	n/a	n/a
499.1530000000	n/a	499153	PosStim	n/a	n/a	n/a	n/a
502.2530000000	n/a	502253	PosNonAlcP2000	n/a	n/a	n/a	n/a
506.2400000000	n/a	506240	PosNonAlcP2000	n/a	n/a	n/a	n/a
518.9200000000	n/a	518920	NegStim	n/a	n/a	n/a	n/a
522.0200000000	n/a	522020	NegAlcP2000	n/a	n/a	n/a	n/a
526.0070000000	n/a	526007	NegAlcP2000	n/a	n/a	n/a	n/a
535.6530000000	n/a	535653	PosStim	n/a	n/a	n/a	n/a
538.7530000000	n/a	538753	PosAlcP2000	n/a	n/a	n/a	n/a
542.7400000000	n/a	542740	PosAlcP2000	n/a	n/a	n/a	n/a
555.2530000000	n/a	555253	NeuStim	n/a	n/a	n/a	n/a
558.2860000000	n/a	558286	NeuAlcStimWithoutStartle	n/a	n/a	n/a	n/a
573.9030000000	n/a	573903	NegStim	n/a	n/a	n/a	n/a
577.0030000000	n/a	577003	NegNonAlcP1000	n/a	n/a	n/a	n/a
581.9900000000	n/a	581990	NegNonAlcP1000	n/a	n/a	n/a	n/a
591.0030000000	n/a	591003	NeuStim	n/a	n/a	n/a	n/a
594.1030000000	n/a	594103	NeuNonAlcP1000	n/a	n/a	n/a	n/a
599.0900000000	n/a	599090	NeuNonAlcP1000	n/a	n/a	n/a	n/a
610.8860000000	n/a	610886	PosStim	n/a	n/a	n/a	n/a
613.9860000000	n/a	613986	PosNonAlcP3000	n/a	n/a	n/a	n/a
616.9730000000	n/a	616973	PosNonAlcP3000	n/a	n/a	n/a	n/a
627.2690000000	n/a	627269	NeuStim	n/a	n/a	n/a	n/a
630.3030000000	n/a	630303	NeuNonAlcStimWithoutStartle	n/a	n/a	n/a	n/a
646.2360000000	n/a	646236	NegStim	n/a	n/a	n/a	n/a
649.2690000000	n/a	649269	NegNonAlcStimWithoutStartle	n/a	n/a	n/a	n/a
662.4690000000	n/a	662469	NeuStim	n/a	n/a	n/a	n/a
665.5690000000	n/a	665569	NeuNonAlcP3000	n/a	n/a	n/a	n/a
668.5560000000	n/a	668556	NeuNonAlcP3000	n/a	n/a	n/a	n/a
679.8030000000	n/a	679803	PosStim	n/a	n/a	n/a	n/a
682.9030000000	n/a	682903	PosAlcP1000	n/a	n/a	n/a	n/a
687.8900000000	n/a	687890	PosAlcP1000	n/a	n/a	n/a	n/a
699.6030000000	n/a	699603	NegStim	n/a	n/a	n/a	n/a
702.7030000000	n/a	702703	NegNonAlcP1000	n/a	n/a	n/a	n/a
707.6900000000	n/a	707690	NegNonAlcP1000	n/a	n/a	n/a	n/a
717.3860000000	n/a	717386	PosStim	n/a	n/a	n/a	n/a
720.4190000000	n/a	720419	PosNonAlcStimWithoutStartle	n/a	n/a	n/a	n/a
737.1690000000	n/a	737169	NeuStim	n/a	n/a	n/a	n/a
740.2690000000	n/a	740269	NeuAlcP2000	n/a	n/a	n/a	n/a
744.2560000000	n/a	744256	NeuAlcP2000	n/a	n/a	n/a	n/a
756.4190000000	n/a	756419	PosStim	n/a	n/a	n/a	n/a
759.5190000000	n/a	759519	PosAlcP1000	n/a	n/a	n/a	n/a
764.5060000000	n/a	764506	PosAlcP1000	n/a	n/a	n/a	n/a
773.6530000000	n/a	773653	NegStim	n/a	n/a	n/a	n/a
776.6860000000	n/a	776686	NegNonAlcStimWithoutStartle	n/a	n/a	n/a	n/a
791.0860000000	n/a	791086	PosStim	n/a	n/a	n/a	n/a
794.1860000000	n/a	794186	PosNonAlcP2000	n/a	n/a	n/a	n/a
798.1730000000	n/a	798173	PosNonAlcP2000	n/a	n/a	n/a	n/a
810.9860000000	n/a	810986	NegStim	n/a	n/a	n/a	n/a
814.0860000000	n/a	814086	NegNonAlcP3000	n/a	n/a	n/a	n/a
817.0730000000	n/a	817073	NegNonAlcP3000	n/a	n/a	n/a	n/a
830.1690000000	n/a	830169	NeuStim	n/a	n/a	n/a	n/a
833.2690000000	n/a	833269	NeuNonAlcP2000	n/a	n/a	n/a	n/a
837.2560000000	n/a	837256	NeuNonAlcP2000	n/a	n/a	n/a	n/a
849.9360000000	n/a	849936	NegStim	n/a	n/a	n/a	n/a
852.9690000000	n/a	852969	NegAlcStimWithoutStartle	n/a	n/a	n/a	n/a
869.4190000000	n/a	869419	PosStim	n/a	n/a	n/a	n/a
872.4520000000	n/a	872452	PosAlcStimWithoutStartle	n/a	n/a	n/a	n/a
888.1690000000	n/a	888169	NeuStim	n/a	n/a	n/a	n/a
891.2690000000	n/a	891269	NeuAlcP3000	n/a	n/a	n/a	n/a
894.2560000000	n/a	894256	NeuAlcP3000	n/a	n/a	n/a	n/a
905.2690000000	n/a	905269	NegStim	n/a	n/a	n/a	n/a
908.3690000000	n/a	908369	NegNonAlcP1000	n/a	n/a	n/a	n/a
913.3560000000	n/a	913356	NegNonAlcP1000	n/a	n/a	n/a	n/a
925.1190000000	n/a	925119	NeuStim	n/a	n/a	n/a	n/a
928.2190000000	n/a	928219	NeuNonAlcP2000	n/a	n/a	n/a	n/a
932.2060000000	n/a	932206	NeuNonAlcP2000	n/a	n/a	n/a	n/a
944.6520000000	n/a	944652	PosStim	n/a	n/a	n/a	n/a
947.6860000000	n/a	947686	PosAlcStimWithoutStartle	n/a	n/a	n/a	n/a
961.4190000000	n/a	961419	NegStim	n/a	n/a	n/a	n/a
964.5190000000	n/a	964519	NegNonAlcP2000	n/a	n/a	n/a	n/a
968.5060000000	n/a	968506	NegNonAlcP2000	n/a	n/a	n/a	n/a
978.8190000000	n/a	978819	NeuStim	n/a	n/a	n/a	n/a
981.9190000000	n/a	981919	NeuAlcP1000	n/a	n/a	n/a	n/a
986.9060000000	n/a	986906	NeuAlcP1000	n/a	n/a	n/a	n/a
