onset	duration	sample	trial_type	response_time	stim_file	value	correct
16.1020000000	n/a	16102	ignore	2161	n/a	n/a	1
19.3350000000	n/a	19335	ignore	1000	n/a	n/a	1
21.3360000000	n/a	21336	ignore	1700	n/a	n/a	1
23.0350000000	n/a	23035	ignore	2590	n/a	n/a	1
26.7020000000	n/a	26702	ignore	1000	n/a	n/a	1
28.7020000000	n/a	28702	ignore	1700	n/a	n/a	1
30.4020000000	n/a	30402	ignore	6916	n/a	n/a	1
38.3850000000	n/a	38385	ignore	1000	n/a	n/a	1
40.3850000000	n/a	40385	ignore	1700	n/a	n/a	1
42.0850000000	n/a	42085	ignore	5427	n/a	n/a	1
48.5850000000	n/a	48585	ignore	1000	n/a	n/a	1
50.5850000000	n/a	50585	ignore	1700	n/a	n/a	1
52.2850000000	n/a	52285	ignore	4028	n/a	n/a	0
57.3850000000	n/a	57385	ignore	1000	n/a	n/a	1
59.3850000000	n/a	59385	ignore	1700	n/a	n/a	1
61.0850000000	n/a	61085	ignore	3298	n/a	n/a	1
65.4520000000	n/a	65452	ignore	1000	n/a	n/a	1
67.4520000000	n/a	67452	ignore	1700	n/a	n/a	1
69.1520000000	n/a	69152	ignore	3835	n/a	n/a	1
74.0520000000	n/a	74052	ignore	1000	n/a	n/a	1
76.0520000000	n/a	76052	ignore	1700	n/a	n/a	1
77.7520000000	n/a	77752	ignore	3118	n/a	n/a	1
81.9350000000	n/a	81935	ignore	1000	n/a	n/a	1
83.9350000000	n/a	83935	STATUS	1700	n/a	n/a	1
85.6350000000	n/a	85635	ignore	3142	n/a	n/a	1
88.8520000000	n/a	88852	ignore 	2000	n/a	n/a	1
95.3350000000	n/a	95335	ignore	1000	n/a	n/a	1
97.3350000000	n/a	97335	STATUS	1700	n/a	n/a	1
99.0350000000	n/a	99035	ignore	1164	n/a	n/a	1
101.2690000000	n/a	101269	ignore	1000	n/a	n/a	1
103.2690000000	n/a	103269	STATUS	1700	n/a	n/a	1
104.9690000000	n/a	104969	ignore	1464	n/a	n/a	0
107.5020000000	n/a	107502	ignore	1000	n/a	n/a	1
109.5020000000	n/a	109502	ignore	1700	n/a	n/a	1
111.2020000000	n/a	111202	ignore	2292	n/a	n/a	1
114.5690000000	n/a	114569	ignore	1000	n/a	n/a	1
116.5690000000	n/a	116569	ignore	1700	n/a	n/a	1
118.2690000000	n/a	118269	ignore	3614	n/a	n/a	0
122.9520000000	n/a	122952	ignore	1000	n/a	n/a	1
124.9520000000	n/a	124952	ignore	1700	n/a	n/a	1
126.6520000000	n/a	126652	ignore	3265	n/a	n/a	1
130.9850000000	n/a	130985	ignore	1000	n/a	n/a	1
132.9850000000	n/a	132985	ignore	1700	n/a	n/a	1
134.6850000000	n/a	134685	ignore	1049	n/a	n/a	1
136.8020000000	n/a	136802	ignore	1000	n/a	n/a	1
138.8020000000	n/a	138802	ignore	1700	n/a	n/a	1
140.5020000000	n/a	140502	ignore	2227	n/a	n/a	1
143.8020000000	n/a	143802	ignore	1000	n/a	n/a	1
145.8020000000	n/a	145802	ignore	1700	n/a	n/a	1
147.5020000000	n/a	147502	ignore	1287	n/a	n/a	1
148.8520000000	n/a	148852	ignore 	2000	n/a	n/a	1
158.8020000000	n/a	158802	PenaltyB1	2151	n/a	n/a	1
162.0190000000	n/a	162019	NeuCorrB1	1000	n/a	n/a	1
164.0190000000	n/a	164019	ignore	1700	n/a	n/a	1
165.7190000000	n/a	165719	PenaltyB1	1297	n/a	n/a	1
168.0850000000	n/a	168085	NeuCorrB1	1000	n/a	n/a	1
170.0850000000	n/a	170085	ignore	1700	n/a	n/a	1
171.7850000000	n/a	171785	PenaltyB1	874	n/a	n/a	1
173.7350000000	n/a	173735	NeuCorrB1	1000	n/a	n/a	1
175.7350000000	n/a	175735	ignore	1700	n/a	n/a	1
177.4350000000	n/a	177435	RewardB1	2931	n/a	n/a	0
181.4350000000	n/a	181435	NeuIncorrB1	1000	n/a	n/a	1
183.4350000000	n/a	183435	ignore	1700	n/a	n/a	1
185.1350000000	n/a	185135	RewardB1	3157	n/a	n/a	0
189.3690000000	n/a	189369	NeuIncorrB1	1000	n/a	n/a	1
191.3690000000	n/a	191369	ignore	1700	n/a	n/a	1
193.0690000000	n/a	193069	PenaltyB1	751	n/a	n/a	1
194.8850000000	n/a	194885	NeuCorrB1	1000	n/a	n/a	1
196.8850000000	n/a	196885	ignore	1700	n/a	n/a	1
198.5850000000	n/a	198585	PenaltyB1	861	n/a	n/a	1
200.5180000000	n/a	200518	NeuCorrB1	1000	n/a	n/a	1
202.5190000000	n/a	202519	ignore	1700	n/a	n/a	1
204.2180000000	n/a	204218	PenaltyB1	1620	n/a	n/a	1
206.9020000000	n/a	206902	NeuCorrB1	1000	n/a	n/a	1
208.9020000000	n/a	208902	ignore	1700	n/a	n/a	1
210.6020000000	n/a	210602	PenaltyB1	2651	n/a	n/a	1
214.3180000000	n/a	214318	PunCorrB1	1000	n/a	n/a	1
216.3190000000	n/a	216319	ignore	1700	n/a	n/a	1
218.0180000000	n/a	218018	RewardB1	1083	n/a	n/a	0
220.1680000000	n/a	220168	NeuIncorrB1	1000	n/a	n/a	1
222.1690000000	n/a	222169	ignore	1700	n/a	n/a	1
223.8680000000	n/a	223868	PenaltyB1	816	n/a	n/a	1
225.7520000000	n/a	225752	NeuCorrB1	1000	n/a	n/a	1
227.7520000000	n/a	227752	ignore	1700	n/a	n/a	1
229.4520000000	n/a	229452	RewardB1	2994	n/a	n/a	0
233.5180000000	n/a	233518	RewIncorrB1	1000	n/a	n/a	1
235.5190000000	n/a	235519	ignore	1700	n/a	n/a	1
237.2180000000	n/a	237218	PenaltyB1	687	n/a	n/a	1
238.9680000000	n/a	238968	NeuCorrB1	1000	n/a	n/a	1
240.9680000000	n/a	240968	ignore	1700	n/a	n/a	1
242.6680000000	n/a	242668	RewardB1	1051	n/a	n/a	0
244.7850000000	n/a	244785	NeuIncorrB1	1000	n/a	n/a	1
246.7850000000	n/a	246785	ignore	1700	n/a	n/a	1
248.4850000000	n/a	248485	PenaltyB1	965	n/a	n/a	1
250.5180000000	n/a	250518	NeuCorrB1	1000	n/a	n/a	1
252.5180000000	n/a	252518	ignore	1700	n/a	n/a	1
254.2180000000	n/a	254218	PenaltyB1	929	n/a	n/a	1
256.2180000000	n/a	256218	NeuCorrB1	1000	n/a	n/a	1
258.2180000000	n/a	258218	ignore	1700	n/a	n/a	1
259.9180000000	n/a	259918	RewardB1	716	n/a	n/a	0
261.7020000000	n/a	261702	RewIncorrB1	1000	n/a	n/a	1
263.7020000000	n/a	263702	ignore	1700	n/a	n/a	1
265.4020000000	n/a	265402	PenaltyB1	856	n/a	n/a	1
267.3350000000	n/a	267335	NeuCorrB1	1000	n/a	n/a	1
269.3350000000	n/a	269335	ignore	1700	n/a	n/a	1
271.0350000000	n/a	271035	RewardB1	980	n/a	n/a	0
273.0850000000	n/a	273085	NeuIncorrB1	1000	n/a	n/a	1
275.0850000000	n/a	275085	ignore	1700	n/a	n/a	1
276.7850000000	n/a	276785	RewardB1	1181	n/a	n/a	0
279.0350000000	n/a	279035	NeuIncorrB1	1000	n/a	n/a	1
281.0350000000	n/a	281035	ignore	1700	n/a	n/a	1
282.7350000000	n/a	282735	RewardB1	750	n/a	n/a	0
284.5520000000	n/a	284552	RewIncorrB1	1000	n/a	n/a	1
286.5520000000	n/a	286552	ignore	1700	n/a	n/a	1
288.2520000000	n/a	288252	RewardB1	631	n/a	n/a	0
289.9520000000	n/a	289952	NeuIncorrB1	1000	n/a	n/a	1
291.9520000000	n/a	291952	ignore	1700	n/a	n/a	1
293.6520000000	n/a	293652	RewardB1	775	n/a	n/a	0
295.5020000000	n/a	295502	NeuIncorrB1	1000	n/a	n/a	1
297.5020000000	n/a	297502	ignore	1700	n/a	n/a	1
299.2020000000	n/a	299202	PenaltyB1	613	n/a	n/a	1
300.8850000000	n/a	300885	NeuCorrB1	1000	n/a	n/a	1
302.8850000000	n/a	302885	ignore	1700	n/a	n/a	1
304.5850000000	n/a	304585	RewardB1	512	n/a	n/a	0
306.1680000000	n/a	306168	NeuIncorrB1	1000	n/a	n/a	1
308.1680000000	n/a	308168	ignore	1700	n/a	n/a	1
309.8680000000	n/a	309868	PenaltyB1	1887	n/a	n/a	1
312.8180000000	n/a	312818	PunCorrB1	1000	n/a	n/a	1
314.8180000000	n/a	314818	ignore	1700	n/a	n/a	1
316.5180000000	n/a	316518	RewardB1	572	n/a	n/a	0
318.1680000000	n/a	318168	NeuIncorrB1	1000	n/a	n/a	1
320.1680000000	n/a	320168	ignore	1700	n/a	n/a	1
321.8680000000	n/a	321868	RewardB1	786	n/a	n/a	0
323.7180000000	n/a	323718	NeuIncorrB1	1000	n/a	n/a	1
325.7180000000	n/a	325718	ignore	1700	n/a	n/a	1
327.4180000000	n/a	327418	RewardB1	805	n/a	n/a	0
329.2850000000	n/a	329285	NeuIncorrB1	1000	n/a	n/a	1
331.2850000000	n/a	331285	ignore	1700	n/a	n/a	1
332.9850000000	n/a	332985	PenaltyB1	684	n/a	n/a	1
334.7350000000	n/a	334735	NeuCorrB1	1000	n/a	n/a	1
336.7350000000	n/a	336735	ignore	1700	n/a	n/a	1
338.4350000000	n/a	338435	RewardB1	548	n/a	n/a	0
340.0520000000	n/a	340052	RewIncorrB1	1000	n/a	n/a	1
342.0520000000	n/a	342052	ignore	1700	n/a	n/a	1
343.7520000000	n/a	343752	PenaltyB1	597	n/a	n/a	1
345.4180000000	n/a	345418	NeuCorrB1	1000	n/a	n/a	1
347.4180000000	n/a	347418	ignore	1700	n/a	n/a	1
349.1180000000	n/a	349118	RewardB1	763	n/a	n/a	0
350.9520000000	n/a	350952	NeuIncorrB1	1000	n/a	n/a	1
352.9520000000	n/a	352952	ignore	1700	n/a	n/a	1
354.6520000000	n/a	354652	PenaltyB1	606	n/a	n/a	1
356.3350000000	n/a	356335	PunCorrB1	1000	n/a	n/a	1
358.3350000000	n/a	358335	ignore	1700	n/a	n/a	1
360.0350000000	n/a	360035	RewardB1	1772	n/a	n/a	0
362.8850000000	n/a	362885	NeuIncorrB1	1000	n/a	n/a	1
364.8850000000	n/a	364885	ignore	1700	n/a	n/a	1
366.5850000000	n/a	366585	PenaltyB1	2843	n/a	n/a	0
370.5020000000	n/a	370502	PunIncorrB1	1000	n/a	n/a	1
372.5020000000	n/a	372502	ignore	1700	n/a	n/a	1
374.2020000000	n/a	374202	PenaltyB1	626	n/a	n/a	1
375.9020000000	n/a	375902	NeuCorrB1	1000	n/a	n/a	1
377.9020000000	n/a	377902	ignore	1700	n/a	n/a	1
379.6020000000	n/a	379602	RewardB1	615	n/a	n/a	0
381.2850000000	n/a	381285	NeuIncorrB1	1000	n/a	n/a	1
383.2850000000	n/a	383285	ignore	1700	n/a	n/a	1
384.9850000000	n/a	384985	PenaltyB1	505	n/a	n/a	1
386.5680000000	n/a	386568	PunCorrB1	1000	n/a	n/a	1
388.5680000000	n/a	388568	ignore	1700	n/a	n/a	1
390.2680000000	n/a	390268	RewardB1	526	n/a	n/a	0
391.8680000000	n/a	391868	NeuIncorrB1	1000	n/a	n/a	1
393.8680000000	n/a	393868	ignore	1700	n/a	n/a	1
401.4680000000	n/a	401468	RewardB2	812	n/a	n/a	0
403.3510000000	n/a	403351	NeuIncorrB2	1000	n/a	n/a	1
405.3520000000	n/a	405352	ignore	1700	n/a	n/a	1
407.0510000000	n/a	407051	PenaltyB2	1651	n/a	n/a	1
409.7680000000	n/a	409768	NeuCorrB2	1000	n/a	n/a	1
411.7680000000	n/a	411768	ignore	1700	n/a	n/a	1
413.4680000000	n/a	413468	RewardB2	1858	n/a	n/a	0
416.4010000000	n/a	416401	NeuIncorrB2	1000	n/a	n/a	1
418.4020000000	n/a	418402	ignore	1700	n/a	n/a	1
420.1010000000	n/a	420101	RewardB2	470	n/a	n/a	0
421.6350000000	n/a	421635	RewIncorrB2	1000	n/a	n/a	1
423.6350000000	n/a	423635	ignore	1700	n/a	n/a	1
425.3350000000	n/a	425335	PenaltyB2	544	n/a	n/a	1
426.9510000000	n/a	426951	NeuCorrB2	1000	n/a	n/a	1
428.9520000000	n/a	428952	ignore	1700	n/a	n/a	1
430.6510000000	n/a	430651	RewardB2	546	n/a	n/a	0
432.2680000000	n/a	432268	NeuIncorrB2	1000	n/a	n/a	1
434.2680000000	n/a	434268	ignore	1700	n/a	n/a	1
435.9680000000	n/a	435968	PenaltyB2	1976	n/a	n/a	1
439.0180000000	n/a	439018	NeuCorrB2	1000	n/a	n/a	1
441.0180000000	n/a	441018	ignore	1700	n/a	n/a	1
442.7180000000	n/a	442718	RewardB2	633	n/a	n/a	0
444.4180000000	n/a	444418	NeuIncorrB2	1000	n/a	n/a	1
446.4180000000	n/a	446418	ignore	1700	n/a	n/a	1
448.1180000000	n/a	448118	PenaltyB2	518	n/a	n/a	1
449.7010000000	n/a	449701	NeuCorrB2	1000	n/a	n/a	1
451.7010000000	n/a	451701	ignore	1700	n/a	n/a	1
453.4010000000	n/a	453401	RewardB2	579	n/a	n/a	0
455.0510000000	n/a	455051	NeuIncorrB2	1000	n/a	n/a	1
457.0510000000	n/a	457051	ignore	1700	n/a	n/a	1
458.7510000000	n/a	458751	PenaltyB2	555	n/a	n/a	1
460.3850000000	n/a	460385	PunCorrB2	1000	n/a	n/a	1
462.3850000000	n/a	462385	ignore	1700	n/a	n/a	1
464.0850000000	n/a	464085	RewardB2	587	n/a	n/a	0
465.7350000000	n/a	465735	NeuIncorrB2	1000	n/a	n/a	1
467.7350000000	n/a	467735	ignore	1700	n/a	n/a	1
469.4350000000	n/a	469435	PenaltyB2	534	n/a	n/a	1
471.0350000000	n/a	471035	NeuCorrB2	1000	n/a	n/a	1
473.0350000000	n/a	473035	ignore	1700	n/a	n/a	1
474.7350000000	n/a	474735	RewardB2	1490	n/a	n/a	0
477.3010000000	n/a	477301	NeuIncorrB2	1000	n/a	n/a	1
479.3010000000	n/a	479301	ignore	1700	n/a	n/a	1
481.0010000000	n/a	481001	PenaltyB2	520	n/a	n/a	1
482.5850000000	n/a	482585	NeuCorrB2	1000	n/a	n/a	1
484.5850000000	n/a	484585	ignore	1700	n/a	n/a	1
486.2850000000	n/a	486285	RewardB2	2331	n/a	n/a	0
489.6850000000	n/a	489685	RewIncorrB2	1000	n/a	n/a	1
491.6850000000	n/a	491685	ignore	1700	n/a	n/a	1
493.3850000000	n/a	493385	PenaltyB2	804	n/a	n/a	1
495.2510000000	n/a	495251	NeuCorrB2	1000	n/a	n/a	1
497.2510000000	n/a	497251	ignore	1700	n/a	n/a	1
498.9510000000	n/a	498951	RewardB2	1464	n/a	n/a	0
501.4850000000	n/a	501485	NeuIncorrB2	1000	n/a	n/a	1
503.4850000000	n/a	503485	ignore	1700	n/a	n/a	1
505.1850000000	n/a	505185	PenaltyB2	788	n/a	n/a	1
507.0510000000	n/a	507051	NeuCorrB2	1000	n/a	n/a	1
509.0510000000	n/a	509051	ignore	1700	n/a	n/a	1
510.7510000000	n/a	510751	RewardB2	638	n/a	n/a	0
512.4510000000	n/a	512451	NeuIncorrB2	1000	n/a	n/a	1
514.4510000000	n/a	514451	ignore	1700	n/a	n/a	1
516.1510000000	n/a	516151	PenaltyB2	710	n/a	n/a	1
517.9350000000	n/a	517935	PunCorrB2	1000	n/a	n/a	1
519.9350000000	n/a	519935	ignore	1700	n/a	n/a	1
521.6350000000	n/a	521635	PenaltyB2	1920	n/a	n/a	1
524.6180000000	n/a	524618	NeuCorrB2	1000	n/a	n/a	1
526.6180000000	n/a	526618	ignore	1700	n/a	n/a	1
528.3180000000	n/a	528318	PenaltyB2	878	n/a	n/a	1
530.2680000000	n/a	530268	NeuCorrB2	1000	n/a	n/a	1
532.2680000000	n/a	532268	ignore	1700	n/a	n/a	1
533.9680000000	n/a	533968	RewardB2	584	n/a	n/a	0
535.6180000000	n/a	535618	NeuIncorrB2	1000	n/a	n/a	1
537.6180000000	n/a	537618	ignore	1700	n/a	n/a	1
539.3180000000	n/a	539318	RewardB2	909	n/a	n/a	0
541.3010000000	n/a	541301	RewIncorrB2	1000	n/a	n/a	1
543.3010000000	n/a	543301	ignore	1700	n/a	n/a	1
545.0010000000	n/a	545001	RewardB2	1326	n/a	n/a	0
547.4010000000	n/a	547401	NeuIncorrB2	1000	n/a	n/a	1
549.4010000000	n/a	549401	ignore	1700	n/a	n/a	1
551.1010000000	n/a	551101	PenaltyB2	534	n/a	n/a	1
552.7010000000	n/a	552701	NeuCorrB2	1000	n/a	n/a	1
554.7010000000	n/a	554701	ignore	1700	n/a	n/a	1
556.4010000000	n/a	556401	PenaltyB2	614	n/a	n/a	1
558.0850000000	n/a	558085	NeuCorrB2	1000	n/a	n/a	1
560.0850000000	n/a	560085	ignore	1700	n/a	n/a	1
561.7850000000	n/a	561785	RewardB2	525	n/a	n/a	0
563.3850000000	n/a	563385	NeuIncorrB2	1000	n/a	n/a	1
565.3850000000	n/a	565385	ignore	1700	n/a	n/a	1
567.0850000000	n/a	567085	PenaltyB2	605	n/a	n/a	1
568.7680000000	n/a	568768	NeuCorrB2	1000	n/a	n/a	1
570.7680000000	n/a	570768	ignore	1700	n/a	n/a	1
572.4680000000	n/a	572468	RewardB2	451	n/a	n/a	0
573.9850000000	n/a	573985	RewIncorrB2	1000	n/a	n/a	1
575.9850000000	n/a	575985	ignore	1700	n/a	n/a	1
577.6850000000	n/a	577685	PenaltyB2	606	n/a	n/a	1
579.3680000000	n/a	579368	NeuCorrB2	1000	n/a	n/a	1
581.3680000000	n/a	581368	ignore	1700	n/a	n/a	1
583.0680000000	n/a	583068	RewardB2	2087	n/a	n/a	0
586.2180000000	n/a	586218	NeuIncorrB2	1000	n/a	n/a	1
588.2180000000	n/a	588218	ignore	1700	n/a	n/a	1
589.9180000000	n/a	589918	PenaltyB2	1199	n/a	n/a	1
592.1850000000	n/a	592185	NeuCorrB2	1000	n/a	n/a	1
594.1850000000	n/a	594185	ignore	1700	n/a	n/a	1
595.8850000000	n/a	595885	PenaltyB2	724	n/a	n/a	1
597.6850000000	n/a	597685	PunCorrB2	1000	n/a	n/a	1
599.6850000000	n/a	599685	ignore	1700	n/a	n/a	1
601.3850000000	n/a	601385	RewardB2	882	n/a	n/a	0
603.3350000000	n/a	603335	NeuIncorrB2	1000	n/a	n/a	1
605.3350000000	n/a	605335	ignore	1700	n/a	n/a	1
607.0350000000	n/a	607035	PenaltyB2	858	n/a	n/a	1
608.9680000000	n/a	608968	NeuCorrB2	1000	n/a	n/a	1
610.9680000000	n/a	610968	ignore	1700	n/a	n/a	1
612.6680000000	n/a	612668	RewardB2	1758	n/a	n/a	0
615.5010000000	n/a	615501	NeuIncorrB2	1000	n/a	n/a	1
617.5010000000	n/a	617501	ignore	1700	n/a	n/a	1
619.2010000000	n/a	619201	PenaltyB2	595	n/a	n/a	1
620.8680000000	n/a	620868	PunCorrB2	1000	n/a	n/a	1
622.8680000000	n/a	622868	ignore	1700	n/a	n/a	1
624.5680000000	n/a	624568	RewardB2	625	n/a	n/a	0
626.2680000000	n/a	626268	NeuIncorrB2	1000	n/a	n/a	1
628.2680000000	n/a	628268	ignore	1700	n/a	n/a	1
638.3010000000	n/a	638301	RewardB3	589	n/a	n/a	0
639.9680000000	n/a	639968	NeuIncorrB3	1000	n/a	n/a	1
641.9680000000	n/a	641968	ignore	1700	n/a	n/a	1
643.6680000000	n/a	643668	PenaltyB3	786	n/a	n/a	1
645.5180000000	n/a	645518	PunCorrB3	1000	n/a	n/a	1
647.5180000000	n/a	647518	STATUS	1700	n/a	n/a	1
649.2180000000	n/a	649218	RewardB3	749	n/a	n/a	0
651.0340000000	n/a	651034	NeuIncorrB3	1000	n/a	n/a	1
653.0340000000	n/a	653034	STATUS	1700	n/a	n/a	1
654.7340000000	n/a	654734	PenaltyB3	1164	n/a	n/a	1
656.9680000000	n/a	656968	NeuCorrB3	1000	n/a	n/a	1
658.9680000000	n/a	658968	STATUS	1700	n/a	n/a	1
660.6680000000	n/a	660668	PenaltyB3	666	n/a	n/a	1
662.4010000000	n/a	662401	NeuCorrB3	1000	n/a	n/a	1
664.4010000000	n/a	664401	STATUS	1700	n/a	n/a	1
666.1010000000	n/a	666101	RewardB3	645	n/a	n/a	0
667.8180000000	n/a	667818	NeuIncorrB3	1000	n/a	n/a	1
669.8180000000	n/a	669818	STATUS	1700	n/a	n/a	1
671.5180000000	n/a	671518	PenaltyB3	569	n/a	n/a	1
673.1510000000	n/a	673151	PunCorrB3	1000	n/a	n/a	1
675.1510000000	n/a	675151	STATUS	1700	n/a	n/a	1
676.8510000000	n/a	676851	RewardB3	798	n/a	n/a	0
678.7180000000	n/a	678718	NeuIncorrB3	1000	n/a	n/a	1
680.7180000000	n/a	680718	STATUS	1700	n/a	n/a	1
682.4180000000	n/a	682418	PenaltyB3	516	n/a	n/a	1
684.0010000000	n/a	684001	NeuCorrB3	1000	n/a	n/a	1
686.0010000000	n/a	686001	STATUS	1700	n/a	n/a	1
687.7010000000	n/a	687701	RewardB3	760	n/a	n/a	0
689.5340000000	n/a	689534	RewIncorrB3	1000	n/a	n/a	1
691.5340000000	n/a	691534	STATUS	1700	n/a	n/a	1
693.2340000000	n/a	693234	PenaltyB3	533	n/a	n/a	1
694.8340000000	n/a	694834	NeuCorrB3	1000	n/a	n/a	1
696.8340000000	n/a	696834	STATUS	1700	n/a	n/a	1
698.5340000000	n/a	698534	RewardB3	896	n/a	n/a	0
700.5010000000	n/a	700501	NeuIncorrB3	1000	n/a	n/a	1
702.5010000000	n/a	702501	STATUS	1700	n/a	n/a	1
704.2010000000	n/a	704201	RewardB3	661	n/a	n/a	0
705.9340000000	n/a	705934	NeuIncorrB3	1000	n/a	n/a	1
707.9340000000	n/a	707934	STATUS	1700	n/a	n/a	1
709.6340000000	n/a	709634	RewardB3	591	n/a	n/a	0
711.3010000000	n/a	711301	NeuIncorrB3	1000	n/a	n/a	1
713.3010000000	n/a	713301	STATUS	1700	n/a	n/a	1
715.0010000000	n/a	715001	PenaltyB3	516	n/a	n/a	1
716.5840000000	n/a	716584	PunCorrB3	1000	n/a	n/a	1
718.5840000000	n/a	718584	STATUS	1700	n/a	n/a	1
720.2840000000	n/a	720284	RewardB3	2772	n/a	n/a	0
724.1340000000	n/a	724134	NeuIncorrB3	1000	n/a	n/a	1
726.1340000000	n/a	726134	STATUS	1700	n/a	n/a	1
727.8340000000	n/a	727834	PenaltyB3	1744	n/a	n/a	1
730.6510000000	n/a	730651	NeuCorrB3	1000	n/a	n/a	1
732.6510000000	n/a	732651	STATUS	1700	n/a	n/a	1
734.3510000000	n/a	734351	RewardB3	498	n/a	n/a	0
735.9180000000	n/a	735918	NeuIncorrB3	1000	n/a	n/a	1
737.9180000000	n/a	737918	STATUS	1700	n/a	n/a	1
739.6180000000	n/a	739618	RewardB3	530	n/a	n/a	0
741.2180000000	n/a	741218	NeuIncorrB3	1000	n/a	n/a	1
743.2180000000	n/a	743218	STATUS	1700	n/a	n/a	1
744.9180000000	n/a	744918	RewardB3	487	n/a	n/a	0
746.4680000000	n/a	746468	RewIncorrB3	1000	n/a	n/a	1
748.4680000000	n/a	748468	STATUS	1700	n/a	n/a	1
750.1680000000	n/a	750168	RewardB3	1382	n/a	n/a	0
752.6180000000	n/a	752618	NeuIncorrB3	1000	n/a	n/a	1
754.6180000000	n/a	754618	STATUS	1700	n/a	n/a	1
756.3180000000	n/a	756318	RewardB3	923	n/a	n/a	0
758.3180000000	n/a	758318	NeuIncorrB3	1000	n/a	n/a	1
760.3180000000	n/a	760318	STATUS	1700	n/a	n/a	1
762.0180000000	n/a	762018	PenaltyB3	2900	n/a	n/a	0
765.9840000000	n/a	765984	PunIncorrB3	1000	n/a	n/a	1
767.9840000000	n/a	767984	STATUS	1700	n/a	n/a	1
769.6840000000	n/a	769684	RewardB3	536	n/a	n/a	0
771.2840000000	n/a	771284	RewIncorrB3	1000	n/a	n/a	1
773.2840000000	n/a	773284	STATUS	1700	n/a	n/a	1
774.9840000000	n/a	774984	PenaltyB3	649	n/a	n/a	1
776.7010000000	n/a	776701	NeuCorrB3	1000	n/a	n/a	1
778.7010000000	n/a	778701	STATUS	1700	n/a	n/a	1
780.4010000000	n/a	780401	PenaltyB3	1613	n/a	n/a	1
783.0840000000	n/a	783084	NeuCorrB3	1000	n/a	n/a	1
785.0840000000	n/a	785084	STATUS	1700	n/a	n/a	1
786.7840000000	n/a	786784	RewardB3	523	n/a	n/a	0
788.3840000000	n/a	788384	NeuIncorrB3	1000	n/a	n/a	1
790.3840000000	n/a	790384	STATUS	1700	n/a	n/a	1
792.0840000000	n/a	792084	PenaltyB3	1460	n/a	n/a	1
794.6180000000	n/a	794618	NeuCorrB3	1000	n/a	n/a	1
796.6180000000	n/a	796618	STATUS	1700	n/a	n/a	1
798.3180000000	n/a	798318	RewardB3	600	n/a	n/a	0
799.9840000000	n/a	799984	RewIncorrB3	1000	n/a	n/a	1
801.9840000000	n/a	801984	ignore	1700	n/a	n/a	1
803.6840000000	n/a	803684	PenaltyB3	633	n/a	n/a	1
805.3840000000	n/a	805384	NeuCorrB3	1000	n/a	n/a	1
807.3840000000	n/a	807384	ignore	1700	n/a	n/a	1
809.0840000000	n/a	809084	RewardB3	519	n/a	n/a	0
810.6680000000	n/a	810668	NeuIncorrB3	1000	n/a	n/a	1
812.6680000000	n/a	812668	ignore	1700	n/a	n/a	1
814.3680000000	n/a	814368	PenaltyB3	555	n/a	n/a	1
816.0010000000	n/a	816001	PunCorrB3	1000	n/a	n/a	1
818.0010000000	n/a	818001	STATUS	1700	n/a	n/a	1
819.7010000000	n/a	819701	PenaltyB3	597	n/a	n/a	1
821.3680000000	n/a	821368	NeuCorrB3	1000	n/a	n/a	1
823.3680000000	n/a	823368	STATUS	1700	n/a	n/a	1
825.0670000000	n/a	825067	PenaltyB3	544	n/a	n/a	1
826.6840000000	n/a	826684	NeuCorrB3	1000	n/a	n/a	1
828.6840000000	n/a	828684	STATUS	1700	n/a	n/a	1
830.3840000000	n/a	830384	PenaltyB3	528	n/a	n/a	1
831.9840000000	n/a	831984	NeuCorrB3	1000	n/a	n/a	1
833.9840000000	n/a	833984	STATUS	1700	n/a	n/a	1
835.6840000000	n/a	835684	RewardB3	616	n/a	n/a	0
837.3670000000	n/a	837367	NeuIncorrB3	1000	n/a	n/a	1
839.3680000000	n/a	839368	STATUS	1700	n/a	n/a	1
841.0670000000	n/a	841067	RewardB3	517	n/a	n/a	0
842.6510000000	n/a	842651	NeuIncorrB3	1000	n/a	n/a	1
844.6510000000	n/a	844651	STATUS	1700	n/a	n/a	1
846.3510000000	n/a	846351	PenaltyB3	518	n/a	n/a	1
847.9340000000	n/a	847934	NeuCorrB3	1000	n/a	n/a	1
849.9340000000	n/a	849934	STATUS	1700	n/a	n/a	1
851.6340000000	n/a	851634	PenaltyB3	500	n/a	n/a	0
853.2010000000	n/a	853201	PunIncorrB3	1000	n/a	n/a	1
855.2010000000	n/a	855201	STATUS	1700	n/a	n/a	1
856.9010000000	n/a	856901	PenaltyB3	528	n/a	n/a	1
858.5010000000	n/a	858501	NeuCorrB3	1000	n/a	n/a	1
860.5010000000	n/a	860501	STATUS	1700	n/a	n/a	1
865.9510000000	n/a	865951	RewardB4	1215	n/a	n/a	0
868.2340000000	n/a	868234	NeuIncorrB4	1000	n/a	n/a	1
870.2340000000	n/a	870234	STATUS	1700	n/a	n/a	1
871.9340000000	n/a	871934	PenaltyB4	444	n/a	n/a	1
873.4510000000	n/a	873451	PunCorrB4	1000	n/a	n/a	1
875.4510000000	n/a	875451	STATUS	1700	n/a	n/a	1
877.1510000000	n/a	877151	RewardB4	811	n/a	n/a	0
879.0340000000	n/a	879034	NeuIncorrB4	1000	n/a	n/a	1
881.0340000000	n/a	881034	STATUS	1700	n/a	n/a	1
882.7340000000	n/a	882734	PenaltyB4	6299	n/a	n/a	1
890.1010000000	n/a	890101	NeuCorrB4	1000	n/a	n/a	1
892.1010000000	n/a	892101	STATUS	1700	n/a	n/a	1
893.8010000000	n/a	893801	RewardB4	898	n/a	n/a	0
895.7670000000	n/a	895767	NeuIncorrB4	1000	n/a	n/a	1
897.7670000000	n/a	897767	STATUS	1700	n/a	n/a	1
899.4670000000	n/a	899467	PenaltyB4	575	n/a	n/a	0
901.1170000000	n/a	901117	NeuIncorrB4	1000	n/a	n/a	1
903.1170000000	n/a	903117	STATUS	1700	n/a	n/a	1
904.8170000000	n/a	904817	PenaltyB4	539	n/a	n/a	0
906.4340000000	n/a	906434	PunIncorrB4	1000	n/a	n/a	1
908.4340000000	n/a	908434	STATUS	1700	n/a	n/a	1
910.1340000000	n/a	910134	RewardB4	734	n/a	n/a	0
911.9340000000	n/a	911934	NeuIncorrB4	1000	n/a	n/a	1
913.9340000000	n/a	913934	STATUS	1700	n/a	n/a	1
915.6340000000	n/a	915634	PenaltyB4	930	n/a	n/a	1
917.6340000000	n/a	917634	NeuCorrB4	1000	n/a	n/a	1
919.6340000000	n/a	919634	STATUS	1700	n/a	n/a	1
921.3340000000	n/a	921334	RewardB4	920	n/a	n/a	0
923.3170000000	n/a	923317	RewIncorrB4	1000	n/a	n/a	1
925.3170000000	n/a	925317	STATUS	1700	n/a	n/a	1
927.0170000000	n/a	927017	PenaltyB4	797	n/a	n/a	1
928.8840000000	n/a	928884	NeuCorrB4	1000	n/a	n/a	1
930.8840000000	n/a	930884	STATUS	1700	n/a	n/a	1
932.5840000000	n/a	932584	RewardB4	1198	n/a	n/a	0
934.8510000000	n/a	934851	NeuIncorrB4	1000	n/a	n/a	1
936.8510000000	n/a	936851	STATUS	1700	n/a	n/a	1
938.5510000000	n/a	938551	PenaltyB4	1299	n/a	n/a	1
940.9170000000	n/a	940917	NeuCorrB4	1000	n/a	n/a	1
942.9170000000	n/a	942917	STATUS	1700	n/a	n/a	1
944.6170000000	n/a	944617	PenaltyB4	570	n/a	n/a	1
946.2510000000	n/a	946251	NeuCorrB4	1000	n/a	n/a	1
948.2510000000	n/a	948251	STATUS	1700	n/a	n/a	1
949.9510000000	n/a	949951	RewardB4	767	n/a	n/a	0
951.7840000000	n/a	951784	NeuIncorrB4	1000	n/a	n/a	1
953.7840000000	n/a	953784	STATUS	1700	n/a	n/a	1
955.4840000000	n/a	955484	RewardB4	472	n/a	n/a	0
957.0340000000	n/a	957034	RewIncorrB4	1000	n/a	n/a	1
959.0340000000	n/a	959034	STATUS	1700	n/a	n/a	1
960.7340000000	n/a	960734	RewardB4	1987	n/a	n/a	0
963.7840000000	n/a	963784	NeuIncorrB4	1000	n/a	n/a	1
965.7840000000	n/a	965784	STATUS	1700	n/a	n/a	1
967.4840000000	n/a	967484	PenaltyB4	651	n/a	n/a	1
969.2010000000	n/a	969201	NeuCorrB4	1000	n/a	n/a	1
971.2010000000	n/a	971201	STATUS	1700	n/a	n/a	1
972.9010000000	n/a	972901	PenaltyB4	1484	n/a	n/a	1
975.4510000000	n/a	975451	NeuCorrB4	1000	n/a	n/a	1
977.4510000000	n/a	977451	STATUS	1700	n/a	n/a	1
979.1510000000	n/a	979151	PenaltyB4	1011	n/a	n/a	1
981.2340000000	n/a	981234	PunCorrB4	1000	n/a	n/a	1
983.2340000000	n/a	983234	STATUS	1700	n/a	n/a	1
984.9340000000	n/a	984934	RewardB4	2777	n/a	n/a	0
988.7840000000	n/a	988784	NeuIncorrB4	1000	n/a	n/a	1
990.7840000000	n/a	990784	STATUS	1700	n/a	n/a	1
992.4840000000	n/a	992484	PenaltyB4	528	n/a	n/a	1
994.0840000000	n/a	994084	NeuCorrB4	1000	n/a	n/a	1
996.0840000000	n/a	996084	STATUS	1700	n/a	n/a	1
997.7840000000	n/a	997784	RewardB4	510	n/a	n/a	0
999.3670000000	n/a	999367	NeuIncorrB4	1000	n/a	n/a	1
1001.3670000000	n/a	1001367	STATUS	1700	n/a	n/a	1
1003.0670000000	n/a	1003067	PenaltyB4	741	n/a	n/a	1
1004.8840000000	n/a	1004884	NeuCorrB4	1000	n/a	n/a	1
1006.8840000000	n/a	1006884	STATUS	1700	n/a	n/a	1
1008.5840000000	n/a	1008584	RewardB4	561	n/a	n/a	0
1010.2170000000	n/a	1010217	RewIncorrB4	1000	n/a	n/a	1
1012.2170000000	n/a	1012217	STATUS	1700	n/a	n/a	1
1013.9170000000	n/a	1013917	PenaltyB4	1522	n/a	n/a	1
1016.5170000000	n/a	1016517	NeuCorrB4	1000	n/a	n/a	1
1018.5170000000	n/a	1018517	STATUS	1700	n/a	n/a	1
1020.2170000000	n/a	1020217	RewardB4	1787	n/a	n/a	0
1023.0670000000	n/a	1023067	NeuIncorrB4	1000	n/a	n/a	1
1025.0670000000	n/a	1025067	STATUS	1700	n/a	n/a	1
1026.7670000000	n/a	1026767	PenaltyB4	1410	n/a	n/a	1
1029.2510000000	n/a	1029251	NeuCorrB4	1000	n/a	n/a	1
1031.2510000000	n/a	1031251	STATUS	1700	n/a	n/a	1
1032.9510000000	n/a	1032951	RewardB4	1160	n/a	n/a	0
1035.1840000000	n/a	1035184	NeuIncorrB4	1000	n/a	n/a	1
1037.1840000000	n/a	1037184	STATUS	1700	n/a	n/a	1
1038.8840000000	n/a	1038884	PenaltyB4	491	n/a	n/a	1
1040.4500000000	n/a	1040450	PunCorrB4	1000	n/a	n/a	1
1042.4510000000	n/a	1042451	STATUS	1700	n/a	n/a	1
1044.1500000000	n/a	1044150	RewardB4	1256	n/a	n/a	0
1046.4840000000	n/a	1046484	NeuIncorrB4	1000	n/a	n/a	1
1048.4840000000	n/a	1048484	STATUS	1700	n/a	n/a	1
1050.1840000000	n/a	1050184	PenaltyB4	477	n/a	n/a	1
1051.7340000000	n/a	1051734	NeuCorrB4	1000	n/a	n/a	1
1053.7340000000	n/a	1053734	STATUS	1700	n/a	n/a	1
1055.4340000000	n/a	1055434	RewardB4	659	n/a	n/a	0
1057.1670000000	n/a	1057167	NeuIncorrB4	1000	n/a	n/a	1
1059.1670000000	n/a	1059167	STATUS	1700	n/a	n/a	1
1060.8670000000	n/a	1060867	PenaltyB4	616	n/a	n/a	1
1062.5500000000	n/a	1062550	NeuCorrB4	1000	n/a	n/a	1
1064.5510000000	n/a	1064551	STATUS	1700	n/a	n/a	1
1066.2500000000	n/a	1066250	RewardB4	468	n/a	n/a	0
1067.7840000000	n/a	1067784	NeuIncorrB4	1000	n/a	n/a	1
1069.7840000000	n/a	1069784	STATUS	1700	n/a	n/a	1
1071.4840000000	n/a	1071484	PenaltyB4	643	n/a	n/a	1
1073.2000000000	n/a	1073200	NeuCorrB4	1000	n/a	n/a	1
1075.2010000000	n/a	1075201	STATUS	1700	n/a	n/a	1
1076.9000000000	n/a	1076900	RewardB4	1441	n/a	n/a	0
1079.4170000000	n/a	1079417	RewIncorrB4	1000	n/a	n/a	1
1081.4170000000	n/a	1081417	STATUS	1700	n/a	n/a	1
1083.1170000000	n/a	1083117	RewardB4	2695	n/a	n/a	0
1086.8840000000	n/a	1086884	NeuIncorrB4	1000	n/a	n/a	1
1088.8840000000	n/a	1088884	STATUS	1700	n/a	n/a	1
1090.5840000000	n/a	1090584	PenaltyB4	1221	n/a	n/a	1
1092.8670000000	n/a	1092867	NeuCorrB4	1000	n/a	n/a	1
1094.8670000000	n/a	1094867	STATUS	1700	n/a	n/a	1
1096.5670000000	n/a	1096567	RewardB4	1187	n/a	n/a	0
1098.8170000000	n/a	1098817	NeuIncorrB4	1000	n/a	n/a	1
1100.8170000000	n/a	1100817	STATUS	1700	n/a	n/a	1
1106.4000000000	n/a	1106400	STATUS	1700	n/a	n/a	1
