onset	duration	sample	trial_type	response_time	stim_file	value	correct
2.3240000000	n/a	2324	ignore	n/a	n/a	n/a	n/a
5.4240000000	n/a	5424	ignore	n/a	n/a	n/a	n/a
8.4390000000	n/a	8439	ignore	n/a	n/a	n/a	n/a
24.3900000000	n/a	24390	ignore	n/a	n/a	n/a	n/a
27.4900000000	n/a	27490	ignore	n/a	n/a	n/a	n/a
30.4770000000	n/a	30477	ignore	n/a	n/a	n/a	n/a
47.5740000000	n/a	47574	NeuStim	n/a	n/a	n/a	n/a
50.6740000000	n/a	50674	NeuNonAlcP1000	n/a	n/a	n/a	n/a
55.6610000000	n/a	55661	NeuNonAlcP1000	n/a	n/a	n/a	n/a
66.1070000000	n/a	66107	PosStim	n/a	n/a	n/a	n/a
69.1400000000	n/a	69140	PosAlcStimWithoutStartle	n/a	n/a	n/a	n/a
83.0240000000	n/a	83024	NeuStim	n/a	n/a	n/a	n/a
86.1240000000	n/a	86124	NeuAlcP2000	n/a	n/a	n/a	n/a
90.1110000000	n/a	90111	NeuAlcP2000	n/a	n/a	n/a	n/a
99.1900000000	n/a	99190	NegStim	n/a	n/a	n/a	n/a
102.2900000000	n/a	102290	NegNonAlcP2000	n/a	n/a	n/a	n/a
106.2770000000	n/a	106277	NegNonAlcP2000	n/a	n/a	n/a	n/a
118.9240000000	n/a	118924	NeuStim	n/a	n/a	n/a	n/a
121.9570000000	n/a	121957	NeuNonAlcStimWithoutStartle	n/a	n/a	n/a	n/a
136.0900000000	n/a	136090	PosStim	n/a	n/a	n/a	n/a
139.1900000000	n/a	139190	PosNonAlcP1000	n/a	n/a	n/a	n/a
144.1770000000	n/a	144177	PosNonAlcP1000	n/a	n/a	n/a	n/a
155.9570000000	n/a	155957	NeuStim	n/a	n/a	n/a	n/a
159.0570000000	n/a	159057	NeuAlcP1000	n/a	n/a	n/a	n/a
164.0440000000	n/a	164044	NeuAlcP1000	n/a	n/a	n/a	n/a
173.1400000000	n/a	173140	NegStim	n/a	n/a	n/a	n/a
176.1730000000	n/a	176173	NegNonAlcStimWithoutStartle	n/a	n/a	n/a	n/a
192.9230000000	n/a	192923	NeuStim	n/a	n/a	n/a	n/a
196.0230000000	n/a	196023	NeuNonAlcP1000	n/a	n/a	n/a	n/a
201.0100000000	n/a	201010	NeuNonAlcP1000	n/a	n/a	n/a	n/a
212.6400000000	n/a	212640	NegStim	n/a	n/a	n/a	n/a
215.7400000000	n/a	215740	NegNonAlcP3000	n/a	n/a	n/a	n/a
218.7270000000	n/a	218727	NegNonAlcP3000	n/a	n/a	n/a	n/a
231.8900000000	n/a	231890	PosStim	n/a	n/a	n/a	n/a
234.9900000000	n/a	234990	PosNonAlcP3000	n/a	n/a	n/a	n/a
237.9770000000	n/a	237977	PosNonAlcP3000	n/a	n/a	n/a	n/a
248.9570000000	n/a	248957	NeuStim	n/a	n/a	n/a	n/a
252.0570000000	n/a	252057	NeuAlcP1000	n/a	n/a	n/a	n/a
257.0440000000	n/a	257044	NeuAlcP1000	n/a	n/a	n/a	n/a
268.0900000000	n/a	268090	NegStim	n/a	n/a	n/a	n/a
271.1230000000	n/a	271123	NegAlcStimWithoutStartle	n/a	n/a	n/a	n/a
286.0570000000	n/a	286057	PosStim	n/a	n/a	n/a	n/a
289.0900000000	n/a	289090	PosNonAlcStimWithoutStartle	n/a	n/a	n/a	n/a
303.1570000000	n/a	303157	NegStim	n/a	n/a	n/a	n/a
306.2570000000	n/a	306257	NegAlcP3000	n/a	n/a	n/a	n/a
309.2440000000	n/a	309244	NegAlcP3000	n/a	n/a	n/a	n/a
319.6400000000	n/a	319640	NeuStim	n/a	n/a	n/a	n/a
322.6730000000	n/a	322673	NeuAlcStimWithoutStartle	n/a	n/a	n/a	n/a
337.0730000000	n/a	337073	PosStim	n/a	n/a	n/a	n/a
340.1730000000	n/a	340173	PosNonAlcP1000	n/a	n/a	n/a	n/a
345.1600000000	n/a	345160	PosNonAlcP1000	n/a	n/a	n/a	n/a
353.5400000000	n/a	353540	NegStim	n/a	n/a	n/a	n/a
356.6400000000	n/a	356640	NegAlcP3000	n/a	n/a	n/a	n/a
359.6270000000	n/a	359627	NegAlcP3000	n/a	n/a	n/a	n/a
372.1400000000	n/a	372140	NegStim	n/a	n/a	n/a	n/a
375.1730000000	n/a	375173	NegNonAlcStimWithoutStartle	n/a	n/a	n/a	n/a
389.7900000000	n/a	389790	PosStim	n/a	n/a	n/a	n/a
392.8900000000	n/a	392890	PosAlcP1000	n/a	n/a	n/a	n/a
397.8770000000	n/a	397877	PosAlcP1000	n/a	n/a	n/a	n/a
408.2560000000	n/a	408256	NeuStim	n/a	n/a	n/a	n/a
411.2900000000	n/a	411290	NeuAlcStimWithoutStartle	n/a	n/a	n/a	n/a
427.7560000000	n/a	427756	NegStim	n/a	n/a	n/a	n/a
430.8560000000	n/a	430856	NegNonAlcP1000	n/a	n/a	n/a	n/a
435.8430000000	n/a	435843	NegNonAlcP1000	n/a	n/a	n/a	n/a
446.7060000000	n/a	446706	PosStim	n/a	n/a	n/a	n/a
449.8060000000	n/a	449806	PosAlcP3000	n/a	n/a	n/a	n/a
452.7930000000	n/a	452793	PosAlcP3000	n/a	n/a	n/a	n/a
463.4900000000	n/a	463490	NeuStim	n/a	n/a	n/a	n/a
466.5900000000	n/a	466590	NeuAlcP3000	n/a	n/a	n/a	n/a
469.5770000000	n/a	469577	NeuAlcP3000	n/a	n/a	n/a	n/a
480.8900000000	n/a	480890	NegStim	n/a	n/a	n/a	n/a
483.9230000000	n/a	483923	NegAlcStimWithoutStartle	n/a	n/a	n/a	n/a
498.1230000000	n/a	498123	PosStim	n/a	n/a	n/a	n/a
501.2230000000	n/a	501223	PosNonAlcP2000	n/a	n/a	n/a	n/a
505.2100000000	n/a	505210	PosNonAlcP2000	n/a	n/a	n/a	n/a
515.9560000000	n/a	515956	NegStim	n/a	n/a	n/a	n/a
519.0560000000	n/a	519056	NegAlcP2000	n/a	n/a	n/a	n/a
523.0430000000	n/a	523043	NegAlcP2000	n/a	n/a	n/a	n/a
532.5730000000	n/a	532573	PosStim	n/a	n/a	n/a	n/a
535.6730000000	n/a	535673	PosAlcP2000	n/a	n/a	n/a	n/a
539.6600000000	n/a	539660	PosAlcP2000	n/a	n/a	n/a	n/a
550.5730000000	n/a	550573	NeuStim	n/a	n/a	n/a	n/a
553.6060000000	n/a	553606	NeuAlcStimWithoutStartle	n/a	n/a	n/a	n/a
569.1230000000	n/a	569123	NegStim	n/a	n/a	n/a	n/a
572.2230000000	n/a	572223	NegNonAlcP1000	n/a	n/a	n/a	n/a
577.2100000000	n/a	577210	NegNonAlcP1000	n/a	n/a	n/a	n/a
587.6390000000	n/a	587639	NeuStim	n/a	n/a	n/a	n/a
590.7390000000	n/a	590739	NeuNonAlcP1000	n/a	n/a	n/a	n/a
595.7260000000	n/a	595726	NeuNonAlcP1000	n/a	n/a	n/a	n/a
606.8730000000	n/a	606873	PosStim	n/a	n/a	n/a	n/a
609.9730000000	n/a	609973	PosNonAlcP3000	n/a	n/a	n/a	n/a
612.9600000000	n/a	612960	PosNonAlcP3000	n/a	n/a	n/a	n/a
623.7390000000	n/a	623739	NeuStim	n/a	n/a	n/a	n/a
626.7730000000	n/a	626773	NeuNonAlcStimWithoutStartle	n/a	n/a	n/a	n/a
643.5890000000	n/a	643589	NegStim	n/a	n/a	n/a	n/a
646.6230000000	n/a	646623	NegNonAlcStimWithoutStartle	n/a	n/a	n/a	n/a
662.4060000000	n/a	662406	NeuStim	n/a	n/a	n/a	n/a
665.5060000000	n/a	665506	NeuNonAlcP3000	n/a	n/a	n/a	n/a
668.4930000000	n/a	668493	NeuNonAlcP3000	n/a	n/a	n/a	n/a
681.6230000000	n/a	681623	PosStim	n/a	n/a	n/a	n/a
684.7230000000	n/a	684723	PosAlcP1000	n/a	n/a	n/a	n/a
689.7100000000	n/a	689710	PosAlcP1000	n/a	n/a	n/a	n/a
700.8230000000	n/a	700823	NegStim	n/a	n/a	n/a	n/a
703.9230000000	n/a	703923	NegNonAlcP1000	n/a	n/a	n/a	n/a
708.9100000000	n/a	708910	NegNonAlcP1000	n/a	n/a	n/a	n/a
717.4890000000	n/a	717489	PosStim	n/a	n/a	n/a	n/a
720.5230000000	n/a	720523	PosNonAlcStimWithoutStartle	n/a	n/a	n/a	n/a
735.0060000000	n/a	735006	NeuStim	n/a	n/a	n/a	n/a
738.1060000000	n/a	738106	NeuAlcP2000	n/a	n/a	n/a	n/a
742.0930000000	n/a	742093	NeuAlcP2000	n/a	n/a	n/a	n/a
751.1730000000	n/a	751173	PosStim	n/a	n/a	n/a	n/a
754.2730000000	n/a	754273	PosAlcP1000	n/a	n/a	n/a	n/a
759.2600000000	n/a	759260	PosAlcP1000	n/a	n/a	n/a	n/a
769.2890000000	n/a	769289	NegStim	n/a	n/a	n/a	n/a
772.3220000000	n/a	772322	NegNonAlcStimWithoutStartle	n/a	n/a	n/a	n/a
789.0390000000	n/a	789039	PosStim	n/a	n/a	n/a	n/a
792.1390000000	n/a	792139	PosNonAlcP2000	n/a	n/a	n/a	n/a
796.1260000000	n/a	796126	PosNonAlcP2000	n/a	n/a	n/a	n/a
805.6390000000	n/a	805639	NegStim	n/a	n/a	n/a	n/a
808.7390000000	n/a	808739	NegNonAlcP3000	n/a	n/a	n/a	n/a
811.7260000000	n/a	811726	NegNonAlcP3000	n/a	n/a	n/a	n/a
822.6560000000	n/a	822656	NeuStim	n/a	n/a	n/a	n/a
825.7560000000	n/a	825756	NeuNonAlcP2000	n/a	n/a	n/a	n/a
829.7430000000	n/a	829743	NeuNonAlcP2000	n/a	n/a	n/a	n/a
838.8220000000	n/a	838822	NegStim	n/a	n/a	n/a	n/a
841.8560000000	n/a	841856	NegAlcStimWithoutStartle	n/a	n/a	n/a	n/a
856.5890000000	n/a	856589	PosStim	n/a	n/a	n/a	n/a
859.6220000000	n/a	859622	PosAlcStimWithoutStartle	n/a	n/a	n/a	n/a
872.8560000000	n/a	872856	NeuStim	n/a	n/a	n/a	n/a
875.9560000000	n/a	875956	NeuAlcP3000	n/a	n/a	n/a	n/a
878.9430000000	n/a	878943	NeuAlcP3000	n/a	n/a	n/a	n/a
890.1720000000	n/a	890172	NegStim	n/a	n/a	n/a	n/a
893.2720000000	n/a	893272	NegNonAlcP1000	n/a	n/a	n/a	n/a
898.2590000000	n/a	898259	NegNonAlcP1000	n/a	n/a	n/a	n/a
908.0060000000	n/a	908006	NeuStim	n/a	n/a	n/a	n/a
911.1060000000	n/a	911106	NeuNonAlcP2000	n/a	n/a	n/a	n/a
915.0930000000	n/a	915093	NeuNonAlcP2000	n/a	n/a	n/a	n/a
925.7060000000	n/a	925706	PosStim	n/a	n/a	n/a	n/a
928.7390000000	n/a	928739	PosAlcStimWithoutStartle	n/a	n/a	n/a	n/a
942.3560000000	n/a	942356	NegStim	n/a	n/a	n/a	n/a
945.4560000000	n/a	945456	NegNonAlcP2000	n/a	n/a	n/a	n/a
949.4430000000	n/a	949443	NegNonAlcP2000	n/a	n/a	n/a	n/a
959.1890000000	n/a	959189	NeuStim	n/a	n/a	n/a	n/a
962.2890000000	n/a	962289	NeuAlcP1000	n/a	n/a	n/a	n/a
967.2760000000	n/a	967276	NeuAlcP1000	n/a	n/a	n/a	n/a
