onset	duration	sample	trial_type	response_time	stim_file	value	correct
3.4240000000	n/a	3424	FrequentFixedSOA	1633	n/a	n/a	1
5.0570000000	n/a	5057	FrequentFixedSOA	1633	n/a	n/a	1
6.6900000000	n/a	6690	FrequentFixedSOA	1633	n/a	n/a	1
8.3240000000	n/a	8324	FrequentFixedSOA	1633	n/a	n/a	1
9.9570000000	n/a	9957	FrequentFixedSOA	1633	n/a	n/a	1
11.5900000000	n/a	11590	FrequentFixedSOA	1633	n/a	n/a	1
13.2240000000	n/a	13224	FrequentFixedSOA	1633	n/a	n/a	1
14.8570000000	n/a	14857	FrequentFixedSOA	1633	n/a	n/a	1
16.4900000000	n/a	16490	FrequentFixedSOA	1633	n/a	n/a	1
18.1240000000	n/a	18124	FrequentFixedSOA	1633	n/a	n/a	1
19.7570000000	n/a	19757	NovelFixedSOA	1633	n/a	n/a	1
21.3900000000	n/a	21390	FrequentFixedSOA	1633	n/a	n/a	1
23.0240000000	n/a	23024	GoFixedSOA	413	n/a	n/a	1
24.6570000000	n/a	24657	FrequentFixedSOA	1633	n/a	n/a	1
26.2900000000	n/a	26290	FrequentFixedSOA	1633	n/a	n/a	1
27.9240000000	n/a	27924	FrequentFixedSOA	1633	n/a	n/a	1
29.5570000000	n/a	29557	GoFixedSOA	333	n/a	n/a	1
31.1900000000	n/a	31190	FrequentFixedSOA	1633	n/a	n/a	1
32.8240000000	n/a	32824	FrequentFixedSOA	1633	n/a	n/a	1
34.4570000000	n/a	34457	FrequentFixedSOA	1633	n/a	n/a	1
36.0900000000	n/a	36090	NovelFixedSOA	1633	n/a	n/a	1
37.7240000000	n/a	37724	FrequentFixedSOA	1633	n/a	n/a	1
39.3570000000	n/a	39357	FrequentFixedSOA	1633	n/a	n/a	1
40.9900000000	n/a	40990	FrequentFixedSOA	1633	n/a	n/a	1
42.6240000000	n/a	42624	GoFixedSOA	310	n/a	n/a	1
44.2570000000	n/a	44257	FrequentFixedSOA	1633	n/a	n/a	1
45.8900000000	n/a	45890	NovelFixedSOA	1633	n/a	n/a	1
47.5240000000	n/a	47524	FrequentFixedSOA	1633	n/a	n/a	1
49.1570000000	n/a	49157	FrequentFixedSOA	1633	n/a	n/a	1
50.7900000000	n/a	50790	FrequentFixedSOA	1633	n/a	n/a	1
52.4240000000	n/a	52424	GoFixedSOA	271	n/a	n/a	1
54.0570000000	n/a	54057	FrequentFixedSOA	1633	n/a	n/a	1
55.6900000000	n/a	55690	GoFixedSOA	390	n/a	n/a	1
57.3240000000	n/a	57324	FrequentFixedSOA	1633	n/a	n/a	1
58.9570000000	n/a	58957	FrequentFixedSOA	1633	n/a	n/a	1
60.5900000000	n/a	60590	GoFixedSOA	304	n/a	n/a	1
62.2230000000	n/a	62223	FrequentFixedSOA	1633	n/a	n/a	1
63.8570000000	n/a	63857	FrequentFixedSOA	1633	n/a	n/a	1
65.4900000000	n/a	65490	FrequentFixedSOA	1633	n/a	n/a	1
67.1230000000	n/a	67123	FrequentFixedSOA	1633	n/a	n/a	1
68.7570000000	n/a	68757	NovelFixedSOA	1633	n/a	n/a	1
70.3900000000	n/a	70390	FrequentFixedSOA	1633	n/a	n/a	1
72.0230000000	n/a	72023	NovelFixedSOA	1633	n/a	n/a	1
73.6570000000	n/a	73657	FrequentFixedSOA	1633	n/a	n/a	1
75.2900000000	n/a	75290	FrequentFixedSOA	1633	n/a	n/a	1
76.9230000000	n/a	76923	GoFixedSOA	212	n/a	n/a	1
78.5570000000	n/a	78557	FrequentFixedSOA	1633	n/a	n/a	1
80.1900000000	n/a	80190	FrequentFixedSOA	1633	n/a	n/a	1
81.8230000000	n/a	81823	FrequentFixedSOA	1633	n/a	n/a	1
83.4570000000	n/a	83457	FrequentFixedSOA	1633	n/a	n/a	1
85.0900000000	n/a	85090	NovelFixedSOA	1633	n/a	n/a	1
86.7230000000	n/a	86723	FrequentFixedSOA	1633	n/a	n/a	1
88.3570000000	n/a	88357	FrequentFixedSOA	1633	n/a	n/a	1
89.9900000000	n/a	89990	FrequentFixedSOA	1633	n/a	n/a	1
91.6230000000	n/a	91623	FrequentFixedSOA	1633	n/a	n/a	1
93.2570000000	n/a	93257	GoFixedSOA	263	n/a	n/a	1
94.8900000000	n/a	94890	FrequentFixedSOA	1633	n/a	n/a	1
96.5230000000	n/a	96523	FrequentFixedSOA	1633	n/a	n/a	1
98.1570000000	n/a	98157	NovelFixedSOA	1633	n/a	n/a	1
99.7900000000	n/a	99790	FrequentFixedSOA	1633	n/a	n/a	1
101.4230000000	n/a	101423	FrequentFixedSOA	1633	n/a	n/a	1
103.0570000000	n/a	103057	GoFixedSOA	279	n/a	n/a	1
104.6900000000	n/a	104690	FrequentFixedSOA	1633	n/a	n/a	1
106.3230000000	n/a	106323	FrequentFixedSOA	1633	n/a	n/a	1
107.9570000000	n/a	107957	FrequentFixedSOA	1633	n/a	n/a	1
109.5900000000	n/a	109590	FrequentFixedSOA	1633	n/a	n/a	1
111.2230000000	n/a	111223	NovelFixedSOA	1633	n/a	n/a	1
112.8570000000	n/a	112857	FrequentFixedSOA	1633	n/a	n/a	1
114.4900000000	n/a	114490	FrequentFixedSOA	1633	n/a	n/a	1
116.1230000000	n/a	116123	GoFixedSOA	273	n/a	n/a	1
117.7570000000	n/a	117757	FrequentVariableSOA	1600	n/a	n/a	1
119.3570000000	n/a	119357	FrequentVariableSOA	1766	n/a	n/a	1
121.1230000000	n/a	121123	FrequentVariableSOA	1666	n/a	n/a	1
122.7900000000	n/a	122790	FrequentVariableSOA	1583	n/a	n/a	1
124.3730000000	n/a	124373	FrequentVariableSOA	1566	n/a	n/a	1
125.9400000000	n/a	125940	FrequentVariableSOA	1700	n/a	n/a	1
127.6400000000	n/a	127640	FrequentVariableSOA	1550	n/a	n/a	1
129.1900000000	n/a	129190	FrequentVariableSOA	1500	n/a	n/a	1
130.6900000000	n/a	130690	FrequentVariableSOA	1600	n/a	n/a	1
132.2900000000	n/a	132290	FrequentVariableSOA	1516	n/a	n/a	1
133.8070000000	n/a	133807	NovelVariableSOA	1800	n/a	n/a	1
135.6070000000	n/a	135607	FrequentVariableSOA	1533	n/a	n/a	1
137.1400000000	n/a	137140	GoVariableSOA	260	n/a	n/a	1
138.7070000000	n/a	138707	FrequentVariableSOA	1766	n/a	n/a	1
140.4730000000	n/a	140473	FrequentVariableSOA	1533	n/a	n/a	1
142.0070000000	n/a	142007	FrequentVariableSOA	1750	n/a	n/a	1
143.7570000000	n/a	143757	GoVariableSOA	383	n/a	n/a	1
145.4730000000	n/a	145473	FrequentVariableSOA	1683	n/a	n/a	1
147.1570000000	n/a	147157	FrequentVariableSOA	1650	n/a	n/a	1
148.8070000000	n/a	148807	FrequentVariableSOA	1666	n/a	n/a	1
150.4730000000	n/a	150473	NovelVariableSOA	1633	n/a	n/a	1
152.1070000000	n/a	152107	FrequentVariableSOA	1500	n/a	n/a	1
153.6070000000	n/a	153607	FrequentVariableSOA	1666	n/a	n/a	1
155.2730000000	n/a	155273	FrequentVariableSOA	1550	n/a	n/a	1
156.8230000000	n/a	156823	GoVariableSOA	267	n/a	n/a	1
158.5400000000	n/a	158540	FrequentVariableSOA	1583	n/a	n/a	1
160.1230000000	n/a	160123	NovelVariableSOA	1700	n/a	n/a	1
161.8230000000	n/a	161823	FrequentVariableSOA	1716	n/a	n/a	1
163.5400000000	n/a	163540	FrequentVariableSOA	1766	n/a	n/a	1
165.3070000000	n/a	165307	FrequentVariableSOA	1683	n/a	n/a	1
166.9900000000	n/a	166990	GoVariableSOA	283	n/a	n/a	1
168.6570000000	n/a	168657	FrequentVariableSOA	1566	n/a	n/a	1
170.2230000000	n/a	170223	GoVariableSOA	400	n/a	n/a	1
171.8230000000	n/a	171823	FrequentVariableSOA	1733	n/a	n/a	1
173.5570000000	n/a	173557	FrequentVariableSOA	1683	n/a	n/a	1
175.2400000000	n/a	175240	GoVariableSOA	281	n/a	n/a	1
176.7570000000	n/a	176757	FrequentVariableSOA	1616	n/a	n/a	1
178.3730000000	n/a	178373	FrequentVariableSOA	1666	n/a	n/a	1
180.0400000000	n/a	180040	FrequentVariableSOA	1533	n/a	n/a	1
181.5730000000	n/a	181573	FrequentVariableSOA	1750	n/a	n/a	1
183.3230000000	n/a	183323	NovelVariableSOA	1533	n/a	n/a	1
184.8570000000	n/a	184857	FrequentVariableSOA	1800	n/a	n/a	1
186.6570000000	n/a	186657	NovelVariableSOA	1766	n/a	n/a	1
188.4230000000	n/a	188423	FrequentVariableSOA	1716	n/a	n/a	1
190.1400000000	n/a	190140	FrequentVariableSOA	1766	n/a	n/a	1
191.9070000000	n/a	191907	GoVariableSOA	511	n/a	n/a	1
193.5400000000	n/a	193540	FrequentVariableSOA	1583	n/a	n/a	1
195.1230000000	n/a	195123	FrequentVariableSOA	1600	n/a	n/a	1
196.7230000000	n/a	196723	FrequentVariableSOA	1650	n/a	n/a	1
198.3730000000	n/a	198373	FrequentVariableSOA	1583	n/a	n/a	1
199.9570000000	n/a	199957	NovelVariableSOA	1766	n/a	n/a	1
201.7230000000	n/a	201723	FrequentVariableSOA	1716	n/a	n/a	1
203.4400000000	n/a	203440	FrequentVariableSOA	1800	n/a	n/a	1
205.2400000000	n/a	205240	FrequentVariableSOA	1800	n/a	n/a	1
207.0400000000	n/a	207040	FrequentVariableSOA	1766	n/a	n/a	1
208.8070000000	n/a	208807	GoVariableSOA	417	n/a	n/a	1
210.4570000000	n/a	210457	FrequentVariableSOA	1533	n/a	n/a	1
211.9900000000	n/a	211990	FrequentVariableSOA	1516	n/a	n/a	1
213.5070000000	n/a	213507	NovelVariableSOA	1783	n/a	n/a	1
215.2900000000	n/a	215290	FrequentVariableSOA	1583	n/a	n/a	1
216.8730000000	n/a	216873	FrequentVariableSOA	1650	n/a	n/a	1
218.5230000000	n/a	218523	GoVariableSOA	440	n/a	n/a	1
220.2070000000	n/a	220207	FrequentVariableSOA	1750	n/a	n/a	1
221.9570000000	n/a	221957	FrequentVariableSOA	1550	n/a	n/a	1
223.5070000000	n/a	223507	FrequentVariableSOA	1750	n/a	n/a	1
225.2570000000	n/a	225257	FrequentVariableSOA	1583	n/a	n/a	1
226.8400000000	n/a	226840	NovelVariableSOA	1716	n/a	n/a	1
228.5570000000	n/a	228557	FrequentVariableSOA	1666	n/a	n/a	1
230.2230000000	n/a	230223	FrequentVariableSOA	1533	n/a	n/a	1
231.7570000000	n/a	231757	GoVariableSOA	388	n/a	n/a	1
233.5400000000	n/a	233540	FrequentFixedSOA	1633	n/a	n/a	1
235.1730000000	n/a	235173	FrequentFixedSOA	1633	n/a	n/a	1
236.8070000000	n/a	236807	FrequentFixedSOA	1633	n/a	n/a	1
238.4400000000	n/a	238440	GoFixedSOA	346	n/a	n/a	1
240.0730000000	n/a	240073	FrequentFixedSOA	1633	n/a	n/a	1
241.7070000000	n/a	241707	FrequentFixedSOA	1633	n/a	n/a	1
243.3400000000	n/a	243340	FrequentFixedSOA	1633	n/a	n/a	1
244.9730000000	n/a	244973	GoFixedSOA	363	n/a	n/a	1
246.6070000000	n/a	246607	FrequentFixedSOA	1633	n/a	n/a	1
248.2400000000	n/a	248240	FrequentFixedSOA	1633	n/a	n/a	1
249.8730000000	n/a	249873	FrequentFixedSOA	1633	n/a	n/a	1
251.5070000000	n/a	251507	NovelFixedSOA	1633	n/a	n/a	1
253.1400000000	n/a	253140	FrequentFixedSOA	1633	n/a	n/a	1
254.7730000000	n/a	254773	NovelFixedSOA	1633	n/a	n/a	1
256.4070000000	n/a	256407	FrequentFixedSOA	1633	n/a	n/a	1
258.0400000000	n/a	258040	FrequentFixedSOA	1633	n/a	n/a	1
259.6730000000	n/a	259673	NovelFixedSOA	1633	n/a	n/a	1
261.3070000000	n/a	261307	FrequentFixedSOA	1633	n/a	n/a	1
262.9400000000	n/a	262940	FrequentFixedSOA	1633	n/a	n/a	1
264.5730000000	n/a	264573	FrequentFixedSOA	1633	n/a	n/a	1
266.2070000000	n/a	266207	FrequentFixedSOA	1633	n/a	n/a	1
267.8400000000	n/a	267840	FrequentFixedSOA	1633	n/a	n/a	1
269.4730000000	n/a	269473	NovelFixedSOA	1633	n/a	n/a	1
271.1070000000	n/a	271107	FrequentFixedSOA	1633	n/a	n/a	1
272.7400000000	n/a	272740	FrequentFixedSOA	1633	n/a	n/a	1
274.3730000000	n/a	274373	FrequentFixedSOA	1633	n/a	n/a	1
276.0060000000	n/a	276006	FrequentFixedSOA	1633	n/a	n/a	1
277.6400000000	n/a	277640	FrequentFixedSOA	1633	n/a	n/a	1
279.2730000000	n/a	279273	GoFixedSOA	254	n/a	n/a	1
280.9060000000	n/a	280906	FrequentFixedSOA	1633	n/a	n/a	1
282.5400000000	n/a	282540	FrequentFixedSOA	1633	n/a	n/a	1
284.1730000000	n/a	284173	GoFixedSOA	389	n/a	n/a	1
285.8060000000	n/a	285806	FrequentFixedSOA	1633	n/a	n/a	1
287.4400000000	n/a	287440	NovelFixedSOA	1633	n/a	n/a	1
289.0730000000	n/a	289073	FrequentFixedSOA	1633	n/a	n/a	1
290.7060000000	n/a	290706	GoFixedSOA	409	n/a	n/a	1
292.3400000000	n/a	292340	FrequentFixedSOA	1633	n/a	n/a	1
293.9730000000	n/a	293973	GoFixedSOA	327	n/a	n/a	1
295.6060000000	n/a	295606	FrequentFixedSOA	1633	n/a	n/a	1
297.2400000000	n/a	297240	FrequentFixedSOA	1633	n/a	n/a	1
298.8730000000	n/a	298873	FrequentFixedSOA	1633	n/a	n/a	1
300.5060000000	n/a	300506	FrequentFixedSOA	1633	n/a	n/a	1
302.1400000000	n/a	302140	GoFixedSOA	463	n/a	n/a	1
303.7730000000	n/a	303773	FrequentFixedSOA	1633	n/a	n/a	1
305.4060000000	n/a	305406	FrequentFixedSOA	1633	n/a	n/a	1
307.0400000000	n/a	307040	FrequentFixedSOA	1633	n/a	n/a	1
308.6730000000	n/a	308673	NovelFixedSOA	1633	n/a	n/a	1
310.3060000000	n/a	310306	FrequentFixedSOA	1633	n/a	n/a	1
311.9400000000	n/a	311940	FrequentFixedSOA	1633	n/a	n/a	1
313.5730000000	n/a	313573	FrequentFixedSOA	1633	n/a	n/a	1
315.2060000000	n/a	315206	FrequentFixedSOA	1633	n/a	n/a	1
316.8400000000	n/a	316840	NovelFixedSOA	1633	n/a	n/a	1
318.4730000000	n/a	318473	FrequentFixedSOA	1633	n/a	n/a	1
320.1060000000	n/a	320106	FrequentFixedSOA	1633	n/a	n/a	1
321.7400000000	n/a	321740	FrequentFixedSOA	1633	n/a	n/a	1
323.3730000000	n/a	323373	FrequentFixedSOA	1633	n/a	n/a	1
325.0060000000	n/a	325006	NovelFixedSOA	1633	n/a	n/a	1
326.6400000000	n/a	326640	FrequentFixedSOA	1633	n/a	n/a	1
328.2730000000	n/a	328273	FrequentFixedSOA	1633	n/a	n/a	1
329.9060000000	n/a	329906	GoFixedSOA	463	n/a	n/a	1
331.5400000000	n/a	331540	FrequentFixedSOA	1633	n/a	n/a	1
333.1730000000	n/a	333173	FrequentFixedSOA	1633	n/a	n/a	1
334.8060000000	n/a	334806	FrequentFixedSOA	1633	n/a	n/a	1
336.4400000000	n/a	336440	FrequentFixedSOA	1633	n/a	n/a	1
338.0730000000	n/a	338073	NovelFixedSOA	1633	n/a	n/a	1
339.7060000000	n/a	339706	FrequentFixedSOA	1633	n/a	n/a	1
341.3400000000	n/a	341340	FrequentFixedSOA	1633	n/a	n/a	1
342.9730000000	n/a	342973	FrequentFixedSOA	1633	n/a	n/a	1
344.6060000000	n/a	344606	FrequentFixedSOA	1633	n/a	n/a	1
346.2400000000	n/a	346240	FrequentFixedSOA	1633	n/a	n/a	1
347.8730000000	n/a	347873	FrequentVariableSOA	1550	n/a	n/a	1
349.4230000000	n/a	349423	FrequentVariableSOA	1700	n/a	n/a	1
351.1230000000	n/a	351123	FrequentVariableSOA	1716	n/a	n/a	1
352.8400000000	n/a	352840	GoVariableSOA	374	n/a	n/a	1
354.4230000000	n/a	354423	FrequentVariableSOA	1800	n/a	n/a	1
356.2230000000	n/a	356223	FrequentVariableSOA	1800	n/a	n/a	1
358.0230000000	n/a	358023	FrequentVariableSOA	1566	n/a	n/a	1
359.5900000000	n/a	359590	GoVariableSOA	319	n/a	n/a	1
361.3900000000	n/a	361390	FrequentVariableSOA	1700	n/a	n/a	1
363.0900000000	n/a	363090	FrequentVariableSOA	1750	n/a	n/a	1
364.8400000000	n/a	364840	FrequentVariableSOA	1583	n/a	n/a	1
366.4230000000	n/a	366423	NovelVariableSOA	1700	n/a	n/a	1
368.1230000000	n/a	368123	FrequentVariableSOA	1766	n/a	n/a	1
369.8900000000	n/a	369890	NovelVariableSOA	1566	n/a	n/a	1
371.4560000000	n/a	371456	FrequentVariableSOA	1750	n/a	n/a	1
373.2060000000	n/a	373206	FrequentVariableSOA	1683	n/a	n/a	1
374.8900000000	n/a	374890	NovelVariableSOA	1766	n/a	n/a	1
376.6560000000	n/a	376656	FrequentVariableSOA	1616	n/a	n/a	1
378.2730000000	n/a	378273	FrequentVariableSOA	1616	n/a	n/a	1
379.8900000000	n/a	379890	FrequentVariableSOA	1550	n/a	n/a	1
381.4400000000	n/a	381440	FrequentVariableSOA	1566	n/a	n/a	1
383.0060000000	n/a	383006	FrequentVariableSOA	1550	n/a	n/a	1
384.5560000000	n/a	384556	NovelVariableSOA	1716	n/a	n/a	1
386.2730000000	n/a	386273	FrequentVariableSOA	1750	n/a	n/a	1
388.0230000000	n/a	388023	FrequentVariableSOA	1566	n/a	n/a	1
389.5900000000	n/a	389590	FrequentVariableSOA	1600	n/a	n/a	1
391.1900000000	n/a	391190	FrequentVariableSOA	1566	n/a	n/a	1
392.7560000000	n/a	392756	FrequentVariableSOA	1766	n/a	n/a	1
394.5230000000	n/a	394523	GoVariableSOA	352	n/a	n/a	1
396.2560000000	n/a	396256	FrequentVariableSOA	1666	n/a	n/a	1
397.9230000000	n/a	397923	FrequentVariableSOA	1650	n/a	n/a	1
399.5730000000	n/a	399573	GoVariableSOA	366	n/a	n/a	1
401.0900000000	n/a	401090	FrequentVariableSOA	1616	n/a	n/a	1
402.7060000000	n/a	402706	NovelVariableSOA	1716	n/a	n/a	1
404.4230000000	n/a	404423	FrequentVariableSOA	1533	n/a	n/a	1
405.9560000000	n/a	405956	GoVariableSOA	374	n/a	n/a	1
407.5900000000	n/a	407590	FrequentVariableSOA	1500	n/a	n/a	1
409.0900000000	n/a	409090	GoVariableSOA	341	n/a	n/a	1
410.8060000000	n/a	410806	FrequentVariableSOA	1516	n/a	n/a	1
412.3230000000	n/a	412323	FrequentVariableSOA	1583	n/a	n/a	1
413.9060000000	n/a	413906	FrequentVariableSOA	1583	n/a	n/a	1
415.4900000000	n/a	415490	FrequentVariableSOA	1533	n/a	n/a	1
417.0230000000	n/a	417023	GoVariableSOA	333	n/a	n/a	1
418.7560000000	n/a	418756	FrequentVariableSOA	1633	n/a	n/a	1
420.3900000000	n/a	420390	FrequentVariableSOA	1666	n/a	n/a	1
422.0560000000	n/a	422056	FrequentVariableSOA	1600	n/a	n/a	1
423.6560000000	n/a	423656	NovelVariableSOA	1766	n/a	n/a	1
425.4230000000	n/a	425423	FrequentVariableSOA	1616	n/a	n/a	1
427.0400000000	n/a	427040	FrequentVariableSOA	1783	n/a	n/a	1
428.8230000000	n/a	428823	FrequentVariableSOA	1683	n/a	n/a	1
430.5060000000	n/a	430506	FrequentVariableSOA	1683	n/a	n/a	1
432.1900000000	n/a	432190	NovelVariableSOA	1750	n/a	n/a	1
433.9400000000	n/a	433940	FrequentVariableSOA	1800	n/a	n/a	1
435.7400000000	n/a	435740	FrequentVariableSOA	1766	n/a	n/a	1
437.5060000000	n/a	437506	FrequentVariableSOA	1716	n/a	n/a	1
439.2230000000	n/a	439223	FrequentVariableSOA	1516	n/a	n/a	1
440.7400000000	n/a	440740	NovelVariableSOA	1750	n/a	n/a	1
442.4900000000	n/a	442490	FrequentVariableSOA	1700	n/a	n/a	1
444.1900000000	n/a	444190	FrequentVariableSOA	1750	n/a	n/a	1
445.9400000000	n/a	445940	GoVariableSOA	275	n/a	n/a	1
447.6230000000	n/a	447623	FrequentVariableSOA	1516	n/a	n/a	1
449.1400000000	n/a	449140	FrequentVariableSOA	1683	n/a	n/a	1
450.8230000000	n/a	450823	FrequentVariableSOA	1566	n/a	n/a	1
452.3900000000	n/a	452390	FrequentVariableSOA	1783	n/a	n/a	1
454.1730000000	n/a	454173	NovelVariableSOA	1700	n/a	n/a	1
455.8730000000	n/a	455873	FrequentVariableSOA	1600	n/a	n/a	1
457.4730000000	n/a	457473	FrequentVariableSOA	1600	n/a	n/a	1
459.0730000000	n/a	459073	FrequentVariableSOA	1650	n/a	n/a	1
460.7230000000	n/a	460723	FrequentVariableSOA	1566	n/a	n/a	1
462.2900000000	n/a	462290	FrequentVariableSOA	1666	n/a	n/a	1
463.9560000000	n/a	463956	GoFixedSOA	501	n/a	n/a	1
465.5900000000	n/a	465590	FrequentFixedSOA	1633	n/a	n/a	1
467.2230000000	n/a	467223	FrequentFixedSOA	1633	n/a	n/a	1
468.8560000000	n/a	468856	FrequentFixedSOA	1633	n/a	n/a	1
470.4900000000	n/a	470490	FrequentFixedSOA	1633	n/a	n/a	1
472.1230000000	n/a	472123	FrequentFixedSOA	1633	n/a	n/a	1
473.7560000000	n/a	473756	FrequentFixedSOA	1633	n/a	n/a	1
475.3900000000	n/a	475390	NovelFixedSOA	1633	n/a	n/a	1
477.0230000000	n/a	477023	FrequentFixedSOA	1633	n/a	n/a	1
478.6560000000	n/a	478656	FrequentFixedSOA	1633	n/a	n/a	1
480.2890000000	n/a	480289	FrequentFixedSOA	1633	n/a	n/a	1
481.9230000000	n/a	481923	NovelFixedSOA	1633	n/a	n/a	1
483.5560000000	n/a	483556	FrequentFixedSOA	1633	n/a	n/a	1
485.1890000000	n/a	485189	GoFixedSOA	347	n/a	n/a	1
486.8230000000	n/a	486823	FrequentFixedSOA	1633	n/a	n/a	1
488.4560000000	n/a	488456	FrequentFixedSOA	1633	n/a	n/a	1
490.0890000000	n/a	490089	GoFixedSOA	308	n/a	n/a	1
491.7230000000	n/a	491723	FrequentFixedSOA	1633	n/a	n/a	1
493.3560000000	n/a	493356	NovelFixedSOA	1633	n/a	n/a	1
494.9890000000	n/a	494989	FrequentFixedSOA	1633	n/a	n/a	1
496.6230000000	n/a	496623	FrequentFixedSOA	1633	n/a	n/a	1
498.2560000000	n/a	498256	FrequentFixedSOA	1633	n/a	n/a	1
499.8890000000	n/a	499889	FrequentFixedSOA	1633	n/a	n/a	1
501.5230000000	n/a	501523	FrequentFixedSOA	1633	n/a	n/a	1
503.1560000000	n/a	503156	GoFixedSOA	379	n/a	n/a	1
504.7890000000	n/a	504789	FrequentFixedSOA	1633	n/a	n/a	1
506.4230000000	n/a	506423	FrequentFixedSOA	1633	n/a	n/a	1
508.0560000000	n/a	508056	NovelFixedSOA	1633	n/a	n/a	1
509.6890000000	n/a	509689	FrequentFixedSOA	1633	n/a	n/a	1
511.3230000000	n/a	511323	FrequentFixedSOA	1633	n/a	n/a	1
512.9560000000	n/a	512956	FrequentFixedSOA	1633	n/a	n/a	1
514.5890000000	n/a	514589	FrequentFixedSOA	1633	n/a	n/a	1
516.2230000000	n/a	516223	FrequentFixedSOA	1633	n/a	n/a	1
517.8560000000	n/a	517856	NovelFixedSOA	1633	n/a	n/a	1
519.4890000000	n/a	519489	FrequentFixedSOA	1633	n/a	n/a	1
521.1230000000	n/a	521123	FrequentFixedSOA	1633	n/a	n/a	1
522.7560000000	n/a	522756	FrequentFixedSOA	1633	n/a	n/a	1
524.3890000000	n/a	524389	FrequentFixedSOA	1633	n/a	n/a	1
526.0230000000	n/a	526023	GoFixedSOA	267	n/a	n/a	1
527.6560000000	n/a	527656	FrequentFixedSOA	1633	n/a	n/a	1
529.2890000000	n/a	529289	FrequentFixedSOA	1633	n/a	n/a	1
530.9230000000	n/a	530923	NovelFixedSOA	1633	n/a	n/a	1
532.5560000000	n/a	532556	FrequentFixedSOA	1633	n/a	n/a	1
534.1890000000	n/a	534189	FrequentFixedSOA	1633	n/a	n/a	1
535.8230000000	n/a	535823	NovelFixedSOA	1633	n/a	n/a	1
537.4560000000	n/a	537456	FrequentFixedSOA	1633	n/a	n/a	1
539.0890000000	n/a	539089	FrequentFixedSOA	1633	n/a	n/a	1
540.7230000000	n/a	540723	FrequentFixedSOA	1633	n/a	n/a	1
542.3560000000	n/a	542356	FrequentFixedSOA	1633	n/a	n/a	1
543.9890000000	n/a	543989	FrequentFixedSOA	1633	n/a	n/a	1
545.6230000000	n/a	545623	GoFixedSOA	401	n/a	n/a	1
547.2560000000	n/a	547256	FrequentFixedSOA	1633	n/a	n/a	1
548.8890000000	n/a	548889	FrequentFixedSOA	1633	n/a	n/a	1
550.5230000000	n/a	550523	FrequentFixedSOA	1633	n/a	n/a	1
552.1560000000	n/a	552156	FrequentFixedSOA	1633	n/a	n/a	1
553.7890000000	n/a	553789	FrequentFixedSOA	1633	n/a	n/a	1
555.4230000000	n/a	555423	NovelFixedSOA	1633	n/a	n/a	1
557.0560000000	n/a	557056	FrequentFixedSOA	1633	n/a	n/a	1
558.6890000000	n/a	558689	GoFixedSOA	389	n/a	n/a	1
560.3230000000	n/a	560323	FrequentFixedSOA	1633	n/a	n/a	1
561.9560000000	n/a	561956	FrequentFixedSOA	1633	n/a	n/a	1
563.5890000000	n/a	563589	FrequentFixedSOA	1633	n/a	n/a	1
565.2230000000	n/a	565223	FrequentFixedSOA	1633	n/a	n/a	1
566.8560000000	n/a	566856	FrequentFixedSOA	1633	n/a	n/a	1
568.4890000000	n/a	568489	FrequentFixedSOA	1633	n/a	n/a	1
570.1230000000	n/a	570123	FrequentFixedSOA	1633	n/a	n/a	1
571.7560000000	n/a	571756	FrequentFixedSOA	1633	n/a	n/a	1
573.3890000000	n/a	573389	NovelFixedSOA	1633	n/a	n/a	1
575.0230000000	n/a	575023	FrequentFixedSOA	1633	n/a	n/a	1
576.6560000000	n/a	576656	FrequentFixedSOA	1633	n/a	n/a	1
578.2890000000	n/a	578289	GoVariableSOA	361	n/a	n/a	1
580.0560000000	n/a	580056	FrequentVariableSOA	1500	n/a	n/a	1
581.5560000000	n/a	581556	FrequentVariableSOA	1583	n/a	n/a	1
583.1390000000	n/a	583139	FrequentVariableSOA	1583	n/a	n/a	1
584.7230000000	n/a	584723	FrequentVariableSOA	1516	n/a	n/a	1
586.2390000000	n/a	586239	FrequentVariableSOA	1783	n/a	n/a	1
588.0230000000	n/a	588023	FrequentVariableSOA	1566	n/a	n/a	1
589.5890000000	n/a	589589	NovelVariableSOA	1733	n/a	n/a	1
591.3230000000	n/a	591323	FrequentVariableSOA	1683	n/a	n/a	1
593.0060000000	n/a	593006	FrequentVariableSOA	1516	n/a	n/a	1
594.5230000000	n/a	594523	FrequentVariableSOA	1683	n/a	n/a	1
596.2060000000	n/a	596206	NovelVariableSOA	1566	n/a	n/a	1
597.7730000000	n/a	597773	FrequentVariableSOA	1766	n/a	n/a	1
599.5390000000	n/a	599539	GoVariableSOA	436	n/a	n/a	1
601.2890000000	n/a	601289	FrequentVariableSOA	1566	n/a	n/a	1
602.8560000000	n/a	602856	FrequentVariableSOA	1516	n/a	n/a	1
604.3730000000	n/a	604373	GoVariableSOA	447	n/a	n/a	1
605.9730000000	n/a	605973	FrequentVariableSOA	1783	n/a	n/a	1
607.7560000000	n/a	607756	NovelVariableSOA	1683	n/a	n/a	1
609.4390000000	n/a	609439	FrequentVariableSOA	1616	n/a	n/a	1
611.0560000000	n/a	611056	FrequentVariableSOA	1583	n/a	n/a	1
612.6390000000	n/a	612639	FrequentVariableSOA	1783	n/a	n/a	1
614.4230000000	n/a	614423	FrequentVariableSOA	1533	n/a	n/a	1
615.9560000000	n/a	615956	FrequentVariableSOA	1783	n/a	n/a	1
617.7390000000	n/a	617739	GoVariableSOA	364	n/a	n/a	1
619.4560000000	n/a	619456	FrequentVariableSOA	1716	n/a	n/a	1
621.1730000000	n/a	621173	FrequentVariableSOA	1766	n/a	n/a	1
622.9390000000	n/a	622939	NovelVariableSOA	1550	n/a	n/a	1
624.4890000000	n/a	624489	FrequentVariableSOA	1700	n/a	n/a	1
626.1890000000	n/a	626189	FrequentVariableSOA	1783	n/a	n/a	1
627.9730000000	n/a	627973	FrequentVariableSOA	1566	n/a	n/a	1
629.5390000000	n/a	629539	FrequentVariableSOA	1750	n/a	n/a	1
631.2890000000	n/a	631289	FrequentVariableSOA	1750	n/a	n/a	1
633.0390000000	n/a	633039	NovelVariableSOA	1800	n/a	n/a	1
634.8390000000	n/a	634839	FrequentVariableSOA	1666	n/a	n/a	1
636.5060000000	n/a	636506	FrequentVariableSOA	1683	n/a	n/a	1
638.1890000000	n/a	638189	FrequentVariableSOA	1583	n/a	n/a	1
639.7730000000	n/a	639773	FrequentVariableSOA	1750	n/a	n/a	1
641.5230000000	n/a	641523	GoVariableSOA	375	n/a	n/a	1
643.2890000000	n/a	643289	FrequentVariableSOA	1616	n/a	n/a	1
644.9060000000	n/a	644906	FrequentVariableSOA	1583	n/a	n/a	1
646.4890000000	n/a	646489	NovelVariableSOA	1550	n/a	n/a	1
648.0390000000	n/a	648039	FrequentVariableSOA	1516	n/a	n/a	1
649.5560000000	n/a	649556	FrequentVariableSOA	1633	n/a	n/a	1
651.1890000000	n/a	651189	NovelVariableSOA	1650	n/a	n/a	1
652.8390000000	n/a	652839	FrequentVariableSOA	1633	n/a	n/a	1
654.4730000000	n/a	654473	FrequentVariableSOA	1566	n/a	n/a	1
656.0390000000	n/a	656039	FrequentVariableSOA	1766	n/a	n/a	1
657.8060000000	n/a	657806	FrequentVariableSOA	1516	n/a	n/a	1
659.3230000000	n/a	659323	FrequentVariableSOA	1600	n/a	n/a	1
660.9230000000	n/a	660923	GoVariableSOA	296	n/a	n/a	1
662.5890000000	n/a	662589	FrequentVariableSOA	1800	n/a	n/a	1
664.3890000000	n/a	664389	FrequentVariableSOA	1566	n/a	n/a	1
665.9560000000	n/a	665956	FrequentVariableSOA	1500	n/a	n/a	1
667.4560000000	n/a	667456	FrequentVariableSOA	1533	n/a	n/a	1
668.9890000000	n/a	668989	FrequentVariableSOA	1683	n/a	n/a	1
670.6730000000	n/a	670673	NovelVariableSOA	1800	n/a	n/a	1
672.4730000000	n/a	672473	FrequentVariableSOA	1666	n/a	n/a	1
674.1390000000	n/a	674139	GoVariableSOA	364	n/a	n/a	1
675.8890000000	n/a	675889	FrequentVariableSOA	1550	n/a	n/a	1
677.4390000000	n/a	677439	FrequentVariableSOA	1633	n/a	n/a	1
679.0730000000	n/a	679073	FrequentVariableSOA	1766	n/a	n/a	1
680.8390000000	n/a	680839	FrequentVariableSOA	1516	n/a	n/a	1
682.3560000000	n/a	682356	FrequentVariableSOA	1700	n/a	n/a	1
684.0560000000	n/a	684056	FrequentVariableSOA	1733	n/a	n/a	1
685.7890000000	n/a	685789	FrequentVariableSOA	1783	n/a	n/a	1
687.5730000000	n/a	687573	FrequentVariableSOA	1500	n/a	n/a	1
689.0730000000	n/a	689073	NovelVariableSOA	1750	n/a	n/a	1
690.8220000000	n/a	690822	FrequentVariableSOA	1700	n/a	n/a	1
692.5220000000	n/a	692522	FrequentVariableSOA	1683	n/a	n/a	1
694.2060000000	n/a	694206	GoFixedSOA	440	n/a	n/a	1
695.8390000000	n/a	695839	FrequentFixedSOA	1633	n/a	n/a	1
697.4720000000	n/a	697472	FrequentFixedSOA	1633	n/a	n/a	1
699.1060000000	n/a	699106	FrequentFixedSOA	1633	n/a	n/a	1
700.7390000000	n/a	700739	GoFixedSOA	568	n/a	n/a	1
702.3720000000	n/a	702372	FrequentFixedSOA	1633	n/a	n/a	1
704.0060000000	n/a	704006	FrequentFixedSOA	1633	n/a	n/a	1
705.6390000000	n/a	705639	FrequentFixedSOA	1633	n/a	n/a	1
707.2720000000	n/a	707272	FrequentFixedSOA	1633	n/a	n/a	1
708.9060000000	n/a	708906	GoFixedSOA	401	n/a	n/a	1
710.5390000000	n/a	710539	FrequentFixedSOA	1633	n/a	n/a	1
712.1720000000	n/a	712172	FrequentFixedSOA	1633	n/a	n/a	1
713.8060000000	n/a	713806	NovelFixedSOA	1633	n/a	n/a	1
715.4390000000	n/a	715439	FrequentFixedSOA	1633	n/a	n/a	1
717.0720000000	n/a	717072	FrequentFixedSOA	1633	n/a	n/a	1
718.7060000000	n/a	718706	GoFixedSOA	335	n/a	n/a	1
720.3390000000	n/a	720339	FrequentFixedSOA	1633	n/a	n/a	1
721.9720000000	n/a	721972	FrequentFixedSOA	1633	n/a	n/a	1
723.6060000000	n/a	723606	FrequentFixedSOA	1633	n/a	n/a	1
725.2390000000	n/a	725239	NovelFixedSOA	1633	n/a	n/a	1
726.8720000000	n/a	726872	FrequentFixedSOA	1633	n/a	n/a	1
728.5060000000	n/a	728506	NovelFixedSOA	1633	n/a	n/a	1
730.1390000000	n/a	730139	FrequentFixedSOA	1633	n/a	n/a	1
731.7720000000	n/a	731772	FrequentFixedSOA	1633	n/a	n/a	1
733.4060000000	n/a	733406	FrequentFixedSOA	1633	n/a	n/a	1
735.0390000000	n/a	735039	GoFixedSOA	380	n/a	n/a	1
736.6720000000	n/a	736672	FrequentFixedSOA	1633	n/a	n/a	1
738.3060000000	n/a	738306	FrequentFixedSOA	1633	n/a	n/a	1
739.9390000000	n/a	739939	FrequentFixedSOA	1633	n/a	n/a	1
741.5720000000	n/a	741572	GoFixedSOA	318	n/a	n/a	1
743.2060000000	n/a	743206	FrequentFixedSOA	1633	n/a	n/a	1
744.8390000000	n/a	744839	FrequentFixedSOA	1633	n/a	n/a	1
746.4720000000	n/a	746472	NovelFixedSOA	1633	n/a	n/a	1
748.1060000000	n/a	748106	FrequentFixedSOA	1633	n/a	n/a	1
749.7390000000	n/a	749739	GoFixedSOA	310	n/a	n/a	1
751.3720000000	n/a	751372	FrequentFixedSOA	1633	n/a	n/a	1
753.0060000000	n/a	753006	FrequentFixedSOA	1633	n/a	n/a	1
754.6390000000	n/a	754639	FrequentFixedSOA	1633	n/a	n/a	1
756.2720000000	n/a	756272	FrequentFixedSOA	1633	n/a	n/a	1
757.9060000000	n/a	757906	FrequentFixedSOA	1633	n/a	n/a	1
759.5390000000	n/a	759539	FrequentFixedSOA	1633	n/a	n/a	1
761.1720000000	n/a	761172	NovelFixedSOA	1633	n/a	n/a	1
762.8060000000	n/a	762806	FrequentFixedSOA	1633	n/a	n/a	1
764.4390000000	n/a	764439	FrequentFixedSOA	1633	n/a	n/a	1
766.0720000000	n/a	766072	FrequentFixedSOA	1633	n/a	n/a	1
767.7060000000	n/a	767706	GoFixedSOA	367	n/a	n/a	1
769.3390000000	n/a	769339	FrequentFixedSOA	1633	n/a	n/a	1
770.9720000000	n/a	770972	FrequentFixedSOA	1633	n/a	n/a	1
772.6060000000	n/a	772606	FrequentFixedSOA	1633	n/a	n/a	1
774.2390000000	n/a	774239	FrequentFixedSOA	1633	n/a	n/a	1
775.8720000000	n/a	775872	NovelFixedSOA	1633	n/a	n/a	1
777.5060000000	n/a	777506	FrequentFixedSOA	1633	n/a	n/a	1
779.1390000000	n/a	779139	FrequentFixedSOA	1633	n/a	n/a	1
780.7720000000	n/a	780772	NovelFixedSOA	1633	n/a	n/a	1
782.4060000000	n/a	782406	FrequentFixedSOA	1633	n/a	n/a	1
784.0390000000	n/a	784039	NovelFixedSOA	1633	n/a	n/a	1
785.6720000000	n/a	785672	FrequentFixedSOA	1633	n/a	n/a	1
787.3060000000	n/a	787306	FrequentFixedSOA	1633	n/a	n/a	1
788.9390000000	n/a	788939	FrequentFixedSOA	1633	n/a	n/a	1
790.5720000000	n/a	790572	FrequentFixedSOA	1633	n/a	n/a	1
792.2060000000	n/a	792206	FrequentFixedSOA	1633	n/a	n/a	1
793.8390000000	n/a	793839	FrequentFixedSOA	1633	n/a	n/a	1
795.4720000000	n/a	795472	FrequentFixedSOA	1633	n/a	n/a	1
797.1060000000	n/a	797106	GoFixedSOA	348	n/a	n/a	1
798.7390000000	n/a	798739	FrequentFixedSOA	1633	n/a	n/a	1
800.3720000000	n/a	800372	GoFixedSOA	353	n/a	n/a	1
802.0060000000	n/a	802006	FrequentFixedSOA	1633	n/a	n/a	1
803.6390000000	n/a	803639	FrequentFixedSOA	1633	n/a	n/a	1
805.2720000000	n/a	805272	NovelFixedSOA	1633	n/a	n/a	1
806.9060000000	n/a	806906	FrequentFixedSOA	1633	n/a	n/a	1
808.5390000000	n/a	808539	GoVariableSOA	428	n/a	n/a	1
810.2560000000	n/a	810256	FrequentVariableSOA	1666	n/a	n/a	1
811.9220000000	n/a	811922	FrequentVariableSOA	1716	n/a	n/a	1
813.6390000000	n/a	813639	FrequentVariableSOA	1650	n/a	n/a	1
815.2890000000	n/a	815289	GoVariableSOA	375	n/a	n/a	1
816.9560000000	n/a	816956	FrequentVariableSOA	1800	n/a	n/a	1
818.7560000000	n/a	818756	FrequentVariableSOA	1800	n/a	n/a	1
820.5560000000	n/a	820556	FrequentVariableSOA	1666	n/a	n/a	1
822.2220000000	n/a	822222	FrequentVariableSOA	1716	n/a	n/a	1
823.9390000000	n/a	823939	GoVariableSOA	379	n/a	n/a	1
825.5560000000	n/a	825556	FrequentVariableSOA	1516	n/a	n/a	1
827.0720000000	n/a	827072	FrequentVariableSOA	1516	n/a	n/a	1
828.5890000000	n/a	828589	NovelVariableSOA	1616	n/a	n/a	1
830.2060000000	n/a	830206	FrequentVariableSOA	1583	n/a	n/a	1
831.7890000000	n/a	831789	FrequentVariableSOA	1683	n/a	n/a	1
833.4720000000	n/a	833472	GoVariableSOA	361	n/a	n/a	1
835.0720000000	n/a	835072	FrequentVariableSOA	1633	n/a	n/a	1
836.7060000000	n/a	836706	FrequentVariableSOA	1666	n/a	n/a	1
838.3720000000	n/a	838372	FrequentVariableSOA	1716	n/a	n/a	1
840.0890000000	n/a	840089	NovelVariableSOA	1700	n/a	n/a	1
841.7890000000	n/a	841789	FrequentVariableSOA	1550	n/a	n/a	1
843.3390000000	n/a	843339	NovelVariableSOA	1683	n/a	n/a	1
845.0220000000	n/a	845022	FrequentVariableSOA	1566	n/a	n/a	1
846.5890000000	n/a	846589	FrequentVariableSOA	1783	n/a	n/a	1
848.3720000000	n/a	848372	FrequentVariableSOA	1566	n/a	n/a	1
849.9390000000	n/a	849939	GoVariableSOA	372	n/a	n/a	1
851.7390000000	n/a	851739	FrequentVariableSOA	1550	n/a	n/a	1
853.2890000000	n/a	853289	FrequentVariableSOA	1733	n/a	n/a	1
855.0220000000	n/a	855022	FrequentVariableSOA	1616	n/a	n/a	1
856.6390000000	n/a	856639	GoVariableSOA	353	n/a	n/a	1
858.4060000000	n/a	858406	FrequentVariableSOA	1733	n/a	n/a	1
860.1390000000	n/a	860139	FrequentVariableSOA	1500	n/a	n/a	1
861.6390000000	n/a	861639	NovelVariableSOA	1633	n/a	n/a	1
863.2720000000	n/a	863272	FrequentVariableSOA	1666	n/a	n/a	1
864.9390000000	n/a	864939	GoVariableSOA	351	n/a	n/a	1
866.5890000000	n/a	866589	FrequentVariableSOA	1683	n/a	n/a	1
868.2720000000	n/a	868272	FrequentVariableSOA	1583	n/a	n/a	1
869.8560000000	n/a	869856	FrequentVariableSOA	1700	n/a	n/a	1
871.5560000000	n/a	871556	FrequentVariableSOA	1783	n/a	n/a	1
873.3390000000	n/a	873339	FrequentVariableSOA	1650	n/a	n/a	1
874.9890000000	n/a	874989	FrequentVariableSOA	1766	n/a	n/a	1
876.7560000000	n/a	876756	NovelVariableSOA	1616	n/a	n/a	1
878.3720000000	n/a	878372	FrequentVariableSOA	1516	n/a	n/a	1
879.8890000000	n/a	879889	FrequentVariableSOA	1766	n/a	n/a	1
881.6560000000	n/a	881656	FrequentVariableSOA	1783	n/a	n/a	1
883.4390000000	n/a	883439	GoVariableSOA	400	n/a	n/a	1
885.0390000000	n/a	885039	FrequentVariableSOA	1650	n/a	n/a	1
886.6890000000	n/a	886689	FrequentVariableSOA	1533	n/a	n/a	1
888.2220000000	n/a	888222	FrequentVariableSOA	1800	n/a	n/a	1
890.0220000000	n/a	890022	FrequentVariableSOA	1583	n/a	n/a	1
891.6060000000	n/a	891606	NovelVariableSOA	1566	n/a	n/a	1
893.1720000000	n/a	893172	FrequentVariableSOA	1566	n/a	n/a	1
894.7390000000	n/a	894739	FrequentVariableSOA	1633	n/a	n/a	1
896.3720000000	n/a	896372	NovelVariableSOA	1500	n/a	n/a	1
897.8720000000	n/a	897872	FrequentVariableSOA	1733	n/a	n/a	1
899.6060000000	n/a	899606	NovelVariableSOA	1550	n/a	n/a	1
901.1550000000	n/a	901155	FrequentVariableSOA	1650	n/a	n/a	1
902.8050000000	n/a	902805	FrequentVariableSOA	1650	n/a	n/a	1
904.4550000000	n/a	904455	FrequentVariableSOA	1550	n/a	n/a	1
906.0050000000	n/a	906005	FrequentVariableSOA	1583	n/a	n/a	1
907.5890000000	n/a	907589	FrequentVariableSOA	1633	n/a	n/a	1
909.2220000000	n/a	909222	FrequentVariableSOA	1783	n/a	n/a	1
911.0050000000	n/a	911005	FrequentVariableSOA	1550	n/a	n/a	1
912.5550000000	n/a	912555	GoVariableSOA	627	n/a	n/a	1
914.2050000000	n/a	914205	FrequentVariableSOA	1533	n/a	n/a	1
915.7390000000	n/a	915739	GoVariableSOA	477	n/a	n/a	1
917.3720000000	n/a	917372	FrequentVariableSOA	1700	n/a	n/a	1
919.0720000000	n/a	919072	FrequentVariableSOA	1600	n/a	n/a	1
920.6720000000	n/a	920672	NovelVariableSOA	1566	n/a	n/a	1
922.2390000000	n/a	922239	FrequentVariableSOA	1683	n/a	n/a	1
