onset	duration	sample	trial_type	response_time	stim_file	value	correct
4.2260000000	n/a	4226	FrequentFixedSOA	1633	n/a	n/a	1
5.8590000000	n/a	5859	FrequentFixedSOA	1633	n/a	n/a	1
7.4930000000	n/a	7493	FrequentFixedSOA	1633	n/a	n/a	1
9.1260000000	n/a	9126	FrequentFixedSOA	1633	n/a	n/a	1
10.7590000000	n/a	10759	FrequentFixedSOA	1633	n/a	n/a	1
12.3930000000	n/a	12393	FrequentFixedSOA	1633	n/a	n/a	1
14.0260000000	n/a	14026	FrequentFixedSOA	1633	n/a	n/a	1
15.6590000000	n/a	15659	FrequentFixedSOA	1633	n/a	n/a	1
17.2930000000	n/a	17293	FrequentFixedSOA	1633	n/a	n/a	1
18.9260000000	n/a	18926	FrequentFixedSOA	1633	n/a	n/a	1
20.5590000000	n/a	20559	NovelFixedSOA	1633	n/a	n/a	1
22.1930000000	n/a	22193	FrequentFixedSOA	1633	n/a	n/a	1
23.8260000000	n/a	23826	GoFixedSOA	352	n/a	n/a	1
25.4590000000	n/a	25459	FrequentFixedSOA	1633	n/a	n/a	1
27.0930000000	n/a	27093	FrequentFixedSOA	1633	n/a	n/a	1
28.7260000000	n/a	28726	FrequentFixedSOA	1633	n/a	n/a	1
30.3590000000	n/a	30359	GoFixedSOA	445	n/a	n/a	1
31.9930000000	n/a	31993	FrequentFixedSOA	1633	n/a	n/a	1
33.6260000000	n/a	33626	FrequentFixedSOA	1633	n/a	n/a	1
35.2590000000	n/a	35259	FrequentFixedSOA	1633	n/a	n/a	1
36.8930000000	n/a	36893	NovelFixedSOA	1633	n/a	n/a	1
38.5260000000	n/a	38526	FrequentFixedSOA	1633	n/a	n/a	1
40.1590000000	n/a	40159	FrequentFixedSOA	1633	n/a	n/a	1
41.7930000000	n/a	41793	FrequentFixedSOA	1633	n/a	n/a	1
43.4260000000	n/a	43426	GoFixedSOA	262	n/a	n/a	1
45.0590000000	n/a	45059	FrequentFixedSOA	1633	n/a	n/a	1
46.6930000000	n/a	46693	NovelFixedSOA	1633	n/a	n/a	1
48.3260000000	n/a	48326	FrequentFixedSOA	1633	n/a	n/a	1
49.9590000000	n/a	49959	FrequentFixedSOA	1633	n/a	n/a	1
51.5930000000	n/a	51593	FrequentFixedSOA	1633	n/a	n/a	1
53.2260000000	n/a	53226	GoFixedSOA	279	n/a	n/a	1
54.8590000000	n/a	54859	FrequentFixedSOA	1633	n/a	n/a	1
56.4930000000	n/a	56493	GoFixedSOA	344	n/a	n/a	1
58.1260000000	n/a	58126	FrequentFixedSOA	1633	n/a	n/a	1
59.7590000000	n/a	59759	FrequentFixedSOA	1633	n/a	n/a	1
61.3930000000	n/a	61393	GoFixedSOA	300	n/a	n/a	1
63.0260000000	n/a	63026	FrequentFixedSOA	1633	n/a	n/a	1
64.6590000000	n/a	64659	FrequentFixedSOA	1633	n/a	n/a	1
66.2930000000	n/a	66293	FrequentFixedSOA	1633	n/a	n/a	1
67.9260000000	n/a	67926	FrequentFixedSOA	1633	n/a	n/a	1
69.5590000000	n/a	69559	NovelFixedSOA	1633	n/a	n/a	1
71.1930000000	n/a	71193	FrequentFixedSOA	1633	n/a	n/a	1
72.8260000000	n/a	72826	NovelFixedSOA	1633	n/a	n/a	1
74.4590000000	n/a	74459	FrequentFixedSOA	1633	n/a	n/a	1
76.0930000000	n/a	76093	FrequentFixedSOA	1633	n/a	n/a	1
77.7260000000	n/a	77726	GoFixedSOA	316	n/a	n/a	1
79.3590000000	n/a	79359	FrequentFixedSOA	1633	n/a	n/a	1
80.9920000000	n/a	80992	FrequentFixedSOA	1633	n/a	n/a	1
82.6260000000	n/a	82626	FrequentFixedSOA	1633	n/a	n/a	1
84.2590000000	n/a	84259	FrequentFixedSOA	1633	n/a	n/a	1
85.8920000000	n/a	85892	NovelFixedSOA	1633	n/a	n/a	1
87.5260000000	n/a	87526	FrequentFixedSOA	1633	n/a	n/a	1
89.1590000000	n/a	89159	FrequentFixedSOA	1633	n/a	n/a	1
90.7920000000	n/a	90792	FrequentFixedSOA	1633	n/a	n/a	1
92.4260000000	n/a	92426	FrequentFixedSOA	1633	n/a	n/a	1
94.0590000000	n/a	94059	GoFixedSOA	288	n/a	n/a	1
95.6920000000	n/a	95692	FrequentFixedSOA	1633	n/a	n/a	1
97.3260000000	n/a	97326	FrequentFixedSOA	1633	n/a	n/a	1
98.9590000000	n/a	98959	NovelFixedSOA	1633	n/a	n/a	1
100.5920000000	n/a	100592	FrequentFixedSOA	1633	n/a	n/a	1
102.2260000000	n/a	102226	FrequentFixedSOA	1633	n/a	n/a	1
103.8590000000	n/a	103859	GoFixedSOA	269	n/a	n/a	1
105.4920000000	n/a	105492	FrequentFixedSOA	1633	n/a	n/a	1
107.1260000000	n/a	107126	FrequentFixedSOA	1633	n/a	n/a	1
108.7590000000	n/a	108759	FrequentFixedSOA	1633	n/a	n/a	1
110.3920000000	n/a	110392	FrequentFixedSOA	1633	n/a	n/a	1
112.0260000000	n/a	112026	NovelFixedSOA	1633	n/a	n/a	1
113.6590000000	n/a	113659	FrequentFixedSOA	1633	n/a	n/a	1
115.2920000000	n/a	115292	FrequentFixedSOA	1633	n/a	n/a	1
116.9260000000	n/a	116926	GoFixedSOA	286	n/a	n/a	1
118.5590000000	n/a	118559	FrequentVariableSOA	1583	n/a	n/a	1
120.1420000000	n/a	120142	FrequentVariableSOA	1550	n/a	n/a	1
121.6920000000	n/a	121692	FrequentVariableSOA	1650	n/a	n/a	1
123.3420000000	n/a	123342	FrequentVariableSOA	1750	n/a	n/a	1
125.0920000000	n/a	125092	FrequentVariableSOA	1683	n/a	n/a	1
126.7760000000	n/a	126776	FrequentVariableSOA	1550	n/a	n/a	1
128.3260000000	n/a	128326	FrequentVariableSOA	1600	n/a	n/a	1
129.9260000000	n/a	129926	FrequentVariableSOA	1766	n/a	n/a	1
131.6920000000	n/a	131692	FrequentVariableSOA	1716	n/a	n/a	1
133.4090000000	n/a	133409	FrequentVariableSOA	1633	n/a	n/a	1
135.0420000000	n/a	135042	NovelVariableSOA	1750	n/a	n/a	1
136.7920000000	n/a	136792	FrequentVariableSOA	1616	n/a	n/a	1
138.4090000000	n/a	138409	GoVariableSOA	404	n/a	n/a	1
139.9420000000	n/a	139942	FrequentVariableSOA	1700	n/a	n/a	1
141.6420000000	n/a	141642	FrequentVariableSOA	1600	n/a	n/a	1
143.2420000000	n/a	143242	FrequentVariableSOA	1783	n/a	n/a	1
145.0260000000	n/a	145026	GoVariableSOA	361	n/a	n/a	1
146.5590000000	n/a	146559	FrequentVariableSOA	1583	n/a	n/a	1
148.1420000000	n/a	148142	FrequentVariableSOA	1616	n/a	n/a	1
149.7590000000	n/a	149759	FrequentVariableSOA	1683	n/a	n/a	1
151.4420000000	n/a	151442	NovelVariableSOA	1716	n/a	n/a	1
153.1590000000	n/a	153159	FrequentVariableSOA	1750	n/a	n/a	1
154.9090000000	n/a	154909	FrequentVariableSOA	1683	n/a	n/a	1
156.5920000000	n/a	156592	FrequentVariableSOA	1583	n/a	n/a	1
158.1760000000	n/a	158176	GoVariableSOA	287	n/a	n/a	1
159.9420000000	n/a	159942	FrequentVariableSOA	1550	n/a	n/a	1
161.4920000000	n/a	161492	NovelVariableSOA	1616	n/a	n/a	1
163.1090000000	n/a	163109	FrequentVariableSOA	1700	n/a	n/a	1
164.8090000000	n/a	164809	FrequentVariableSOA	1750	n/a	n/a	1
166.5590000000	n/a	166559	FrequentVariableSOA	1516	n/a	n/a	1
168.0760000000	n/a	168076	GoVariableSOA	277	n/a	n/a	1
169.6260000000	n/a	169626	FrequentVariableSOA	1783	n/a	n/a	1
171.4090000000	n/a	171409	GoVariableSOA	267	n/a	n/a	1
172.9260000000	n/a	172926	FrequentVariableSOA	1733	n/a	n/a	1
174.6590000000	n/a	174659	FrequentVariableSOA	1650	n/a	n/a	1
176.3090000000	n/a	176309	GoVariableSOA	288	n/a	n/a	1
177.8420000000	n/a	177842	FrequentVariableSOA	1550	n/a	n/a	1
179.3920000000	n/a	179392	FrequentVariableSOA	1500	n/a	n/a	1
180.8920000000	n/a	180892	FrequentVariableSOA	1516	n/a	n/a	1
182.4090000000	n/a	182409	FrequentVariableSOA	1583	n/a	n/a	1
183.9920000000	n/a	183992	NovelVariableSOA	1766	n/a	n/a	1
185.7590000000	n/a	185759	FrequentVariableSOA	1533	n/a	n/a	1
187.2920000000	n/a	187292	NovelVariableSOA	1583	n/a	n/a	1
188.8760000000	n/a	188876	FrequentVariableSOA	1666	n/a	n/a	1
190.5420000000	n/a	190542	FrequentVariableSOA	1783	n/a	n/a	1
192.3260000000	n/a	192326	GoVariableSOA	280	n/a	n/a	1
193.9260000000	n/a	193926	FrequentVariableSOA	1650	n/a	n/a	1
195.5760000000	n/a	195576	FrequentVariableSOA	1700	n/a	n/a	1
197.2760000000	n/a	197276	FrequentVariableSOA	1783	n/a	n/a	1
199.0590000000	n/a	199059	FrequentVariableSOA	1750	n/a	n/a	1
200.8090000000	n/a	200809	NovelVariableSOA	1550	n/a	n/a	1
202.3590000000	n/a	202359	FrequentVariableSOA	1766	n/a	n/a	1
204.1260000000	n/a	204126	FrequentVariableSOA	1766	n/a	n/a	1
205.8920000000	n/a	205892	FrequentVariableSOA	1650	n/a	n/a	1
207.5420000000	n/a	207542	FrequentVariableSOA	1716	n/a	n/a	1
209.2590000000	n/a	209259	GoVariableSOA	341	n/a	n/a	1
210.8420000000	n/a	210842	FrequentVariableSOA	1666	n/a	n/a	1
212.5090000000	n/a	212509	FrequentVariableSOA	1783	n/a	n/a	1
214.2920000000	n/a	214292	NovelVariableSOA	1716	n/a	n/a	1
216.0090000000	n/a	216009	FrequentVariableSOA	1566	n/a	n/a	1
217.5760000000	n/a	217576	FrequentVariableSOA	1566	n/a	n/a	1
219.1420000000	n/a	219142	GoVariableSOA	371	n/a	n/a	1
220.7760000000	n/a	220776	FrequentVariableSOA	1566	n/a	n/a	1
222.3420000000	n/a	222342	FrequentVariableSOA	1750	n/a	n/a	1
224.0920000000	n/a	224092	FrequentVariableSOA	1533	n/a	n/a	1
225.6260000000	n/a	225626	FrequentVariableSOA	1683	n/a	n/a	1
227.3090000000	n/a	227309	NovelVariableSOA	1700	n/a	n/a	1
229.0090000000	n/a	229009	FrequentVariableSOA	1550	n/a	n/a	1
230.5590000000	n/a	230559	FrequentVariableSOA	1750	n/a	n/a	1
232.3090000000	n/a	232309	GoVariableSOA	385	n/a	n/a	1
234.0590000000	n/a	234059	FrequentFixedSOA	1633	n/a	n/a	1
235.6920000000	n/a	235692	FrequentFixedSOA	1633	n/a	n/a	1
237.3260000000	n/a	237326	FrequentFixedSOA	1633	n/a	n/a	1
238.9590000000	n/a	238959	GoFixedSOA	294	n/a	n/a	1
240.5920000000	n/a	240592	FrequentFixedSOA	1633	n/a	n/a	1
242.2260000000	n/a	242226	FrequentFixedSOA	1633	n/a	n/a	1
243.8590000000	n/a	243859	FrequentFixedSOA	1633	n/a	n/a	1
245.4920000000	n/a	245492	GoFixedSOA	351	n/a	n/a	1
247.1260000000	n/a	247126	FrequentFixedSOA	1633	n/a	n/a	1
248.7590000000	n/a	248759	FrequentFixedSOA	1633	n/a	n/a	1
250.3920000000	n/a	250392	FrequentFixedSOA	1633	n/a	n/a	1
252.0260000000	n/a	252026	NovelFixedSOA	1633	n/a	n/a	1
253.6590000000	n/a	253659	FrequentFixedSOA	1633	n/a	n/a	1
255.2920000000	n/a	255292	NovelFixedSOA	1633	n/a	n/a	1
256.9260000000	n/a	256926	FrequentFixedSOA	1633	n/a	n/a	1
258.5590000000	n/a	258559	FrequentFixedSOA	1633	n/a	n/a	1
260.1920000000	n/a	260192	NovelFixedSOA	1633	n/a	n/a	1
261.8260000000	n/a	261826	FrequentFixedSOA	1633	n/a	n/a	1
263.4590000000	n/a	263459	FrequentFixedSOA	1633	n/a	n/a	1
265.0920000000	n/a	265092	FrequentFixedSOA	1633	n/a	n/a	1
266.7260000000	n/a	266726	FrequentFixedSOA	1633	n/a	n/a	1
268.3590000000	n/a	268359	FrequentFixedSOA	1633	n/a	n/a	1
269.9920000000	n/a	269992	NovelFixedSOA	1633	n/a	n/a	1
271.6260000000	n/a	271626	FrequentFixedSOA	1633	n/a	n/a	1
273.2590000000	n/a	273259	FrequentFixedSOA	1633	n/a	n/a	1
274.8920000000	n/a	274892	FrequentFixedSOA	1633	n/a	n/a	1
276.5260000000	n/a	276526	FrequentFixedSOA	1633	n/a	n/a	1
278.1590000000	n/a	278159	FrequentFixedSOA	1633	n/a	n/a	1
279.7920000000	n/a	279792	GoFixedSOA	417	n/a	n/a	1
281.4260000000	n/a	281426	FrequentFixedSOA	1633	n/a	n/a	1
283.0590000000	n/a	283059	FrequentFixedSOA	1633	n/a	n/a	1
284.6920000000	n/a	284692	GoFixedSOA	393	n/a	n/a	1
286.3260000000	n/a	286326	FrequentFixedSOA	1633	n/a	n/a	1
287.9590000000	n/a	287959	NovelFixedSOA	1633	n/a	n/a	1
289.5920000000	n/a	289592	FrequentFixedSOA	1633	n/a	n/a	1
291.2250000000	n/a	291225	GoFixedSOA	265	n/a	n/a	1
292.8590000000	n/a	292859	FrequentFixedSOA	1633	n/a	n/a	1
294.4920000000	n/a	294492	GoFixedSOA	333	n/a	n/a	1
296.1250000000	n/a	296125	FrequentFixedSOA	1633	n/a	n/a	1
297.7590000000	n/a	297759	FrequentFixedSOA	1633	n/a	n/a	1
299.3920000000	n/a	299392	FrequentFixedSOA	1633	n/a	n/a	1
301.0250000000	n/a	301025	FrequentFixedSOA	1633	n/a	n/a	1
302.6590000000	n/a	302659	GoFixedSOA	379	n/a	n/a	1
304.2920000000	n/a	304292	FrequentFixedSOA	1633	n/a	n/a	1
305.9250000000	n/a	305925	FrequentFixedSOA	1633	n/a	n/a	1
307.5590000000	n/a	307559	FrequentFixedSOA	1633	n/a	n/a	1
309.1920000000	n/a	309192	NovelFixedSOA	1633	n/a	n/a	1
310.8250000000	n/a	310825	FrequentFixedSOA	1633	n/a	n/a	1
312.4590000000	n/a	312459	FrequentFixedSOA	1633	n/a	n/a	1
314.0920000000	n/a	314092	FrequentFixedSOA	1633	n/a	n/a	1
315.7250000000	n/a	315725	FrequentFixedSOA	1633	n/a	n/a	1
317.3590000000	n/a	317359	NovelFixedSOA	1633	n/a	n/a	1
318.9920000000	n/a	318992	FrequentFixedSOA	1633	n/a	n/a	1
320.6250000000	n/a	320625	FrequentFixedSOA	1633	n/a	n/a	1
322.2590000000	n/a	322259	FrequentFixedSOA	1633	n/a	n/a	1
323.8920000000	n/a	323892	FrequentFixedSOA	1633	n/a	n/a	1
325.5250000000	n/a	325525	NovelFixedSOA	1633	n/a	n/a	1
327.1590000000	n/a	327159	FrequentFixedSOA	1633	n/a	n/a	1
328.7920000000	n/a	328792	FrequentFixedSOA	1633	n/a	n/a	1
330.4250000000	n/a	330425	GoFixedSOA	393	n/a	n/a	1
332.0590000000	n/a	332059	FrequentFixedSOA	1633	n/a	n/a	1
333.6920000000	n/a	333692	FrequentFixedSOA	1633	n/a	n/a	1
335.3250000000	n/a	335325	FrequentFixedSOA	1633	n/a	n/a	1
336.9590000000	n/a	336959	FrequentFixedSOA	1633	n/a	n/a	1
338.5920000000	n/a	338592	NovelFixedSOA	1633	n/a	n/a	1
340.2250000000	n/a	340225	FrequentFixedSOA	1633	n/a	n/a	1
341.8590000000	n/a	341859	FrequentFixedSOA	1633	n/a	n/a	1
343.4920000000	n/a	343492	FrequentFixedSOA	1633	n/a	n/a	1
345.1250000000	n/a	345125	FrequentFixedSOA	1633	n/a	n/a	1
346.7590000000	n/a	346759	FrequentFixedSOA	1633	n/a	n/a	1
348.3920000000	n/a	348392	FrequentVariableSOA	1783	n/a	n/a	1
350.1750000000	n/a	350175	FrequentVariableSOA	1750	n/a	n/a	1
351.9250000000	n/a	351925	FrequentVariableSOA	1533	n/a	n/a	1
353.4590000000	n/a	353459	GoVariableSOA	581	n/a	n/a	1
355.1750000000	n/a	355175	FrequentVariableSOA	1516	n/a	n/a	1
356.6920000000	n/a	356692	FrequentVariableSOA	1533	n/a	n/a	1
358.2250000000	n/a	358225	FrequentVariableSOA	1533	n/a	n/a	1
359.7590000000	n/a	359759	GoVariableSOA	456	n/a	n/a	1
361.5590000000	n/a	361559	FrequentVariableSOA	1666	n/a	n/a	1
363.2250000000	n/a	363225	FrequentVariableSOA	1700	n/a	n/a	1
364.9250000000	n/a	364925	FrequentVariableSOA	1650	n/a	n/a	1
366.5750000000	n/a	366575	NovelVariableSOA	1783	n/a	n/a	1
368.3590000000	n/a	368359	FrequentVariableSOA	1500	n/a	n/a	1
369.8590000000	n/a	369859	NovelVariableSOA	1750	n/a	n/a	1
371.6090000000	n/a	371609	FrequentVariableSOA	1716	n/a	n/a	1
373.3250000000	n/a	373325	FrequentVariableSOA	1566	n/a	n/a	1
374.8920000000	n/a	374892	NovelVariableSOA	1516	n/a	n/a	1
376.4090000000	n/a	376409	FrequentVariableSOA	1750	n/a	n/a	1
378.1590000000	n/a	378159	FrequentVariableSOA	1500	n/a	n/a	1
379.6590000000	n/a	379659	FrequentVariableSOA	1766	n/a	n/a	1
381.4250000000	n/a	381425	FrequentVariableSOA	1500	n/a	n/a	1
382.9250000000	n/a	382925	FrequentVariableSOA	1783	n/a	n/a	1
384.7090000000	n/a	384709	NovelVariableSOA	1733	n/a	n/a	1
386.4420000000	n/a	386442	FrequentVariableSOA	1550	n/a	n/a	1
387.9920000000	n/a	387992	FrequentVariableSOA	1583	n/a	n/a	1
389.5750000000	n/a	389575	FrequentVariableSOA	1616	n/a	n/a	1
391.1920000000	n/a	391192	FrequentVariableSOA	1716	n/a	n/a	1
392.9090000000	n/a	392909	FrequentVariableSOA	1533	n/a	n/a	1
394.4420000000	n/a	394442	GoVariableSOA	431	n/a	n/a	1
396.1590000000	n/a	396159	FrequentVariableSOA	1733	n/a	n/a	1
397.8920000000	n/a	397892	FrequentVariableSOA	1716	n/a	n/a	1
399.6090000000	n/a	399609	GoVariableSOA	357	n/a	n/a	1
401.2750000000	n/a	401275	FrequentVariableSOA	1716	n/a	n/a	1
402.9920000000	n/a	402992	NovelVariableSOA	1650	n/a	n/a	1
404.6420000000	n/a	404642	FrequentVariableSOA	1683	n/a	n/a	1
406.3250000000	n/a	406325	GoVariableSOA	296	n/a	n/a	1
407.9750000000	n/a	407975	FrequentVariableSOA	1700	n/a	n/a	1
409.6750000000	n/a	409675	GoVariableSOA	314	n/a	n/a	1
411.4590000000	n/a	411459	FrequentVariableSOA	1633	n/a	n/a	1
413.0920000000	n/a	413092	FrequentVariableSOA	1583	n/a	n/a	1
414.6750000000	n/a	414675	FrequentVariableSOA	1650	n/a	n/a	1
416.3250000000	n/a	416325	FrequentVariableSOA	1516	n/a	n/a	1
417.8420000000	n/a	417842	GoVariableSOA	303	n/a	n/a	1
419.4590000000	n/a	419459	FrequentVariableSOA	1800	n/a	n/a	1
421.2590000000	n/a	421259	FrequentVariableSOA	1566	n/a	n/a	1
422.8250000000	n/a	422825	FrequentVariableSOA	1700	n/a	n/a	1
424.5250000000	n/a	424525	NovelVariableSOA	1783	n/a	n/a	1
426.3090000000	n/a	426309	FrequentVariableSOA	1750	n/a	n/a	1
428.0590000000	n/a	428059	FrequentVariableSOA	1516	n/a	n/a	1
429.5750000000	n/a	429575	FrequentVariableSOA	1683	n/a	n/a	1
431.2590000000	n/a	431259	FrequentVariableSOA	1666	n/a	n/a	1
432.9250000000	n/a	432925	NovelVariableSOA	1650	n/a	n/a	1
434.5750000000	n/a	434575	FrequentVariableSOA	1733	n/a	n/a	1
436.3090000000	n/a	436309	FrequentVariableSOA	1700	n/a	n/a	1
438.0090000000	n/a	438009	FrequentVariableSOA	1650	n/a	n/a	1
439.6590000000	n/a	439659	FrequentVariableSOA	1650	n/a	n/a	1
441.3090000000	n/a	441309	NovelVariableSOA	1650	n/a	n/a	1
442.9590000000	n/a	442959	FrequentVariableSOA	1783	n/a	n/a	1
444.7420000000	n/a	444742	FrequentVariableSOA	1800	n/a	n/a	1
446.5420000000	n/a	446542	GoVariableSOA	312	n/a	n/a	1
448.1420000000	n/a	448142	FrequentVariableSOA	1683	n/a	n/a	1
449.8250000000	n/a	449825	FrequentVariableSOA	1650	n/a	n/a	1
451.4750000000	n/a	451475	FrequentVariableSOA	1583	n/a	n/a	1
453.0590000000	n/a	453059	FrequentVariableSOA	1516	n/a	n/a	1
454.5750000000	n/a	454575	NovelVariableSOA	1716	n/a	n/a	1
456.2920000000	n/a	456292	FrequentVariableSOA	1683	n/a	n/a	1
457.9750000000	n/a	457975	FrequentVariableSOA	1666	n/a	n/a	1
459.6420000000	n/a	459642	FrequentVariableSOA	1633	n/a	n/a	1
461.2750000000	n/a	461275	FrequentVariableSOA	1683	n/a	n/a	1
462.9590000000	n/a	462959	FrequentVariableSOA	1700	n/a	n/a	1
464.6590000000	n/a	464659	GoFixedSOA	507	n/a	n/a	1
466.2920000000	n/a	466292	FrequentFixedSOA	1633	n/a	n/a	1
467.9250000000	n/a	467925	FrequentFixedSOA	1633	n/a	n/a	1
469.5590000000	n/a	469559	FrequentFixedSOA	1633	n/a	n/a	1
471.1920000000	n/a	471192	FrequentFixedSOA	1633	n/a	n/a	1
472.8250000000	n/a	472825	FrequentFixedSOA	1633	n/a	n/a	1
474.4590000000	n/a	474459	FrequentFixedSOA	1633	n/a	n/a	1
476.0920000000	n/a	476092	NovelFixedSOA	1633	n/a	n/a	1
477.7250000000	n/a	477725	FrequentFixedSOA	1633	n/a	n/a	1
479.3590000000	n/a	479359	FrequentFixedSOA	1633	n/a	n/a	1
480.9920000000	n/a	480992	FrequentFixedSOA	1633	n/a	n/a	1
482.6250000000	n/a	482625	NovelFixedSOA	1633	n/a	n/a	1
484.2590000000	n/a	484259	FrequentFixedSOA	1633	n/a	n/a	1
485.8920000000	n/a	485892	GoFixedSOA	304	n/a	n/a	1
487.5250000000	n/a	487525	FrequentFixedSOA	1633	n/a	n/a	1
489.1590000000	n/a	489159	FrequentFixedSOA	1633	n/a	n/a	1
490.7920000000	n/a	490792	GoFixedSOA	522	n/a	n/a	1
492.4250000000	n/a	492425	FrequentFixedSOA	1633	n/a	n/a	1
494.0590000000	n/a	494059	NovelFixedSOA	1633	n/a	n/a	1
495.6920000000	n/a	495692	FrequentFixedSOA	1633	n/a	n/a	1
497.3250000000	n/a	497325	FrequentFixedSOA	1633	n/a	n/a	1
498.9590000000	n/a	498959	FrequentFixedSOA	1633	n/a	n/a	1
500.5920000000	n/a	500592	FrequentFixedSOA	1633	n/a	n/a	1
502.2250000000	n/a	502225	FrequentFixedSOA	1633	n/a	n/a	1
503.8590000000	n/a	503859	GoFixedSOA	339	n/a	n/a	1
505.4920000000	n/a	505492	FrequentFixedSOA	1633	n/a	n/a	1
507.1250000000	n/a	507125	FrequentFixedSOA	1633	n/a	n/a	1
508.7590000000	n/a	508759	NovelFixedSOA	1633	n/a	n/a	1
510.3920000000	n/a	510392	FrequentFixedSOA	1633	n/a	n/a	1
512.0250000000	n/a	512025	FrequentFixedSOA	1633	n/a	n/a	1
513.6580000000	n/a	513658	FrequentFixedSOA	1633	n/a	n/a	1
515.2920000000	n/a	515292	FrequentFixedSOA	1633	n/a	n/a	1
516.9250000000	n/a	516925	FrequentFixedSOA	1633	n/a	n/a	1
518.5580000000	n/a	518558	NovelFixedSOA	1633	n/a	n/a	1
520.1920000000	n/a	520192	FrequentFixedSOA	1633	n/a	n/a	1
521.8250000000	n/a	521825	FrequentFixedSOA	1633	n/a	n/a	1
523.4580000000	n/a	523458	FrequentFixedSOA	1633	n/a	n/a	1
525.0920000000	n/a	525092	FrequentFixedSOA	1633	n/a	n/a	1
526.7250000000	n/a	526725	GoFixedSOA	424	n/a	n/a	1
528.3580000000	n/a	528358	FrequentFixedSOA	1633	n/a	n/a	1
529.9920000000	n/a	529992	FrequentFixedSOA	1633	n/a	n/a	1
531.6250000000	n/a	531625	NovelFixedSOA	1633	n/a	n/a	1
533.2580000000	n/a	533258	FrequentFixedSOA	1633	n/a	n/a	1
534.8920000000	n/a	534892	FrequentFixedSOA	1633	n/a	n/a	1
536.5250000000	n/a	536525	NovelFixedSOA	1633	n/a	n/a	1
538.1580000000	n/a	538158	FrequentFixedSOA	1633	n/a	n/a	1
539.7920000000	n/a	539792	FrequentFixedSOA	1633	n/a	n/a	1
541.4250000000	n/a	541425	FrequentFixedSOA	1633	n/a	n/a	1
543.0580000000	n/a	543058	FrequentFixedSOA	1633	n/a	n/a	1
544.6920000000	n/a	544692	FrequentFixedSOA	1633	n/a	n/a	1
546.3250000000	n/a	546325	GoFixedSOA	305	n/a	n/a	1
547.9580000000	n/a	547958	FrequentFixedSOA	1633	n/a	n/a	1
549.5920000000	n/a	549592	FrequentFixedSOA	1633	n/a	n/a	1
551.2250000000	n/a	551225	FrequentFixedSOA	1633	n/a	n/a	1
552.8580000000	n/a	552858	FrequentFixedSOA	1633	n/a	n/a	1
554.4920000000	n/a	554492	FrequentFixedSOA	1633	n/a	n/a	1
556.1250000000	n/a	556125	NovelFixedSOA	1633	n/a	n/a	1
557.7580000000	n/a	557758	FrequentFixedSOA	1633	n/a	n/a	1
559.3920000000	n/a	559392	GoFixedSOA	328	n/a	n/a	1
561.0250000000	n/a	561025	FrequentFixedSOA	1633	n/a	n/a	1
562.6580000000	n/a	562658	FrequentFixedSOA	1633	n/a	n/a	1
564.2920000000	n/a	564292	FrequentFixedSOA	1633	n/a	n/a	1
565.9250000000	n/a	565925	FrequentFixedSOA	1633	n/a	n/a	1
567.5580000000	n/a	567558	FrequentFixedSOA	1633	n/a	n/a	1
569.1920000000	n/a	569192	FrequentFixedSOA	1633	n/a	n/a	1
570.8250000000	n/a	570825	FrequentFixedSOA	1633	n/a	n/a	1
572.4580000000	n/a	572458	FrequentFixedSOA	1633	n/a	n/a	1
574.0920000000	n/a	574092	NovelFixedSOA	1633	n/a	n/a	1
575.7250000000	n/a	575725	FrequentFixedSOA	1633	n/a	n/a	1
577.3580000000	n/a	577358	FrequentFixedSOA	1633	n/a	n/a	1
578.9920000000	n/a	578992	GoVariableSOA	490	n/a	n/a	1
580.5420000000	n/a	580542	FrequentVariableSOA	1566	n/a	n/a	1
582.1080000000	n/a	582108	FrequentVariableSOA	1783	n/a	n/a	1
583.8920000000	n/a	583892	FrequentVariableSOA	1650	n/a	n/a	1
585.5420000000	n/a	585542	FrequentVariableSOA	1550	n/a	n/a	1
587.0920000000	n/a	587092	FrequentVariableSOA	1733	n/a	n/a	1
588.8250000000	n/a	588825	FrequentVariableSOA	1583	n/a	n/a	1
590.4080000000	n/a	590408	NovelVariableSOA	340	n/a	n/a	0
592.0250000000	n/a	592025	FrequentVariableSOA	1700	n/a	n/a	1
593.7250000000	n/a	593725	FrequentVariableSOA	1633	n/a	n/a	1
595.3580000000	n/a	595358	FrequentVariableSOA	1766	n/a	n/a	1
597.1250000000	n/a	597125	NovelVariableSOA	1700	n/a	n/a	1
598.8250000000	n/a	598825	FrequentVariableSOA	1533	n/a	n/a	1
600.3580000000	n/a	600358	GoVariableSOA	346	n/a	n/a	1
601.8750000000	n/a	601875	FrequentVariableSOA	1650	n/a	n/a	1
603.5250000000	n/a	603525	FrequentVariableSOA	1516	n/a	n/a	1
605.0420000000	n/a	605042	GoVariableSOA	679	n/a	n/a	1
606.7080000000	n/a	606708	FrequentVariableSOA	1783	n/a	n/a	1
608.4920000000	n/a	608492	NovelVariableSOA	1733	n/a	n/a	1
610.2250000000	n/a	610225	FrequentVariableSOA	1633	n/a	n/a	1
611.8580000000	n/a	611858	FrequentVariableSOA	1700	n/a	n/a	1
613.5580000000	n/a	613558	FrequentVariableSOA	1533	n/a	n/a	1
615.0920000000	n/a	615092	FrequentVariableSOA	1583	n/a	n/a	1
616.6750000000	n/a	616675	FrequentVariableSOA	1766	n/a	n/a	1
618.4420000000	n/a	618442	GoVariableSOA	455	n/a	n/a	1
619.9920000000	n/a	619992	FrequentVariableSOA	1650	n/a	n/a	1
621.6420000000	n/a	621642	FrequentVariableSOA	1716	n/a	n/a	1
623.3580000000	n/a	623358	NovelVariableSOA	1783	n/a	n/a	1
625.1420000000	n/a	625142	FrequentVariableSOA	1750	n/a	n/a	1
626.8920000000	n/a	626892	FrequentVariableSOA	1516	n/a	n/a	1
628.4080000000	n/a	628408	FrequentVariableSOA	1633	n/a	n/a	1
630.0420000000	n/a	630042	FrequentVariableSOA	1783	n/a	n/a	1
631.8250000000	n/a	631825	FrequentVariableSOA	1700	n/a	n/a	1
633.5250000000	n/a	633525	NovelVariableSOA	1733	n/a	n/a	1
635.2580000000	n/a	635258	FrequentVariableSOA	1750	n/a	n/a	1
637.0080000000	n/a	637008	FrequentVariableSOA	1800	n/a	n/a	1
638.8080000000	n/a	638808	FrequentVariableSOA	1766	n/a	n/a	1
640.5750000000	n/a	640575	FrequentVariableSOA	1516	n/a	n/a	1
642.0920000000	n/a	642092	GoVariableSOA	337	n/a	n/a	1
643.7420000000	n/a	643742	FrequentVariableSOA	1500	n/a	n/a	1
645.2420000000	n/a	645242	FrequentVariableSOA	1550	n/a	n/a	1
646.7920000000	n/a	646792	NovelVariableSOA	1583	n/a	n/a	1
648.3750000000	n/a	648375	FrequentVariableSOA	1533	n/a	n/a	1
649.9080000000	n/a	649908	FrequentVariableSOA	1666	n/a	n/a	1
651.5750000000	n/a	651575	NovelVariableSOA	1633	n/a	n/a	1
653.2080000000	n/a	653208	FrequentVariableSOA	1633	n/a	n/a	1
654.8420000000	n/a	654842	FrequentVariableSOA	1733	n/a	n/a	1
656.5750000000	n/a	656575	FrequentVariableSOA	1683	n/a	n/a	1
658.2580000000	n/a	658258	FrequentVariableSOA	1650	n/a	n/a	1
659.9080000000	n/a	659908	FrequentVariableSOA	1533	n/a	n/a	1
661.4420000000	n/a	661442	GoVariableSOA	474	n/a	n/a	1
663.0750000000	n/a	663075	FrequentVariableSOA	1783	n/a	n/a	1
664.8580000000	n/a	664858	FrequentVariableSOA	1633	n/a	n/a	1
666.4920000000	n/a	666492	FrequentVariableSOA	1750	n/a	n/a	1
668.2420000000	n/a	668242	FrequentVariableSOA	1700	n/a	n/a	1
669.9420000000	n/a	669942	FrequentVariableSOA	1616	n/a	n/a	1
671.5580000000	n/a	671558	NovelVariableSOA	1616	n/a	n/a	1
673.1750000000	n/a	673175	FrequentVariableSOA	1566	n/a	n/a	1
674.7420000000	n/a	674742	GoVariableSOA	493	n/a	n/a	1
676.2750000000	n/a	676275	FrequentVariableSOA	1733	n/a	n/a	1
678.0080000000	n/a	678008	FrequentVariableSOA	1550	n/a	n/a	1
679.5580000000	n/a	679558	FrequentVariableSOA	1666	n/a	n/a	1
681.2250000000	n/a	681225	FrequentVariableSOA	1716	n/a	n/a	1
682.9420000000	n/a	682942	FrequentVariableSOA	1600	n/a	n/a	1
684.5420000000	n/a	684542	FrequentVariableSOA	1650	n/a	n/a	1
686.1920000000	n/a	686192	FrequentVariableSOA	1550	n/a	n/a	1
687.7420000000	n/a	687742	FrequentVariableSOA	1766	n/a	n/a	1
689.5080000000	n/a	689508	NovelVariableSOA	1783	n/a	n/a	1
691.2920000000	n/a	691292	FrequentVariableSOA	1700	n/a	n/a	1
692.9920000000	n/a	692992	FrequentVariableSOA	1500	n/a	n/a	1
694.4920000000	n/a	694492	GoFixedSOA	340	n/a	n/a	1
696.1250000000	n/a	696125	FrequentFixedSOA	1633	n/a	n/a	1
697.7580000000	n/a	697758	FrequentFixedSOA	1633	n/a	n/a	1
699.3920000000	n/a	699392	FrequentFixedSOA	1633	n/a	n/a	1
701.0250000000	n/a	701025	GoFixedSOA	411	n/a	n/a	1
702.6580000000	n/a	702658	FrequentFixedSOA	1633	n/a	n/a	1
704.2920000000	n/a	704292	FrequentFixedSOA	1633	n/a	n/a	1
705.9250000000	n/a	705925	FrequentFixedSOA	1633	n/a	n/a	1
707.5580000000	n/a	707558	FrequentFixedSOA	1633	n/a	n/a	1
709.1920000000	n/a	709192	GoFixedSOA	1633	n/a	n/a	0
710.8250000000	n/a	710825	FrequentFixedSOA	1633	n/a	n/a	1
712.4580000000	n/a	712458	FrequentFixedSOA	1633	n/a	n/a	1
714.0920000000	n/a	714092	NovelFixedSOA	1633	n/a	n/a	1
715.7250000000	n/a	715725	FrequentFixedSOA	1633	n/a	n/a	1
717.3580000000	n/a	717358	FrequentFixedSOA	1633	n/a	n/a	1
718.9920000000	n/a	718992	GoFixedSOA	481	n/a	n/a	1
720.6250000000	n/a	720625	FrequentFixedSOA	1633	n/a	n/a	1
722.2580000000	n/a	722258	FrequentFixedSOA	1633	n/a	n/a	1
723.8920000000	n/a	723892	FrequentFixedSOA	1633	n/a	n/a	1
725.5250000000	n/a	725525	NovelFixedSOA	1633	n/a	n/a	1
727.1580000000	n/a	727158	FrequentFixedSOA	1633	n/a	n/a	1
728.7920000000	n/a	728792	NovelFixedSOA	1633	n/a	n/a	1
730.4250000000	n/a	730425	FrequentFixedSOA	1633	n/a	n/a	1
732.0580000000	n/a	732058	FrequentFixedSOA	1633	n/a	n/a	1
733.6920000000	n/a	733692	FrequentFixedSOA	1633	n/a	n/a	1
735.3250000000	n/a	735325	GoFixedSOA	307	n/a	n/a	1
736.9580000000	n/a	736958	FrequentFixedSOA	1633	n/a	n/a	1
738.5920000000	n/a	738592	FrequentFixedSOA	1633	n/a	n/a	1
740.2250000000	n/a	740225	FrequentFixedSOA	1633	n/a	n/a	1
741.8580000000	n/a	741858	GoFixedSOA	1633	n/a	n/a	0
743.4920000000	n/a	743492	FrequentFixedSOA	1633	n/a	n/a	1
745.1250000000	n/a	745125	FrequentFixedSOA	1633	n/a	n/a	1
746.7580000000	n/a	746758	NovelFixedSOA	1633	n/a	n/a	1
748.3910000000	n/a	748391	FrequentFixedSOA	1633	n/a	n/a	1
750.0250000000	n/a	750025	GoFixedSOA	355	n/a	n/a	1
751.6580000000	n/a	751658	FrequentFixedSOA	1633	n/a	n/a	1
753.2910000000	n/a	753291	FrequentFixedSOA	1633	n/a	n/a	1
754.9250000000	n/a	754925	FrequentFixedSOA	1633	n/a	n/a	1
756.5580000000	n/a	756558	FrequentFixedSOA	1633	n/a	n/a	1
758.1910000000	n/a	758191	FrequentFixedSOA	1633	n/a	n/a	1
759.8250000000	n/a	759825	FrequentFixedSOA	1633	n/a	n/a	1
761.4580000000	n/a	761458	NovelFixedSOA	1633	n/a	n/a	1
763.0910000000	n/a	763091	FrequentFixedSOA	1633	n/a	n/a	1
764.7250000000	n/a	764725	FrequentFixedSOA	1633	n/a	n/a	1
766.3580000000	n/a	766358	FrequentFixedSOA	1633	n/a	n/a	1
767.9910000000	n/a	767991	GoFixedSOA	330	n/a	n/a	1
769.6250000000	n/a	769625	FrequentFixedSOA	1633	n/a	n/a	1
771.2580000000	n/a	771258	FrequentFixedSOA	1633	n/a	n/a	1
772.8910000000	n/a	772891	FrequentFixedSOA	1633	n/a	n/a	1
774.5250000000	n/a	774525	FrequentFixedSOA	1633	n/a	n/a	1
776.1580000000	n/a	776158	NovelFixedSOA	1633	n/a	n/a	1
777.7910000000	n/a	777791	FrequentFixedSOA	1633	n/a	n/a	1
779.4250000000	n/a	779425	FrequentFixedSOA	1633	n/a	n/a	1
781.0580000000	n/a	781058	NovelFixedSOA	1633	n/a	n/a	1
782.6910000000	n/a	782691	FrequentFixedSOA	1633	n/a	n/a	1
784.3250000000	n/a	784325	NovelFixedSOA	1633	n/a	n/a	1
785.9580000000	n/a	785958	FrequentFixedSOA	1633	n/a	n/a	1
787.5910000000	n/a	787591	FrequentFixedSOA	1633	n/a	n/a	1
789.2250000000	n/a	789225	FrequentFixedSOA	1633	n/a	n/a	1
790.8580000000	n/a	790858	FrequentFixedSOA	1633	n/a	n/a	1
792.4910000000	n/a	792491	FrequentFixedSOA	1633	n/a	n/a	1
794.1250000000	n/a	794125	FrequentFixedSOA	1633	n/a	n/a	1
795.7580000000	n/a	795758	FrequentFixedSOA	1633	n/a	n/a	1
797.3910000000	n/a	797391	GoFixedSOA	416	n/a	n/a	1
799.0250000000	n/a	799025	FrequentFixedSOA	1633	n/a	n/a	1
800.6580000000	n/a	800658	GoFixedSOA	478	n/a	n/a	1
802.2910000000	n/a	802291	FrequentFixedSOA	1633	n/a	n/a	1
803.9250000000	n/a	803925	FrequentFixedSOA	1633	n/a	n/a	1
805.5580000000	n/a	805558	NovelFixedSOA	1633	n/a	n/a	1
807.1910000000	n/a	807191	FrequentFixedSOA	554	n/a	n/a	0
808.8250000000	n/a	808825	GoVariableSOA	573	n/a	n/a	1
810.4410000000	n/a	810441	FrequentVariableSOA	1616	n/a	n/a	1
812.0580000000	n/a	812058	FrequentVariableSOA	1550	n/a	n/a	1
813.6080000000	n/a	813608	FrequentVariableSOA	1700	n/a	n/a	1
815.3080000000	n/a	815308	GoVariableSOA	341	n/a	n/a	1
817.0410000000	n/a	817041	FrequentVariableSOA	1550	n/a	n/a	1
818.5910000000	n/a	818591	FrequentVariableSOA	1566	n/a	n/a	1
820.1580000000	n/a	820158	FrequentVariableSOA	1566	n/a	n/a	1
821.7250000000	n/a	821725	FrequentVariableSOA	1550	n/a	n/a	1
823.2750000000	n/a	823275	GoVariableSOA	523	n/a	n/a	1
825.0250000000	n/a	825025	FrequentVariableSOA	1550	n/a	n/a	1
826.5750000000	n/a	826575	FrequentVariableSOA	1750	n/a	n/a	1
828.3250000000	n/a	828325	NovelVariableSOA	1600	n/a	n/a	1
829.9250000000	n/a	829925	FrequentVariableSOA	1566	n/a	n/a	1
831.4910000000	n/a	831491	FrequentVariableSOA	1683	n/a	n/a	1
833.1750000000	n/a	833175	GoVariableSOA	445	n/a	n/a	1
834.8750000000	n/a	834875	FrequentVariableSOA	1700	n/a	n/a	1
836.5750000000	n/a	836575	FrequentVariableSOA	1583	n/a	n/a	1
838.1580000000	n/a	838158	FrequentVariableSOA	1566	n/a	n/a	1
839.7250000000	n/a	839725	NovelVariableSOA	1700	n/a	n/a	1
841.4250000000	n/a	841425	FrequentVariableSOA	1716	n/a	n/a	1
843.1410000000	n/a	843141	NovelVariableSOA	1700	n/a	n/a	1
844.8410000000	n/a	844841	FrequentVariableSOA	1766	n/a	n/a	1
846.6080000000	n/a	846608	FrequentVariableSOA	1766	n/a	n/a	1
848.3750000000	n/a	848375	FrequentVariableSOA	1533	n/a	n/a	1
849.9080000000	n/a	849908	GoVariableSOA	1550	n/a	n/a	0
851.4580000000	n/a	851458	FrequentVariableSOA	1716	n/a	n/a	1
853.1750000000	n/a	853175	FrequentVariableSOA	1750	n/a	n/a	1
854.9250000000	n/a	854925	FrequentVariableSOA	1566	n/a	n/a	1
856.4910000000	n/a	856491	GoVariableSOA	411	n/a	n/a	1
858.0410000000	n/a	858041	FrequentVariableSOA	1583	n/a	n/a	1
859.6250000000	n/a	859625	FrequentVariableSOA	1666	n/a	n/a	1
861.2910000000	n/a	861291	NovelVariableSOA	1633	n/a	n/a	1
862.9250000000	n/a	862925	FrequentVariableSOA	1583	n/a	n/a	1
864.5080000000	n/a	864508	GoVariableSOA	364	n/a	n/a	1
866.1410000000	n/a	866141	FrequentVariableSOA	1566	n/a	n/a	1
867.7080000000	n/a	867708	FrequentVariableSOA	1683	n/a	n/a	1
869.3910000000	n/a	869391	FrequentVariableSOA	1716	n/a	n/a	1
871.1080000000	n/a	871108	FrequentVariableSOA	1716	n/a	n/a	1
872.8250000000	n/a	872825	FrequentVariableSOA	1683	n/a	n/a	1
874.5080000000	n/a	874508	FrequentVariableSOA	1600	n/a	n/a	1
876.1080000000	n/a	876108	NovelVariableSOA	1533	n/a	n/a	1
877.6410000000	n/a	877641	FrequentVariableSOA	1716	n/a	n/a	1
879.3580000000	n/a	879358	FrequentVariableSOA	1800	n/a	n/a	1
881.1580000000	n/a	881158	FrequentVariableSOA	1783	n/a	n/a	1
882.9410000000	n/a	882941	GoVariableSOA	368	n/a	n/a	1
884.4910000000	n/a	884491	FrequentVariableSOA	1616	n/a	n/a	1
886.1080000000	n/a	886108	FrequentVariableSOA	1583	n/a	n/a	1
887.6910000000	n/a	887691	FrequentVariableSOA	1600	n/a	n/a	1
889.2910000000	n/a	889291	FrequentVariableSOA	1733	n/a	n/a	1
891.0250000000	n/a	891025	NovelVariableSOA	1566	n/a	n/a	1
892.5910000000	n/a	892591	FrequentVariableSOA	1633	n/a	n/a	1
894.2250000000	n/a	894225	FrequentVariableSOA	1800	n/a	n/a	1
896.0250000000	n/a	896025	NovelVariableSOA	1666	n/a	n/a	1
897.6910000000	n/a	897691	FrequentVariableSOA	1616	n/a	n/a	1
899.3080000000	n/a	899308	NovelVariableSOA	1650	n/a	n/a	1
900.9580000000	n/a	900958	FrequentVariableSOA	1550	n/a	n/a	1
902.5080000000	n/a	902508	FrequentVariableSOA	1766	n/a	n/a	1
904.2750000000	n/a	904275	FrequentVariableSOA	1683	n/a	n/a	1
905.9580000000	n/a	905958	FrequentVariableSOA	1566	n/a	n/a	1
907.5250000000	n/a	907525	FrequentVariableSOA	1650	n/a	n/a	1
909.1750000000	n/a	909175	FrequentVariableSOA	1783	n/a	n/a	1
910.9580000000	n/a	910958	FrequentVariableSOA	1550	n/a	n/a	1
912.5080000000	n/a	912508	GoVariableSOA	342	n/a	n/a	1
914.0910000000	n/a	914091	FrequentVariableSOA	1550	n/a	n/a	1
915.6410000000	n/a	915641	GoVariableSOA	1616	n/a	n/a	0
917.2580000000	n/a	917258	FrequentVariableSOA	1583	n/a	n/a	1
918.8410000000	n/a	918841	FrequentVariableSOA	1683	n/a	n/a	1
920.5250000000	n/a	920525	NovelVariableSOA	1733	n/a	n/a	1
922.2580000000	n/a	922258	FrequentVariableSOA	1500	n/a	n/a	1
