onset	duration	sample	trial_type	response_time	stim_file	value	correct
4.5760000000	n/a	4576	FrequentFixedSOA	1633	n/a	n/a	1
6.2090000000	n/a	6209	FrequentFixedSOA	1633	n/a	n/a	1
7.8420000000	n/a	7842	FrequentFixedSOA	1633	n/a	n/a	1
9.4750000000	n/a	9475	FrequentFixedSOA	1633	n/a	n/a	1
11.1090000000	n/a	11109	FrequentFixedSOA	1633	n/a	n/a	1
12.7420000000	n/a	12742	FrequentFixedSOA	1633	n/a	n/a	1
14.3750000000	n/a	14375	FrequentFixedSOA	1633	n/a	n/a	1
16.0090000000	n/a	16009	FrequentFixedSOA	1633	n/a	n/a	1
17.6420000000	n/a	17642	FrequentFixedSOA	1633	n/a	n/a	1
19.2750000000	n/a	19275	FrequentFixedSOA	1633	n/a	n/a	1
20.9090000000	n/a	20909	NovelFixedSOA	297	n/a	n/a	0
22.5420000000	n/a	22542	FrequentFixedSOA	1633	n/a	n/a	1
24.1750000000	n/a	24175	GoFixedSOA	381	n/a	n/a	1
25.8090000000	n/a	25809	FrequentFixedSOA	1633	n/a	n/a	1
27.4420000000	n/a	27442	FrequentFixedSOA	1633	n/a	n/a	1
29.0750000000	n/a	29075	FrequentFixedSOA	1633	n/a	n/a	1
30.7090000000	n/a	30709	GoFixedSOA	366	n/a	n/a	1
32.3420000000	n/a	32342	FrequentFixedSOA	1633	n/a	n/a	1
33.9750000000	n/a	33975	FrequentFixedSOA	1633	n/a	n/a	1
35.6090000000	n/a	35609	FrequentFixedSOA	1633	n/a	n/a	1
37.2420000000	n/a	37242	NovelFixedSOA	1633	n/a	n/a	1
38.8750000000	n/a	38875	FrequentFixedSOA	1633	n/a	n/a	1
40.5090000000	n/a	40509	FrequentFixedSOA	1633	n/a	n/a	1
42.1420000000	n/a	42142	FrequentFixedSOA	1633	n/a	n/a	1
43.7750000000	n/a	43775	GoFixedSOA	333	n/a	n/a	1
45.4090000000	n/a	45409	FrequentFixedSOA	1633	n/a	n/a	1
47.0420000000	n/a	47042	NovelFixedSOA	1633	n/a	n/a	1
48.6750000000	n/a	48675	FrequentFixedSOA	1633	n/a	n/a	1
50.3090000000	n/a	50309	FrequentFixedSOA	1633	n/a	n/a	1
51.9420000000	n/a	51942	FrequentFixedSOA	1633	n/a	n/a	1
53.5750000000	n/a	53575	GoFixedSOA	422	n/a	n/a	1
55.2080000000	n/a	55208	FrequentFixedSOA	1633	n/a	n/a	1
56.8420000000	n/a	56842	GoFixedSOA	371	n/a	n/a	1
58.4750000000	n/a	58475	FrequentFixedSOA	1633	n/a	n/a	1
60.1080000000	n/a	60108	FrequentFixedSOA	1633	n/a	n/a	1
61.7420000000	n/a	61742	GoFixedSOA	336	n/a	n/a	1
63.3750000000	n/a	63375	FrequentFixedSOA	1633	n/a	n/a	1
65.0080000000	n/a	65008	FrequentFixedSOA	1633	n/a	n/a	1
66.6420000000	n/a	66642	FrequentFixedSOA	1633	n/a	n/a	1
68.2750000000	n/a	68275	FrequentFixedSOA	1633	n/a	n/a	1
69.9080000000	n/a	69908	NovelFixedSOA	1633	n/a	n/a	1
71.5420000000	n/a	71542	FrequentFixedSOA	1633	n/a	n/a	1
73.1750000000	n/a	73175	NovelFixedSOA	1633	n/a	n/a	1
74.8080000000	n/a	74808	FrequentFixedSOA	1633	n/a	n/a	1
76.4420000000	n/a	76442	FrequentFixedSOA	1633	n/a	n/a	1
78.0750000000	n/a	78075	GoFixedSOA	362	n/a	n/a	1
79.7080000000	n/a	79708	FrequentFixedSOA	1633	n/a	n/a	1
81.3420000000	n/a	81342	FrequentFixedSOA	1633	n/a	n/a	1
82.9750000000	n/a	82975	FrequentFixedSOA	1633	n/a	n/a	1
84.6080000000	n/a	84608	FrequentFixedSOA	1633	n/a	n/a	1
86.2420000000	n/a	86242	NovelFixedSOA	1633	n/a	n/a	1
87.8750000000	n/a	87875	FrequentFixedSOA	1633	n/a	n/a	1
89.5080000000	n/a	89508	FrequentFixedSOA	1633	n/a	n/a	1
91.1420000000	n/a	91142	FrequentFixedSOA	1633	n/a	n/a	1
92.7750000000	n/a	92775	FrequentFixedSOA	1633	n/a	n/a	1
94.4080000000	n/a	94408	GoFixedSOA	369	n/a	n/a	1
96.0420000000	n/a	96042	FrequentFixedSOA	1633	n/a	n/a	1
97.6750000000	n/a	97675	FrequentFixedSOA	1633	n/a	n/a	1
99.3080000000	n/a	99308	NovelFixedSOA	1633	n/a	n/a	1
100.9420000000	n/a	100942	FrequentFixedSOA	1633	n/a	n/a	1
102.5750000000	n/a	102575	FrequentFixedSOA	1633	n/a	n/a	1
104.2080000000	n/a	104208	GoFixedSOA	290	n/a	n/a	1
105.8420000000	n/a	105842	FrequentFixedSOA	1633	n/a	n/a	1
107.4750000000	n/a	107475	FrequentFixedSOA	1633	n/a	n/a	1
109.1080000000	n/a	109108	FrequentFixedSOA	1633	n/a	n/a	1
110.7420000000	n/a	110742	FrequentFixedSOA	1633	n/a	n/a	1
112.3750000000	n/a	112375	NovelFixedSOA	1633	n/a	n/a	1
114.0080000000	n/a	114008	FrequentFixedSOA	1633	n/a	n/a	1
115.6420000000	n/a	115642	FrequentFixedSOA	1633	n/a	n/a	1
117.2750000000	n/a	117275	GoFixedSOA	382	n/a	n/a	1
118.9080000000	n/a	118908	FrequentVariableSOA	1550	n/a	n/a	1
120.4580000000	n/a	120458	FrequentVariableSOA	1783	n/a	n/a	1
122.2420000000	n/a	122242	FrequentVariableSOA	1616	n/a	n/a	1
123.8580000000	n/a	123858	FrequentVariableSOA	1550	n/a	n/a	1
125.4080000000	n/a	125408	FrequentVariableSOA	1716	n/a	n/a	1
127.1250000000	n/a	127125	FrequentVariableSOA	1516	n/a	n/a	1
128.6420000000	n/a	128642	FrequentVariableSOA	1716	n/a	n/a	1
130.3580000000	n/a	130358	FrequentVariableSOA	1800	n/a	n/a	1
132.1580000000	n/a	132158	FrequentVariableSOA	1683	n/a	n/a	1
133.8420000000	n/a	133842	FrequentVariableSOA	1516	n/a	n/a	1
135.3580000000	n/a	135358	NovelVariableSOA	1800	n/a	n/a	1
137.1580000000	n/a	137158	FrequentVariableSOA	1516	n/a	n/a	1
138.6750000000	n/a	138675	GoVariableSOA	337	n/a	n/a	1
140.2750000000	n/a	140275	FrequentVariableSOA	1716	n/a	n/a	1
141.9920000000	n/a	141992	FrequentVariableSOA	1516	n/a	n/a	1
143.5080000000	n/a	143508	FrequentVariableSOA	1533	n/a	n/a	1
145.0420000000	n/a	145042	GoVariableSOA	379	n/a	n/a	1
146.8250000000	n/a	146825	FrequentVariableSOA	1683	n/a	n/a	1
148.5080000000	n/a	148508	FrequentVariableSOA	1633	n/a	n/a	1
150.1420000000	n/a	150142	FrequentVariableSOA	1550	n/a	n/a	1
151.6920000000	n/a	151692	NovelVariableSOA	1666	n/a	n/a	1
153.3580000000	n/a	153358	FrequentVariableSOA	1500	n/a	n/a	1
154.8580000000	n/a	154858	FrequentVariableSOA	1600	n/a	n/a	1
156.4580000000	n/a	156458	FrequentVariableSOA	1683	n/a	n/a	1
158.1420000000	n/a	158142	GoVariableSOA	392	n/a	n/a	1
159.7580000000	n/a	159758	FrequentVariableSOA	1666	n/a	n/a	1
161.4250000000	n/a	161425	NovelVariableSOA	1566	n/a	n/a	1
162.9920000000	n/a	162992	FrequentVariableSOA	1500	n/a	n/a	1
164.4920000000	n/a	164492	FrequentVariableSOA	1650	n/a	n/a	1
166.1420000000	n/a	166142	FrequentVariableSOA	1650	n/a	n/a	1
167.7920000000	n/a	167792	GoVariableSOA	339	n/a	n/a	1
169.3920000000	n/a	169392	FrequentVariableSOA	1766	n/a	n/a	1
171.1580000000	n/a	171158	GoVariableSOA	371	n/a	n/a	1
172.7080000000	n/a	172708	FrequentVariableSOA	1616	n/a	n/a	1
174.3250000000	n/a	174325	FrequentVariableSOA	1550	n/a	n/a	1
175.8750000000	n/a	175875	GoVariableSOA	378	n/a	n/a	1
177.4080000000	n/a	177408	FrequentVariableSOA	1666	n/a	n/a	1
179.0750000000	n/a	179075	FrequentVariableSOA	1766	n/a	n/a	1
180.8420000000	n/a	180842	FrequentVariableSOA	1683	n/a	n/a	1
182.5250000000	n/a	182525	FrequentVariableSOA	1700	n/a	n/a	1
184.2250000000	n/a	184225	NovelVariableSOA	1750	n/a	n/a	1
185.9750000000	n/a	185975	FrequentVariableSOA	1583	n/a	n/a	1
187.5580000000	n/a	187558	NovelVariableSOA	1533	n/a	n/a	1
189.0920000000	n/a	189092	FrequentVariableSOA	1566	n/a	n/a	1
190.6580000000	n/a	190658	FrequentVariableSOA	1666	n/a	n/a	1
192.3250000000	n/a	192325	GoVariableSOA	371	n/a	n/a	1
193.8420000000	n/a	193842	FrequentVariableSOA	1583	n/a	n/a	1
195.4250000000	n/a	195425	FrequentVariableSOA	1700	n/a	n/a	1
197.1250000000	n/a	197125	FrequentVariableSOA	1566	n/a	n/a	1
198.6920000000	n/a	198692	FrequentVariableSOA	1633	n/a	n/a	1
200.3250000000	n/a	200325	NovelVariableSOA	1600	n/a	n/a	1
201.9250000000	n/a	201925	FrequentVariableSOA	1783	n/a	n/a	1
203.7080000000	n/a	203708	FrequentVariableSOA	1750	n/a	n/a	1
205.4580000000	n/a	205458	FrequentVariableSOA	1516	n/a	n/a	1
206.9750000000	n/a	206975	FrequentVariableSOA	1633	n/a	n/a	1
208.6080000000	n/a	208608	GoVariableSOA	421	n/a	n/a	1
210.2080000000	n/a	210208	FrequentVariableSOA	1733	n/a	n/a	1
211.9420000000	n/a	211942	FrequentVariableSOA	1566	n/a	n/a	1
213.5080000000	n/a	213508	NovelVariableSOA	1600	n/a	n/a	1
215.1080000000	n/a	215108	FrequentVariableSOA	1566	n/a	n/a	1
216.6750000000	n/a	216675	FrequentVariableSOA	1733	n/a	n/a	1
218.4080000000	n/a	218408	GoVariableSOA	296	n/a	n/a	1
219.9250000000	n/a	219925	FrequentVariableSOA	1550	n/a	n/a	1
221.4750000000	n/a	221475	FrequentVariableSOA	1766	n/a	n/a	1
223.2420000000	n/a	223242	FrequentVariableSOA	1533	n/a	n/a	1
224.7750000000	n/a	224775	FrequentVariableSOA	1733	n/a	n/a	1
226.5080000000	n/a	226508	NovelVariableSOA	1666	n/a	n/a	1
228.1750000000	n/a	228175	FrequentVariableSOA	1550	n/a	n/a	1
229.7250000000	n/a	229725	FrequentVariableSOA	1600	n/a	n/a	1
231.3250000000	n/a	231325	GoVariableSOA	384	n/a	n/a	1
232.8420000000	n/a	232842	FrequentFixedSOA	1633	n/a	n/a	1
234.4750000000	n/a	234475	FrequentFixedSOA	1633	n/a	n/a	1
236.1080000000	n/a	236108	FrequentFixedSOA	1633	n/a	n/a	1
237.7420000000	n/a	237742	GoFixedSOA	308	n/a	n/a	1
239.3750000000	n/a	239375	FrequentFixedSOA	1633	n/a	n/a	1
241.0080000000	n/a	241008	FrequentFixedSOA	1633	n/a	n/a	1
242.6420000000	n/a	242642	FrequentFixedSOA	1633	n/a	n/a	1
244.2750000000	n/a	244275	GoFixedSOA	373	n/a	n/a	1
245.9080000000	n/a	245908	FrequentFixedSOA	1633	n/a	n/a	1
247.5420000000	n/a	247542	FrequentFixedSOA	1633	n/a	n/a	1
249.1750000000	n/a	249175	FrequentFixedSOA	1633	n/a	n/a	1
250.8080000000	n/a	250808	NovelFixedSOA	1633	n/a	n/a	1
252.4420000000	n/a	252442	FrequentFixedSOA	1633	n/a	n/a	1
254.0750000000	n/a	254075	NovelFixedSOA	1633	n/a	n/a	1
255.7080000000	n/a	255708	FrequentFixedSOA	1633	n/a	n/a	1
257.3420000000	n/a	257342	FrequentFixedSOA	1633	n/a	n/a	1
258.9750000000	n/a	258975	NovelFixedSOA	1633	n/a	n/a	1
260.6080000000	n/a	260608	FrequentFixedSOA	1633	n/a	n/a	1
262.2420000000	n/a	262242	FrequentFixedSOA	1633	n/a	n/a	1
263.8750000000	n/a	263875	FrequentFixedSOA	1633	n/a	n/a	1
265.5080000000	n/a	265508	FrequentFixedSOA	1633	n/a	n/a	1
267.1420000000	n/a	267142	FrequentFixedSOA	1633	n/a	n/a	1
268.7750000000	n/a	268775	NovelFixedSOA	1633	n/a	n/a	1
270.4080000000	n/a	270408	FrequentFixedSOA	1633	n/a	n/a	1
272.0420000000	n/a	272042	FrequentFixedSOA	1633	n/a	n/a	1
273.6750000000	n/a	273675	FrequentFixedSOA	1633	n/a	n/a	1
275.3080000000	n/a	275308	FrequentFixedSOA	1633	n/a	n/a	1
276.9410000000	n/a	276941	FrequentFixedSOA	1633	n/a	n/a	1
278.5750000000	n/a	278575	GoFixedSOA	285	n/a	n/a	1
280.2080000000	n/a	280208	FrequentFixedSOA	1633	n/a	n/a	1
281.8410000000	n/a	281841	FrequentFixedSOA	1633	n/a	n/a	1
283.4750000000	n/a	283475	GoFixedSOA	433	n/a	n/a	1
285.1080000000	n/a	285108	FrequentFixedSOA	1633	n/a	n/a	1
286.7410000000	n/a	286741	NovelFixedSOA	1633	n/a	n/a	1
288.3750000000	n/a	288375	FrequentFixedSOA	1633	n/a	n/a	1
290.0080000000	n/a	290008	GoFixedSOA	384	n/a	n/a	1
291.6410000000	n/a	291641	FrequentFixedSOA	1633	n/a	n/a	1
293.2750000000	n/a	293275	GoFixedSOA	302	n/a	n/a	1
294.9080000000	n/a	294908	FrequentFixedSOA	1633	n/a	n/a	1
296.5410000000	n/a	296541	FrequentFixedSOA	1633	n/a	n/a	1
298.1750000000	n/a	298175	FrequentFixedSOA	1633	n/a	n/a	1
299.8080000000	n/a	299808	FrequentFixedSOA	1633	n/a	n/a	1
301.4410000000	n/a	301441	GoFixedSOA	360	n/a	n/a	1
303.0750000000	n/a	303075	FrequentFixedSOA	1633	n/a	n/a	1
304.7080000000	n/a	304708	FrequentFixedSOA	1633	n/a	n/a	1
306.3410000000	n/a	306341	FrequentFixedSOA	1633	n/a	n/a	1
307.9750000000	n/a	307975	NovelFixedSOA	1633	n/a	n/a	1
309.6080000000	n/a	309608	FrequentFixedSOA	1633	n/a	n/a	1
311.2410000000	n/a	311241	FrequentFixedSOA	1633	n/a	n/a	1
312.8750000000	n/a	312875	FrequentFixedSOA	1633	n/a	n/a	1
314.5080000000	n/a	314508	FrequentFixedSOA	1633	n/a	n/a	1
316.1410000000	n/a	316141	NovelFixedSOA	1633	n/a	n/a	1
317.7750000000	n/a	317775	FrequentFixedSOA	1633	n/a	n/a	1
319.4080000000	n/a	319408	FrequentFixedSOA	1633	n/a	n/a	1
321.0410000000	n/a	321041	FrequentFixedSOA	1633	n/a	n/a	1
322.6750000000	n/a	322675	FrequentFixedSOA	1633	n/a	n/a	1
324.3080000000	n/a	324308	NovelFixedSOA	1633	n/a	n/a	1
325.9410000000	n/a	325941	FrequentFixedSOA	1633	n/a	n/a	1
327.5750000000	n/a	327575	FrequentFixedSOA	1633	n/a	n/a	1
329.2080000000	n/a	329208	GoFixedSOA	324	n/a	n/a	1
330.8410000000	n/a	330841	FrequentFixedSOA	1633	n/a	n/a	1
332.4750000000	n/a	332475	FrequentFixedSOA	1633	n/a	n/a	1
334.1080000000	n/a	334108	FrequentFixedSOA	1633	n/a	n/a	1
335.7410000000	n/a	335741	FrequentFixedSOA	1633	n/a	n/a	1
337.3750000000	n/a	337375	NovelFixedSOA	1633	n/a	n/a	1
339.0080000000	n/a	339008	FrequentFixedSOA	1633	n/a	n/a	1
340.6410000000	n/a	340641	FrequentFixedSOA	1633	n/a	n/a	1
342.2750000000	n/a	342275	FrequentFixedSOA	1633	n/a	n/a	1
343.9080000000	n/a	343908	FrequentFixedSOA	1633	n/a	n/a	1
345.5410000000	n/a	345541	FrequentFixedSOA	1633	n/a	n/a	1
347.1750000000	n/a	347175	FrequentVariableSOA	1800	n/a	n/a	1
348.9750000000	n/a	348975	FrequentVariableSOA	1600	n/a	n/a	1
350.5750000000	n/a	350575	FrequentVariableSOA	1616	n/a	n/a	1
352.1910000000	n/a	352191	GoVariableSOA	381	n/a	n/a	1
353.8750000000	n/a	353875	FrequentVariableSOA	1666	n/a	n/a	1
355.5410000000	n/a	355541	FrequentVariableSOA	1550	n/a	n/a	1
357.0910000000	n/a	357091	FrequentVariableSOA	1616	n/a	n/a	1
358.7080000000	n/a	358708	GoVariableSOA	370	n/a	n/a	1
360.4910000000	n/a	360491	FrequentVariableSOA	1666	n/a	n/a	1
362.1580000000	n/a	362158	FrequentVariableSOA	1666	n/a	n/a	1
363.8250000000	n/a	363825	FrequentVariableSOA	1583	n/a	n/a	1
365.4080000000	n/a	365408	NovelVariableSOA	1600	n/a	n/a	1
367.0080000000	n/a	367008	FrequentVariableSOA	1750	n/a	n/a	1
368.7580000000	n/a	368758	NovelVariableSOA	1600	n/a	n/a	1
370.3580000000	n/a	370358	FrequentVariableSOA	1700	n/a	n/a	1
372.0580000000	n/a	372058	FrequentVariableSOA	1533	n/a	n/a	1
373.5910000000	n/a	373591	NovelVariableSOA	1516	n/a	n/a	1
375.1080000000	n/a	375108	FrequentVariableSOA	1750	n/a	n/a	1
376.8580000000	n/a	376858	FrequentVariableSOA	1583	n/a	n/a	1
378.4410000000	n/a	378441	FrequentVariableSOA	1566	n/a	n/a	1
380.0080000000	n/a	380008	FrequentVariableSOA	1583	n/a	n/a	1
381.5910000000	n/a	381591	FrequentVariableSOA	1566	n/a	n/a	1
383.1580000000	n/a	383158	NovelVariableSOA	1700	n/a	n/a	1
384.8580000000	n/a	384858	FrequentVariableSOA	1533	n/a	n/a	1
386.3910000000	n/a	386391	FrequentVariableSOA	1566	n/a	n/a	1
387.9580000000	n/a	387958	FrequentVariableSOA	1566	n/a	n/a	1
389.5250000000	n/a	389525	FrequentVariableSOA	1550	n/a	n/a	1
391.0750000000	n/a	391075	FrequentVariableSOA	1733	n/a	n/a	1
392.8080000000	n/a	392808	GoVariableSOA	349	n/a	n/a	1
394.3750000000	n/a	394375	FrequentVariableSOA	1700	n/a	n/a	1
396.0750000000	n/a	396075	FrequentVariableSOA	1633	n/a	n/a	1
397.7080000000	n/a	397708	GoVariableSOA	434	n/a	n/a	1
399.3910000000	n/a	399391	FrequentVariableSOA	1800	n/a	n/a	1
401.1910000000	n/a	401191	NovelVariableSOA	1783	n/a	n/a	1
402.9750000000	n/a	402975	FrequentVariableSOA	1700	n/a	n/a	1
404.6750000000	n/a	404675	GoVariableSOA	321	n/a	n/a	1
406.2580000000	n/a	406258	FrequentVariableSOA	1550	n/a	n/a	1
407.8080000000	n/a	407808	GoVariableSOA	354	n/a	n/a	1
409.4580000000	n/a	409458	FrequentVariableSOA	1500	n/a	n/a	1
410.9580000000	n/a	410958	FrequentVariableSOA	1533	n/a	n/a	1
412.4910000000	n/a	412491	FrequentVariableSOA	1700	n/a	n/a	1
414.1910000000	n/a	414191	FrequentVariableSOA	1600	n/a	n/a	1
415.7910000000	n/a	415791	GoVariableSOA	256	n/a	n/a	1
417.5410000000	n/a	417541	FrequentVariableSOA	1566	n/a	n/a	1
419.1080000000	n/a	419108	FrequentVariableSOA	1600	n/a	n/a	1
420.7080000000	n/a	420708	FrequentVariableSOA	1700	n/a	n/a	1
422.4080000000	n/a	422408	NovelVariableSOA	1566	n/a	n/a	1
423.9750000000	n/a	423975	FrequentVariableSOA	1783	n/a	n/a	1
425.7580000000	n/a	425758	FrequentVariableSOA	1533	n/a	n/a	1
427.2910000000	n/a	427291	FrequentVariableSOA	1633	n/a	n/a	1
428.9250000000	n/a	428925	FrequentVariableSOA	1583	n/a	n/a	1
430.5080000000	n/a	430508	NovelVariableSOA	1700	n/a	n/a	1
432.2080000000	n/a	432208	FrequentVariableSOA	1516	n/a	n/a	1
433.7250000000	n/a	433725	FrequentVariableSOA	1583	n/a	n/a	1
435.3080000000	n/a	435308	FrequentVariableSOA	1633	n/a	n/a	1
436.9410000000	n/a	436941	FrequentVariableSOA	1683	n/a	n/a	1
438.6250000000	n/a	438625	NovelVariableSOA	1750	n/a	n/a	1
440.3750000000	n/a	440375	FrequentVariableSOA	1550	n/a	n/a	1
441.9250000000	n/a	441925	FrequentVariableSOA	1683	n/a	n/a	1
443.6080000000	n/a	443608	GoVariableSOA	353	n/a	n/a	1
445.3410000000	n/a	445341	FrequentVariableSOA	1516	n/a	n/a	1
446.8580000000	n/a	446858	FrequentVariableSOA	1783	n/a	n/a	1
448.6410000000	n/a	448641	FrequentVariableSOA	1766	n/a	n/a	1
450.4080000000	n/a	450408	FrequentVariableSOA	1500	n/a	n/a	1
451.9080000000	n/a	451908	NovelVariableSOA	1650	n/a	n/a	1
453.5580000000	n/a	453558	FrequentVariableSOA	1550	n/a	n/a	1
455.1080000000	n/a	455108	FrequentVariableSOA	1800	n/a	n/a	1
456.9080000000	n/a	456908	FrequentVariableSOA	1566	n/a	n/a	1
458.4750000000	n/a	458475	FrequentVariableSOA	1550	n/a	n/a	1
460.0250000000	n/a	460025	FrequentVariableSOA	1533	n/a	n/a	1
461.5580000000	n/a	461558	GoFixedSOA	396	n/a	n/a	1
463.1910000000	n/a	463191	FrequentFixedSOA	1633	n/a	n/a	1
464.8250000000	n/a	464825	FrequentFixedSOA	1633	n/a	n/a	1
466.4580000000	n/a	466458	FrequentFixedSOA	1633	n/a	n/a	1
468.0910000000	n/a	468091	FrequentFixedSOA	1633	n/a	n/a	1
469.7250000000	n/a	469725	FrequentFixedSOA	1633	n/a	n/a	1
471.3580000000	n/a	471358	FrequentFixedSOA	1633	n/a	n/a	1
472.9910000000	n/a	472991	NovelFixedSOA	1633	n/a	n/a	1
474.6250000000	n/a	474625	FrequentFixedSOA	1633	n/a	n/a	1
476.2580000000	n/a	476258	FrequentFixedSOA	1633	n/a	n/a	1
477.8910000000	n/a	477891	FrequentFixedSOA	1633	n/a	n/a	1
479.5250000000	n/a	479525	NovelFixedSOA	1633	n/a	n/a	1
481.1580000000	n/a	481158	FrequentFixedSOA	1633	n/a	n/a	1
482.7910000000	n/a	482791	GoFixedSOA	306	n/a	n/a	1
484.4250000000	n/a	484425	FrequentFixedSOA	1633	n/a	n/a	1
486.0580000000	n/a	486058	FrequentFixedSOA	1633	n/a	n/a	1
487.6910000000	n/a	487691	GoFixedSOA	359	n/a	n/a	1
489.3250000000	n/a	489325	FrequentFixedSOA	1633	n/a	n/a	1
490.9580000000	n/a	490958	NovelFixedSOA	1633	n/a	n/a	1
492.5910000000	n/a	492591	FrequentFixedSOA	1633	n/a	n/a	1
494.2250000000	n/a	494225	FrequentFixedSOA	1633	n/a	n/a	1
495.8580000000	n/a	495858	FrequentFixedSOA	1633	n/a	n/a	1
497.4910000000	n/a	497491	FrequentFixedSOA	1633	n/a	n/a	1
499.1240000000	n/a	499124	FrequentFixedSOA	1633	n/a	n/a	1
500.7580000000	n/a	500758	GoFixedSOA	312	n/a	n/a	1
502.3910000000	n/a	502391	FrequentFixedSOA	1633	n/a	n/a	1
504.0240000000	n/a	504024	FrequentFixedSOA	1633	n/a	n/a	1
505.6580000000	n/a	505658	NovelFixedSOA	1633	n/a	n/a	1
507.2910000000	n/a	507291	FrequentFixedSOA	1633	n/a	n/a	1
508.9240000000	n/a	508924	FrequentFixedSOA	1633	n/a	n/a	1
510.5580000000	n/a	510558	FrequentFixedSOA	1633	n/a	n/a	1
512.1910000000	n/a	512191	FrequentFixedSOA	1633	n/a	n/a	1
513.8240000000	n/a	513824	FrequentFixedSOA	1633	n/a	n/a	1
515.4580000000	n/a	515458	NovelFixedSOA	1633	n/a	n/a	1
517.0910000000	n/a	517091	FrequentFixedSOA	1633	n/a	n/a	1
518.7240000000	n/a	518724	FrequentFixedSOA	1633	n/a	n/a	1
520.3580000000	n/a	520358	FrequentFixedSOA	1633	n/a	n/a	1
521.9910000000	n/a	521991	FrequentFixedSOA	1633	n/a	n/a	1
523.6240000000	n/a	523624	GoFixedSOA	313	n/a	n/a	1
525.2580000000	n/a	525258	FrequentFixedSOA	1633	n/a	n/a	1
526.8910000000	n/a	526891	FrequentFixedSOA	1633	n/a	n/a	1
528.5240000000	n/a	528524	NovelFixedSOA	1633	n/a	n/a	1
530.1580000000	n/a	530158	FrequentFixedSOA	1633	n/a	n/a	1
531.7910000000	n/a	531791	FrequentFixedSOA	1633	n/a	n/a	1
533.4240000000	n/a	533424	NovelFixedSOA	1633	n/a	n/a	1
535.0580000000	n/a	535058	FrequentFixedSOA	1633	n/a	n/a	1
536.6910000000	n/a	536691	FrequentFixedSOA	1633	n/a	n/a	1
538.3240000000	n/a	538324	FrequentFixedSOA	1633	n/a	n/a	1
539.9580000000	n/a	539958	FrequentFixedSOA	1633	n/a	n/a	1
541.5910000000	n/a	541591	FrequentFixedSOA	1633	n/a	n/a	1
543.2240000000	n/a	543224	GoFixedSOA	294	n/a	n/a	1
544.8580000000	n/a	544858	FrequentFixedSOA	1633	n/a	n/a	1
546.4910000000	n/a	546491	FrequentFixedSOA	1633	n/a	n/a	1
548.1240000000	n/a	548124	FrequentFixedSOA	1633	n/a	n/a	1
549.7580000000	n/a	549758	FrequentFixedSOA	1633	n/a	n/a	1
551.3910000000	n/a	551391	FrequentFixedSOA	1633	n/a	n/a	1
553.0240000000	n/a	553024	NovelFixedSOA	1633	n/a	n/a	1
554.6580000000	n/a	554658	FrequentFixedSOA	1633	n/a	n/a	1
556.2910000000	n/a	556291	GoFixedSOA	326	n/a	n/a	1
557.9240000000	n/a	557924	FrequentFixedSOA	1633	n/a	n/a	1
559.5580000000	n/a	559558	FrequentFixedSOA	1633	n/a	n/a	1
561.1910000000	n/a	561191	FrequentFixedSOA	1633	n/a	n/a	1
562.8240000000	n/a	562824	FrequentFixedSOA	1633	n/a	n/a	1
564.4580000000	n/a	564458	FrequentFixedSOA	1633	n/a	n/a	1
566.0910000000	n/a	566091	FrequentFixedSOA	1633	n/a	n/a	1
567.7240000000	n/a	567724	FrequentFixedSOA	1633	n/a	n/a	1
569.3580000000	n/a	569358	FrequentFixedSOA	1633	n/a	n/a	1
570.9910000000	n/a	570991	NovelFixedSOA	1633	n/a	n/a	1
572.6240000000	n/a	572624	FrequentFixedSOA	1633	n/a	n/a	1
574.2580000000	n/a	574258	FrequentFixedSOA	1633	n/a	n/a	1
575.8910000000	n/a	575891	GoVariableSOA	338	n/a	n/a	1
577.4410000000	n/a	577441	FrequentVariableSOA	1716	n/a	n/a	1
579.1580000000	n/a	579158	FrequentVariableSOA	1633	n/a	n/a	1
580.7910000000	n/a	580791	FrequentVariableSOA	1533	n/a	n/a	1
582.3240000000	n/a	582324	FrequentVariableSOA	1716	n/a	n/a	1
584.0410000000	n/a	584041	FrequentVariableSOA	1533	n/a	n/a	1
585.5740000000	n/a	585574	FrequentVariableSOA	1583	n/a	n/a	1
587.1580000000	n/a	587158	NovelVariableSOA	1650	n/a	n/a	1
588.8080000000	n/a	588808	FrequentVariableSOA	1583	n/a	n/a	1
590.3910000000	n/a	590391	FrequentVariableSOA	1716	n/a	n/a	1
592.1080000000	n/a	592108	FrequentVariableSOA	1633	n/a	n/a	1
593.7410000000	n/a	593741	NovelVariableSOA	1500	n/a	n/a	1
595.2410000000	n/a	595241	FrequentVariableSOA	1566	n/a	n/a	1
596.8080000000	n/a	596808	GoVariableSOA	363	n/a	n/a	1
598.4740000000	n/a	598474	FrequentVariableSOA	1783	n/a	n/a	1
600.2580000000	n/a	600258	FrequentVariableSOA	1750	n/a	n/a	1
602.0080000000	n/a	602008	GoVariableSOA	351	n/a	n/a	1
603.5580000000	n/a	603558	FrequentVariableSOA	1783	n/a	n/a	1
605.3410000000	n/a	605341	NovelVariableSOA	1516	n/a	n/a	1
606.8580000000	n/a	606858	FrequentVariableSOA	1700	n/a	n/a	1
608.5580000000	n/a	608558	FrequentVariableSOA	1750	n/a	n/a	1
610.3080000000	n/a	610308	FrequentVariableSOA	1550	n/a	n/a	1
611.8580000000	n/a	611858	FrequentVariableSOA	1600	n/a	n/a	1
613.4580000000	n/a	613458	FrequentVariableSOA	1700	n/a	n/a	1
615.1580000000	n/a	615158	GoVariableSOA	316	n/a	n/a	1
616.6580000000	n/a	616658	FrequentVariableSOA	1516	n/a	n/a	1
618.1740000000	n/a	618174	FrequentVariableSOA	1550	n/a	n/a	1
619.7240000000	n/a	619724	NovelVariableSOA	1550	n/a	n/a	1
621.2740000000	n/a	621274	FrequentVariableSOA	1750	n/a	n/a	1
623.0240000000	n/a	623024	FrequentVariableSOA	1633	n/a	n/a	1
624.6580000000	n/a	624658	FrequentVariableSOA	1750	n/a	n/a	1
626.4080000000	n/a	626408	FrequentVariableSOA	1800	n/a	n/a	1
628.2080000000	n/a	628208	FrequentVariableSOA	1516	n/a	n/a	1
629.7240000000	n/a	629724	NovelVariableSOA	1616	n/a	n/a	1
631.3410000000	n/a	631341	FrequentVariableSOA	1600	n/a	n/a	1
632.9410000000	n/a	632941	FrequentVariableSOA	1716	n/a	n/a	1
634.6580000000	n/a	634658	FrequentVariableSOA	1733	n/a	n/a	1
636.3910000000	n/a	636391	FrequentVariableSOA	1700	n/a	n/a	1
638.0910000000	n/a	638091	GoVariableSOA	317	n/a	n/a	1
639.7910000000	n/a	639791	FrequentVariableSOA	1650	n/a	n/a	1
641.4410000000	n/a	641441	FrequentVariableSOA	1800	n/a	n/a	1
643.2410000000	n/a	643241	NovelVariableSOA	1516	n/a	n/a	1
644.7580000000	n/a	644758	FrequentVariableSOA	1650	n/a	n/a	1
646.4080000000	n/a	646408	FrequentVariableSOA	1550	n/a	n/a	1
647.9580000000	n/a	647958	NovelVariableSOA	1666	n/a	n/a	1
649.6240000000	n/a	649624	FrequentVariableSOA	1733	n/a	n/a	1
651.3580000000	n/a	651358	FrequentVariableSOA	1650	n/a	n/a	1
653.0080000000	n/a	653008	FrequentVariableSOA	1666	n/a	n/a	1
654.6740000000	n/a	654674	FrequentVariableSOA	1600	n/a	n/a	1
656.2740000000	n/a	656274	FrequentVariableSOA	1783	n/a	n/a	1
658.0580000000	n/a	658058	GoVariableSOA	304	n/a	n/a	1
659.8080000000	n/a	659808	FrequentVariableSOA	1633	n/a	n/a	1
661.4410000000	n/a	661441	FrequentVariableSOA	1533	n/a	n/a	1
662.9740000000	n/a	662974	FrequentVariableSOA	1533	n/a	n/a	1
664.5080000000	n/a	664508	FrequentVariableSOA	1650	n/a	n/a	1
666.1580000000	n/a	666158	FrequentVariableSOA	1666	n/a	n/a	1
667.8240000000	n/a	667824	NovelVariableSOA	1766	n/a	n/a	1
669.5910000000	n/a	669591	FrequentVariableSOA	1533	n/a	n/a	1
671.1240000000	n/a	671124	GoVariableSOA	340	n/a	n/a	1
672.7410000000	n/a	672741	FrequentVariableSOA	1800	n/a	n/a	1
674.5410000000	n/a	674541	FrequentVariableSOA	1716	n/a	n/a	1
676.2580000000	n/a	676258	FrequentVariableSOA	1733	n/a	n/a	1
677.9910000000	n/a	677991	FrequentVariableSOA	1766	n/a	n/a	1
679.7580000000	n/a	679758	FrequentVariableSOA	1600	n/a	n/a	1
681.3580000000	n/a	681358	FrequentVariableSOA	1616	n/a	n/a	1
682.9740000000	n/a	682974	FrequentVariableSOA	1550	n/a	n/a	1
684.5240000000	n/a	684524	FrequentVariableSOA	1683	n/a	n/a	1
686.2080000000	n/a	686208	NovelVariableSOA	1683	n/a	n/a	1
687.8910000000	n/a	687891	FrequentVariableSOA	1733	n/a	n/a	1
689.6240000000	n/a	689624	FrequentVariableSOA	1716	n/a	n/a	1
691.3410000000	n/a	691341	GoFixedSOA	329	n/a	n/a	1
692.9740000000	n/a	692974	FrequentFixedSOA	1633	n/a	n/a	1
694.6080000000	n/a	694608	FrequentFixedSOA	1633	n/a	n/a	1
696.2410000000	n/a	696241	FrequentFixedSOA	1633	n/a	n/a	1
697.8740000000	n/a	697874	GoFixedSOA	333	n/a	n/a	1
699.5080000000	n/a	699508	FrequentFixedSOA	1633	n/a	n/a	1
701.1410000000	n/a	701141	FrequentFixedSOA	1633	n/a	n/a	1
702.7740000000	n/a	702774	FrequentFixedSOA	1633	n/a	n/a	1
704.4080000000	n/a	704408	FrequentFixedSOA	1633	n/a	n/a	1
706.0410000000	n/a	706041	GoFixedSOA	384	n/a	n/a	1
707.6740000000	n/a	707674	FrequentFixedSOA	1633	n/a	n/a	1
709.3080000000	n/a	709308	FrequentFixedSOA	1633	n/a	n/a	1
710.9410000000	n/a	710941	NovelFixedSOA	1633	n/a	n/a	1
712.5740000000	n/a	712574	FrequentFixedSOA	1633	n/a	n/a	1
714.2080000000	n/a	714208	FrequentFixedSOA	1633	n/a	n/a	1
715.8410000000	n/a	715841	GoFixedSOA	313	n/a	n/a	1
717.4740000000	n/a	717474	FrequentFixedSOA	1633	n/a	n/a	1
719.1080000000	n/a	719108	FrequentFixedSOA	1633	n/a	n/a	1
720.7410000000	n/a	720741	FrequentFixedSOA	1633	n/a	n/a	1
722.3740000000	n/a	722374	NovelFixedSOA	1633	n/a	n/a	1
724.0070000000	n/a	724007	FrequentFixedSOA	1633	n/a	n/a	1
725.6410000000	n/a	725641	NovelFixedSOA	1633	n/a	n/a	1
727.2740000000	n/a	727274	FrequentFixedSOA	1633	n/a	n/a	1
728.9070000000	n/a	728907	FrequentFixedSOA	1633	n/a	n/a	1
730.5410000000	n/a	730541	FrequentFixedSOA	1633	n/a	n/a	1
732.1740000000	n/a	732174	GoFixedSOA	334	n/a	n/a	1
733.8070000000	n/a	733807	FrequentFixedSOA	1633	n/a	n/a	1
735.4410000000	n/a	735441	FrequentFixedSOA	1633	n/a	n/a	1
737.0740000000	n/a	737074	FrequentFixedSOA	1633	n/a	n/a	1
738.7070000000	n/a	738707	GoFixedSOA	333	n/a	n/a	1
740.3410000000	n/a	740341	FrequentFixedSOA	1633	n/a	n/a	1
741.9740000000	n/a	741974	FrequentFixedSOA	1633	n/a	n/a	1
743.6070000000	n/a	743607	NovelFixedSOA	1633	n/a	n/a	1
745.2410000000	n/a	745241	FrequentFixedSOA	1633	n/a	n/a	1
746.8740000000	n/a	746874	GoFixedSOA	301	n/a	n/a	1
748.5070000000	n/a	748507	FrequentFixedSOA	1633	n/a	n/a	1
750.1410000000	n/a	750141	FrequentFixedSOA	1633	n/a	n/a	1
751.7740000000	n/a	751774	FrequentFixedSOA	1633	n/a	n/a	1
753.4070000000	n/a	753407	FrequentFixedSOA	1633	n/a	n/a	1
755.0410000000	n/a	755041	FrequentFixedSOA	1633	n/a	n/a	1
756.6740000000	n/a	756674	FrequentFixedSOA	1633	n/a	n/a	1
758.3070000000	n/a	758307	NovelFixedSOA	1633	n/a	n/a	1
759.9410000000	n/a	759941	FrequentFixedSOA	1633	n/a	n/a	1
761.5740000000	n/a	761574	FrequentFixedSOA	1633	n/a	n/a	1
763.2070000000	n/a	763207	FrequentFixedSOA	1633	n/a	n/a	1
764.8410000000	n/a	764841	GoFixedSOA	409	n/a	n/a	1
766.4740000000	n/a	766474	FrequentFixedSOA	1633	n/a	n/a	1
768.1070000000	n/a	768107	FrequentFixedSOA	1633	n/a	n/a	1
769.7410000000	n/a	769741	FrequentFixedSOA	1633	n/a	n/a	1
771.3740000000	n/a	771374	FrequentFixedSOA	1633	n/a	n/a	1
773.0070000000	n/a	773007	NovelFixedSOA	1633	n/a	n/a	1
774.6410000000	n/a	774641	FrequentFixedSOA	1633	n/a	n/a	1
776.2740000000	n/a	776274	FrequentFixedSOA	1633	n/a	n/a	1
777.9070000000	n/a	777907	NovelFixedSOA	1633	n/a	n/a	1
779.5410000000	n/a	779541	FrequentFixedSOA	1633	n/a	n/a	1
781.1740000000	n/a	781174	NovelFixedSOA	1633	n/a	n/a	1
782.8070000000	n/a	782807	FrequentFixedSOA	1633	n/a	n/a	1
784.4410000000	n/a	784441	FrequentFixedSOA	1633	n/a	n/a	1
786.0740000000	n/a	786074	FrequentFixedSOA	1633	n/a	n/a	1
787.7070000000	n/a	787707	FrequentFixedSOA	1633	n/a	n/a	1
789.3410000000	n/a	789341	FrequentFixedSOA	1633	n/a	n/a	1
790.9740000000	n/a	790974	FrequentFixedSOA	1633	n/a	n/a	1
792.6070000000	n/a	792607	FrequentFixedSOA	1633	n/a	n/a	1
794.2410000000	n/a	794241	GoFixedSOA	355	n/a	n/a	1
795.8740000000	n/a	795874	FrequentFixedSOA	1633	n/a	n/a	1
797.5070000000	n/a	797507	GoFixedSOA	349	n/a	n/a	1
799.1410000000	n/a	799141	FrequentFixedSOA	1633	n/a	n/a	1
800.7740000000	n/a	800774	FrequentFixedSOA	1633	n/a	n/a	1
802.4070000000	n/a	802407	NovelFixedSOA	318	n/a	n/a	0
804.0410000000	n/a	804041	FrequentFixedSOA	1633	n/a	n/a	1
805.6740000000	n/a	805674	GoVariableSOA	392	n/a	n/a	1
807.3240000000	n/a	807324	FrequentVariableSOA	1633	n/a	n/a	1
808.9570000000	n/a	808957	FrequentVariableSOA	1533	n/a	n/a	1
810.4910000000	n/a	810491	FrequentVariableSOA	1766	n/a	n/a	1
812.2570000000	n/a	812257	GoVariableSOA	269	n/a	n/a	1
813.9570000000	n/a	813957	FrequentVariableSOA	1566	n/a	n/a	1
815.5240000000	n/a	815524	FrequentVariableSOA	1733	n/a	n/a	1
817.2570000000	n/a	817257	FrequentVariableSOA	1533	n/a	n/a	1
818.7910000000	n/a	818791	FrequentVariableSOA	1666	n/a	n/a	1
820.4570000000	n/a	820457	GoVariableSOA	287	n/a	n/a	1
821.9740000000	n/a	821974	FrequentVariableSOA	1766	n/a	n/a	1
823.7410000000	n/a	823741	FrequentVariableSOA	1733	n/a	n/a	1
825.4740000000	n/a	825474	NovelVariableSOA	1733	n/a	n/a	1
827.2070000000	n/a	827207	FrequentVariableSOA	1716	n/a	n/a	1
828.9240000000	n/a	828924	FrequentVariableSOA	1733	n/a	n/a	1
830.6570000000	n/a	830657	GoVariableSOA	376	n/a	n/a	1
832.3910000000	n/a	832391	FrequentVariableSOA	1600	n/a	n/a	1
833.9910000000	n/a	833991	FrequentVariableSOA	1666	n/a	n/a	1
835.6570000000	n/a	835657	FrequentVariableSOA	1516	n/a	n/a	1
837.1740000000	n/a	837174	NovelVariableSOA	1733	n/a	n/a	1
838.9070000000	n/a	838907	FrequentVariableSOA	1650	n/a	n/a	1
840.5570000000	n/a	840557	NovelVariableSOA	1550	n/a	n/a	1
842.1070000000	n/a	842107	FrequentVariableSOA	1516	n/a	n/a	1
843.6240000000	n/a	843624	FrequentVariableSOA	1783	n/a	n/a	1
845.4070000000	n/a	845407	FrequentVariableSOA	1616	n/a	n/a	1
847.0240000000	n/a	847024	GoVariableSOA	348	n/a	n/a	1
848.6570000000	n/a	848657	FrequentVariableSOA	1650	n/a	n/a	1
850.3070000000	n/a	850307	FrequentVariableSOA	1616	n/a	n/a	1
851.9240000000	n/a	851924	FrequentVariableSOA	1566	n/a	n/a	1
853.4910000000	n/a	853491	GoVariableSOA	398	n/a	n/a	1
855.2740000000	n/a	855274	FrequentVariableSOA	1700	n/a	n/a	1
856.9740000000	n/a	856974	FrequentVariableSOA	1733	n/a	n/a	1
858.7070000000	n/a	858707	NovelVariableSOA	1600	n/a	n/a	1
860.3070000000	n/a	860307	FrequentVariableSOA	1633	n/a	n/a	1
861.9410000000	n/a	861941	GoVariableSOA	288	n/a	n/a	1
863.7410000000	n/a	863741	FrequentVariableSOA	1683	n/a	n/a	1
865.4240000000	n/a	865424	FrequentVariableSOA	1533	n/a	n/a	1
866.9570000000	n/a	866957	FrequentVariableSOA	1516	n/a	n/a	1
868.4740000000	n/a	868474	FrequentVariableSOA	1600	n/a	n/a	1
870.0740000000	n/a	870074	FrequentVariableSOA	1583	n/a	n/a	1
871.6570000000	n/a	871657	FrequentVariableSOA	1583	n/a	n/a	1
873.2410000000	n/a	873241	NovelVariableSOA	1600	n/a	n/a	1
874.8410000000	n/a	874841	FrequentVariableSOA	1633	n/a	n/a	1
876.4740000000	n/a	876474	FrequentVariableSOA	1500	n/a	n/a	1
877.9740000000	n/a	877974	FrequentVariableSOA	1583	n/a	n/a	1
879.5570000000	n/a	879557	GoVariableSOA	317	n/a	n/a	1
881.1910000000	n/a	881191	FrequentVariableSOA	1583	n/a	n/a	1
882.7740000000	n/a	882774	FrequentVariableSOA	1583	n/a	n/a	1
884.3570000000	n/a	884357	FrequentVariableSOA	1783	n/a	n/a	1
886.1410000000	n/a	886141	FrequentVariableSOA	1716	n/a	n/a	1
887.8570000000	n/a	887857	NovelVariableSOA	1666	n/a	n/a	1
889.5240000000	n/a	889524	FrequentVariableSOA	1550	n/a	n/a	1
891.0740000000	n/a	891074	FrequentVariableSOA	1616	n/a	n/a	1
892.6910000000	n/a	892691	NovelVariableSOA	1783	n/a	n/a	1
894.4740000000	n/a	894474	FrequentVariableSOA	1616	n/a	n/a	1
896.0910000000	n/a	896091	NovelVariableSOA	1716	n/a	n/a	1
897.8070000000	n/a	897807	FrequentVariableSOA	1666	n/a	n/a	1
899.4740000000	n/a	899474	FrequentVariableSOA	1750	n/a	n/a	1
901.2240000000	n/a	901224	FrequentVariableSOA	1550	n/a	n/a	1
902.7740000000	n/a	902774	FrequentVariableSOA	1766	n/a	n/a	1
904.5410000000	n/a	904541	FrequentVariableSOA	1533	n/a	n/a	1
906.0740000000	n/a	906074	FrequentVariableSOA	1633	n/a	n/a	1
907.7070000000	n/a	907707	FrequentVariableSOA	1600	n/a	n/a	1
909.3070000000	n/a	909307	GoVariableSOA	310	n/a	n/a	1
910.9240000000	n/a	910924	FrequentVariableSOA	1716	n/a	n/a	1
912.6410000000	n/a	912641	GoVariableSOA	402	n/a	n/a	1
914.2910000000	n/a	914291	FrequentVariableSOA	1616	n/a	n/a	1
915.9070000000	n/a	915907	FrequentVariableSOA	1800	n/a	n/a	1
917.7070000000	n/a	917707	NovelVariableSOA	1683	n/a	n/a	1
919.3910000000	n/a	919391	FrequentVariableSOA	1550	n/a	n/a	1
