onset	duration	sample	trial_type	response_time	stim_file	value	correct
11.2410000000	n/a	11241	ignore	3176	n/a	n/a	1
15.4910000000	n/a	15491	ignore	1000	n/a	n/a	1
17.4910000000	n/a	17491	ignore	1700	n/a	n/a	1
19.1910000000	n/a	19191	ignore	1110	n/a	n/a	0
21.3750000000	n/a	21375	ignore	1000	n/a	n/a	1
23.3750000000	n/a	23375	ignore	1700	n/a	n/a	1
25.0750000000	n/a	25075	ignore	1515	n/a	n/a	0
27.6580000000	n/a	27658	ignore	1000	n/a	n/a	1
29.6580000000	n/a	29658	ignore	1700	n/a	n/a	1
31.3580000000	n/a	31358	ignore	1083	n/a	n/a	1
33.5080000000	n/a	33508	ignore	1000	n/a	n/a	1
35.5080000000	n/a	35508	ignore	1700	n/a	n/a	1
37.2080000000	n/a	37208	ignore	1573	n/a	n/a	1
39.8580000000	n/a	39858	ignore	1000	n/a	n/a	1
41.8580000000	n/a	41858	ignore	1700	n/a	n/a	1
43.5580000000	n/a	43558	ignore	1145	n/a	n/a	1
45.7750000000	n/a	45775	ignore	1000	n/a	n/a	1
47.7750000000	n/a	47775	ignore	1700	n/a	n/a	1
49.4750000000	n/a	49475	ignore	829	n/a	n/a	1
51.3750000000	n/a	51375	ignore	1000	n/a	n/a	1
53.3750000000	n/a	53375	ignore	1700	n/a	n/a	1
55.0750000000	n/a	55075	ignore	1043	n/a	n/a	0
57.1910000000	n/a	57191	ignore	1000	n/a	n/a	1
59.1910000000	n/a	59191	ignore	1700	n/a	n/a	1
60.8910000000	n/a	60891	ignore	2698	n/a	n/a	1
63.6580000000	n/a	63658	ignore 	2000	n/a	n/a	1
71.0410000000	n/a	71041	ignore	1000	n/a	n/a	1
73.0410000000	n/a	73041	ignore	1700	n/a	n/a	1
74.7410000000	n/a	74741	ignore	688	n/a	n/a	1
76.4910000000	n/a	76491	ignore	1000	n/a	n/a	1
78.4910000000	n/a	78491	ignore	1700	n/a	n/a	1
80.1910000000	n/a	80191	ignore	965	n/a	n/a	0
82.2240000000	n/a	82224	ignore	1000	n/a	n/a	1
84.2250000000	n/a	84225	ignore	1700	n/a	n/a	1
85.9240000000	n/a	85924	ignore	1515	n/a	n/a	1
88.5080000000	n/a	88508	ignore	1000	n/a	n/a	1
90.5080000000	n/a	90508	ignore	1700	n/a	n/a	1
92.2080000000	n/a	92208	ignore	724	n/a	n/a	1
94.0080000000	n/a	94008	ignore	1000	n/a	n/a	1
96.0080000000	n/a	96008	ignore	1700	n/a	n/a	1
97.7080000000	n/a	97708	ignore	1086	n/a	n/a	0
99.8580000000	n/a	99858	ignore	1000	n/a	n/a	1
101.8580000000	n/a	101858	ignore	1700	n/a	n/a	1
103.5580000000	n/a	103558	ignore	891	n/a	n/a	0
105.5240000000	n/a	105524	ignore	1000	n/a	n/a	1
107.5240000000	n/a	107524	ignore	1700	n/a	n/a	1
109.2240000000	n/a	109224	ignore	1352	n/a	n/a	0
111.6410000000	n/a	111641	ignore	1000	n/a	n/a	1
113.6410000000	n/a	113641	ignore	1700	n/a	n/a	1
115.3410000000	n/a	115341	ignore	1345	n/a	n/a	1
116.7580000000	n/a	116758	ignore 	2000	n/a	n/a	1
133.1580000000	n/a	133158	PenaltyB1	1320	n/a	n/a	1
135.5410000000	n/a	135541	NeuCorrB1	1000	n/a	n/a	1
137.5410000000	n/a	137541	ignore	1700	n/a	n/a	1
139.2410000000	n/a	139241	PenaltyB1	1662	n/a	n/a	1
141.9740000000	n/a	141974	NeuCorrB1	1000	n/a	n/a	1
143.9740000000	n/a	143974	ignore	1700	n/a	n/a	1
145.6740000000	n/a	145674	PenaltyB1	1037	n/a	n/a	0
147.7740000000	n/a	147774	PunIncorrB1	1000	n/a	n/a	1
149.7740000000	n/a	149774	ignore	1700	n/a	n/a	1
151.4740000000	n/a	151474	RewardB1	1373	n/a	n/a	0
153.9240000000	n/a	153924	NeuIncorrB1	1000	n/a	n/a	1
155.9240000000	n/a	155924	ignore	1700	n/a	n/a	1
157.6240000000	n/a	157624	RewardB1	888	n/a	n/a	0
159.5910000000	n/a	159591	NeuIncorrB1	1000	n/a	n/a	1
161.5910000000	n/a	161591	ignore	1700	n/a	n/a	1
163.2910000000	n/a	163291	PenaltyB1	1083	n/a	n/a	0
165.4410000000	n/a	165441	PunIncorrB1	1000	n/a	n/a	1
167.4410000000	n/a	167441	STATUS	1700	n/a	n/a	1
169.1410000000	n/a	169141	PenaltyB1	1227	n/a	n/a	0
171.4410000000	n/a	171441	PunIncorrB1	1000	n/a	n/a	1
173.4410000000	n/a	173441	STATUS	1700	n/a	n/a	1
175.1410000000	n/a	175141	PenaltyB1	594	n/a	n/a	0
176.8080000000	n/a	176808	PunIncorrB1	1000	n/a	n/a	1
178.8080000000	n/a	178808	STATUS	1700	n/a	n/a	1
180.5080000000	n/a	180508	PenaltyB1	544	n/a	n/a	0
182.1240000000	n/a	182124	NeuIncorrB1	1000	n/a	n/a	1
184.1240000000	n/a	184124	STATUS	1700	n/a	n/a	1
185.8240000000	n/a	185824	RewardB1	897	n/a	n/a	0
187.7910000000	n/a	187791	NeuIncorrB1	1000	n/a	n/a	1
189.7910000000	n/a	189791	STATUS	1700	n/a	n/a	1
191.4910000000	n/a	191491	PenaltyB1	1515	n/a	n/a	1
194.0740000000	n/a	194074	NeuCorrB1	1000	n/a	n/a	1
196.0740000000	n/a	196074	STATUS	1700	n/a	n/a	1
197.7740000000	n/a	197774	RewardB1	1480	n/a	n/a	1
200.3240000000	n/a	200324	NeuCorrB1	1000	n/a	n/a	1
202.3240000000	n/a	202324	STATUS	1700	n/a	n/a	1
204.0240000000	n/a	204024	PenaltyB1	1206	n/a	n/a	1
206.3080000000	n/a	206308	NeuCorrB1	1000	n/a	n/a	1
208.3080000000	n/a	208308	STATUS	1700	n/a	n/a	1
210.0080000000	n/a	210008	RewardB1	708	n/a	n/a	1
211.7910000000	n/a	211791	RewardCorrB1	1000	n/a	n/a	1
213.7910000000	n/a	213791	STATUS	1700	n/a	n/a	1
215.4910000000	n/a	215491	PenaltyB1	836	n/a	n/a	1
217.3910000000	n/a	217391	NeuCorrB1	1000	n/a	n/a	1
219.3910000000	n/a	219391	STATUS	1700	n/a	n/a	1
221.0910000000	n/a	221091	PenaltyB1	731	n/a	n/a	1
222.8910000000	n/a	222891	NeuCorrB1	1000	n/a	n/a	1
224.8910000000	n/a	224891	STATUS	1700	n/a	n/a	1
226.5910000000	n/a	226591	RewardB1	507	n/a	n/a	0
228.1740000000	n/a	228174	RewIncorrB1	1000	n/a	n/a	1
230.1740000000	n/a	230174	STATUS	1700	n/a	n/a	1
231.8740000000	n/a	231874	PenaltyB1	875	n/a	n/a	1
233.8240000000	n/a	233824	NeuCorrB1	1000	n/a	n/a	1
235.8240000000	n/a	235824	STATUS	1700	n/a	n/a	1
237.5240000000	n/a	237524	RewardB1	439	n/a	n/a	0
239.0410000000	n/a	239041	NeuIncorrB1	1000	n/a	n/a	1
241.0410000000	n/a	241041	STATUS	1700	n/a	n/a	1
242.7410000000	n/a	242741	RewardB1	1585	n/a	n/a	0
245.3910000000	n/a	245391	NeuIncorrB1	1000	n/a	n/a	1
247.3910000000	n/a	247391	STATUS	1700	n/a	n/a	1
249.0910000000	n/a	249091	RewardB1	1557	n/a	n/a	1
251.7240000000	n/a	251724	NeuCorrB1	1000	n/a	n/a	1
253.7240000000	n/a	253724	STATUS	1700	n/a	n/a	1
255.4240000000	n/a	255424	RewardB1	493	n/a	n/a	0
256.9910000000	n/a	256991	NeuIncorrB1	1000	n/a	n/a	1
258.9910000000	n/a	258991	STATUS	1700	n/a	n/a	1
260.6910000000	n/a	260691	RewardB1	1206	n/a	n/a	1
262.9740000000	n/a	262974	RewardCorrB1	1000	n/a	n/a	1
264.9740000000	n/a	264974	ignore	1700	n/a	n/a	1
266.6740000000	n/a	266674	PenaltyB1	726	n/a	n/a	0
268.4740000000	n/a	268474	PunIncorrB1	1000	n/a	n/a	1
270.4740000000	n/a	270474	STATUS	1700	n/a	n/a	1
272.1740000000	n/a	272174	RewardB1	501	n/a	n/a	1
273.7410000000	n/a	273741	RewardCorrB1	1000	n/a	n/a	1
275.7410000000	n/a	275741	ignore	1700	n/a	n/a	1
277.4410000000	n/a	277441	PenaltyB1	1277	n/a	n/a	1
279.7910000000	n/a	279791	PunCorrB1	1000	n/a	n/a	1
281.7910000000	n/a	281791	STATUS	1700	n/a	n/a	1
283.4910000000	n/a	283491	RewardB1	789	n/a	n/a	1
285.3570000000	n/a	285357	RewardCorrB1	1000	n/a	n/a	1
287.3580000000	n/a	287358	ignore	1700	n/a	n/a	1
289.0570000000	n/a	289057	RewardB1	828	n/a	n/a	1
290.9570000000	n/a	290957	RewardCorrB1	1000	n/a	n/a	1
292.9570000000	n/a	292957	ignore	1700	n/a	n/a	1
294.6570000000	n/a	294657	RewardB1	798	n/a	n/a	1
296.5240000000	n/a	296524	RewardCorrB1	1000	n/a	n/a	1
298.5240000000	n/a	298524	ignore	1700	n/a	n/a	1
300.2240000000	n/a	300224	PenaltyB1	1250	n/a	n/a	0
302.5410000000	n/a	302541	PunIncorrB1	1000	n/a	n/a	1
304.5410000000	n/a	304541	ignore	1700	n/a	n/a	1
306.2410000000	n/a	306241	RewardB1	376	n/a	n/a	0
307.6910000000	n/a	307691	RewIncorrB1	1000	n/a	n/a	1
309.6910000000	n/a	309691	ignore	1700	n/a	n/a	1
311.3910000000	n/a	311391	PenaltyB1	927	n/a	n/a	1
313.3910000000	n/a	313391	NeuCorrB1	1000	n/a	n/a	1
315.3910000000	n/a	315391	ignore	1700	n/a	n/a	1
317.0910000000	n/a	317091	RewardB1	828	n/a	n/a	1
318.9910000000	n/a	318991	RewardCorrB1	1000	n/a	n/a	1
320.9910000000	n/a	320991	ignore	1700	n/a	n/a	1
322.6910000000	n/a	322691	PenaltyB1	1162	n/a	n/a	1
324.9240000000	n/a	324924	PunCorrB1	1000	n/a	n/a	1
326.9240000000	n/a	326924	ignore	1700	n/a	n/a	1
328.6240000000	n/a	328624	RewardB1	1624	n/a	n/a	1
331.3240000000	n/a	331324	RewardCorrB1	1000	n/a	n/a	1
333.3240000000	n/a	333324	ignore	1700	n/a	n/a	1
335.0240000000	n/a	335024	PenaltyB1	1055	n/a	n/a	1
337.1410000000	n/a	337141	NeuCorrB1	1000	n/a	n/a	1
339.1410000000	n/a	339141	ignore	1700	n/a	n/a	1
340.8410000000	n/a	340841	PenaltyB1	1331	n/a	n/a	1
343.2410000000	n/a	343241	NeuCorrB1	1000	n/a	n/a	1
345.2410000000	n/a	345241	ignore	1700	n/a	n/a	1
346.9410000000	n/a	346941	RewardB1	751	n/a	n/a	0
348.7570000000	n/a	348757	NeuIncorrB1	1000	n/a	n/a	1
350.7570000000	n/a	350757	ignore	1700	n/a	n/a	1
352.4570000000	n/a	352457	PenaltyB1	648	n/a	n/a	1
354.1740000000	n/a	354174	PunCorrB1	1000	n/a	n/a	1
356.1740000000	n/a	356174	ignore	1700	n/a	n/a	1
357.8740000000	n/a	357874	RewardB1	1097	n/a	n/a	1
360.0410000000	n/a	360041	RewardCorrB1	1000	n/a	n/a	1
362.0410000000	n/a	362041	ignore	1700	n/a	n/a	1
370.5240000000	n/a	370524	RewardB2	1350	n/a	n/a	1
372.9410000000	n/a	372941	RewardCorrB2	1000	n/a	n/a	1
374.9410000000	n/a	374941	ignore	1700	n/a	n/a	1
376.6410000000	n/a	376641	PenaltyB2	1210	n/a	n/a	0
378.9240000000	n/a	378924	PunIncorrB2	1000	n/a	n/a	1
380.9240000000	n/a	380924	ignore	1700	n/a	n/a	1
382.6240000000	n/a	382624	RewardB2	2476	n/a	n/a	1
386.1740000000	n/a	386174	RewardCorrB2	1000	n/a	n/a	1
388.1740000000	n/a	388174	ignore	1700	n/a	n/a	1
389.8740000000	n/a	389874	RewardB2	968	n/a	n/a	1
391.9070000000	n/a	391907	NeuCorrB2	1000	n/a	n/a	1
393.9070000000	n/a	393907	ignore	1700	n/a	n/a	1
395.6070000000	n/a	395607	PenaltyB2	982	n/a	n/a	0
397.6570000000	n/a	397657	PunIncorrB2	1000	n/a	n/a	1
399.6570000000	n/a	399657	ignore	1700	n/a	n/a	1
401.3570000000	n/a	401357	RewardB2	1233	n/a	n/a	0
403.6570000000	n/a	403657	NeuIncorrB2	1000	n/a	n/a	1
405.6570000000	n/a	405657	ignore	1700	n/a	n/a	1
407.3570000000	n/a	407357	PenaltyB2	567	n/a	n/a	0
408.9910000000	n/a	408991	PunIncorrB2	1000	n/a	n/a	1
410.9910000000	n/a	410991	ignore	1700	n/a	n/a	1
412.6910000000	n/a	412691	RewardB2	990	n/a	n/a	0
414.7570000000	n/a	414757	NeuIncorrB2	1000	n/a	n/a	1
416.7570000000	n/a	416757	ignore	1700	n/a	n/a	1
418.4570000000	n/a	418457	PenaltyB2	879	n/a	n/a	1
420.4070000000	n/a	420407	NeuCorrB2	1000	n/a	n/a	1
422.4070000000	n/a	422407	ignore	1700	n/a	n/a	1
424.1070000000	n/a	424107	RewardB2	677	n/a	n/a	1
425.8570000000	n/a	425857	RewardCorrB2	1000	n/a	n/a	1
427.8570000000	n/a	427857	ignore	1700	n/a	n/a	1
429.5570000000	n/a	429557	PenaltyB2	672	n/a	n/a	1
431.3070000000	n/a	431307	PunCorrB2	1000	n/a	n/a	1
433.3070000000	n/a	433307	ignore	1700	n/a	n/a	1
435.0070000000	n/a	435007	RewardB2	441	n/a	n/a	1
436.5240000000	n/a	436524	RewardCorrB2	1000	n/a	n/a	1
438.5240000000	n/a	438524	ignore	1700	n/a	n/a	1
440.2240000000	n/a	440224	PenaltyB2	546	n/a	n/a	1
441.8410000000	n/a	441841	NeuCorrB2	1000	n/a	n/a	1
443.8410000000	n/a	443841	ignore	1700	n/a	n/a	1
445.5400000000	n/a	445540	RewardB2	786	n/a	n/a	0
447.3900000000	n/a	447390	NeuIncorrB2	1000	n/a	n/a	1
449.3910000000	n/a	449391	ignore	1700	n/a	n/a	1
451.0900000000	n/a	451090	PenaltyB2	597	n/a	n/a	1
452.7570000000	n/a	452757	NeuCorrB2	1000	n/a	n/a	1
454.7570000000	n/a	454757	ignore	1700	n/a	n/a	1
456.4570000000	n/a	456457	RewardB2	1054	n/a	n/a	1
458.5740000000	n/a	458574	NeuCorrB2	1000	n/a	n/a	1
460.5740000000	n/a	460574	ignore	1700	n/a	n/a	1
462.2740000000	n/a	462274	PenaltyB2	733	n/a	n/a	1
464.0740000000	n/a	464074	NeuCorrB2	1000	n/a	n/a	1
466.0740000000	n/a	466074	ignore	1700	n/a	n/a	1
467.7740000000	n/a	467774	RewardB2	883	n/a	n/a	0
469.7240000000	n/a	469724	NeuIncorrB2	1000	n/a	n/a	1
471.7240000000	n/a	471724	ignore	1700	n/a	n/a	1
473.4240000000	n/a	473424	PenaltyB2	1155	n/a	n/a	1
475.6570000000	n/a	475657	NeuCorrB2	1000	n/a	n/a	1
477.6570000000	n/a	477657	ignore	1700	n/a	n/a	1
479.3570000000	n/a	479357	RewardB2	1464	n/a	n/a	1
481.8900000000	n/a	481890	RewardCorrB2	1000	n/a	n/a	1
483.8900000000	n/a	483890	ignore	1700	n/a	n/a	1
485.5900000000	n/a	485590	PenaltyB2	5384	n/a	n/a	1
492.0400000000	n/a	492040	PunCorrB2	1000	n/a	n/a	1
494.0400000000	n/a	494040	ignore	1700	n/a	n/a	1
495.7400000000	n/a	495740	PenaltyB2	700	n/a	n/a	1
497.5070000000	n/a	497507	NeuCorrB2	1000	n/a	n/a	1
499.5070000000	n/a	499507	ignore	1700	n/a	n/a	1
501.2070000000	n/a	501207	PenaltyB2	861	n/a	n/a	0
503.1400000000	n/a	503140	PunIncorrB2	1000	n/a	n/a	1
505.1400000000	n/a	505140	ignore	1700	n/a	n/a	1
506.8400000000	n/a	506840	RewardB2	1009	n/a	n/a	1
508.9240000000	n/a	508924	RewardCorrB2	1000	n/a	n/a	1
510.9240000000	n/a	510924	ignore	1700	n/a	n/a	1
512.6240000000	n/a	512624	RewardB2	768	n/a	n/a	1
514.4570000000	n/a	514457	NeuCorrB2	1000	n/a	n/a	1
516.4570000000	n/a	516457	ignore	1700	n/a	n/a	1
518.1570000000	n/a	518157	RewardB2	658	n/a	n/a	1
519.8900000000	n/a	519890	RewardCorrB2	1000	n/a	n/a	1
521.8900000000	n/a	521890	ignore	1700	n/a	n/a	1
523.5900000000	n/a	523590	PenaltyB2	1091	n/a	n/a	0
525.7570000000	n/a	525757	PunIncorrB2	1000	n/a	n/a	1
527.7570000000	n/a	527757	ignore	1700	n/a	n/a	1
529.4570000000	n/a	529457	PenaltyB2	2097	n/a	n/a	1
532.6240000000	n/a	532624	NeuCorrB2	1000	n/a	n/a	1
534.6240000000	n/a	534624	ignore	1700	n/a	n/a	1
536.3240000000	n/a	536324	RewardB2	1276	n/a	n/a	1
538.6740000000	n/a	538674	RewardCorrB2	1000	n/a	n/a	1
540.6740000000	n/a	540674	ignore	1700	n/a	n/a	1
542.3740000000	n/a	542374	PenaltyB2	763	n/a	n/a	0
544.2070000000	n/a	544207	PunIncorrB2	1000	n/a	n/a	1
546.2070000000	n/a	546207	ignore	1700	n/a	n/a	1
547.9070000000	n/a	547907	RewardB2	644	n/a	n/a	1
549.6240000000	n/a	549624	NeuCorrB2	1000	n/a	n/a	1
551.6240000000	n/a	551624	ignore	1700	n/a	n/a	1
553.3240000000	n/a	553324	PenaltyB2	4883	n/a	n/a	1
559.2740000000	n/a	559274	NeuCorrB2	1000	n/a	n/a	1
561.2740000000	n/a	561274	ignore	1700	n/a	n/a	1
562.9740000000	n/a	562974	RewardB2	1016	n/a	n/a	1
565.0570000000	n/a	565057	RewardCorrB2	1000	n/a	n/a	1
567.0570000000	n/a	567057	ignore	1700	n/a	n/a	1
568.7570000000	n/a	568757	PenaltyB2	1207	n/a	n/a	1
571.0400000000	n/a	571040	NeuCorrB2	1000	n/a	n/a	1
573.0400000000	n/a	573040	ignore	1700	n/a	n/a	1
574.7400000000	n/a	574740	PenaltyB2	1469	n/a	n/a	1
577.2740000000	n/a	577274	PunCorrB2	1000	n/a	n/a	1
579.2740000000	n/a	579274	ignore	1700	n/a	n/a	1
580.9740000000	n/a	580974	RewardB2	480	n/a	n/a	1
582.5240000000	n/a	582524	RewardCorrB2	1000	n/a	n/a	1
584.5240000000	n/a	584524	ignore	1700	n/a	n/a	1
586.2240000000	n/a	586224	PenaltyB2	1687	n/a	n/a	1
588.9740000000	n/a	588974	NeuCorrB2	1000	n/a	n/a	1
590.9740000000	n/a	590974	ignore	1700	n/a	n/a	1
592.6740000000	n/a	592674	RewardB2	670	n/a	n/a	1
594.4070000000	n/a	594407	RewardCorrB2	1000	n/a	n/a	1
596.4070000000	n/a	596407	ignore	1700	n/a	n/a	1
598.1070000000	n/a	598107	PenaltyB2	886	n/a	n/a	0
600.0570000000	n/a	600057	NeuIncorrB2	1000	n/a	n/a	1
602.0570000000	n/a	602057	ignore	1700	n/a	n/a	1
603.7570000000	n/a	603757	RewardB2	1280	n/a	n/a	1
606.1070000000	n/a	606107	RewardCorrB2	1000	n/a	n/a	1
608.1070000000	n/a	608107	ignore	1700	n/a	n/a	1
615.1740000000	n/a	615174	RewardB3	785	n/a	n/a	1
617.0240000000	n/a	617024	RewardCorrB3	1000	n/a	n/a	1
619.0240000000	n/a	619024	ignore	1700	n/a	n/a	1
620.7240000000	n/a	620724	PenaltyB3	1957	n/a	n/a	0
623.7570000000	n/a	623757	NeuIncorrB3	1000	n/a	n/a	1
625.7570000000	n/a	625757	ignore	1700	n/a	n/a	1
627.4570000000	n/a	627457	RewardB3	914	n/a	n/a	1
629.4400000000	n/a	629440	RewardCorrB3	1000	n/a	n/a	1
631.4400000000	n/a	631440	ignore	1700	n/a	n/a	1
633.1400000000	n/a	633140	PenaltyB3	1011	n/a	n/a	1
635.2240000000	n/a	635224	NeuCorrB3	1000	n/a	n/a	1
637.2240000000	n/a	637224	ignore	1700	n/a	n/a	1
638.9240000000	n/a	638924	PenaltyB3	1114	n/a	n/a	1
641.1070000000	n/a	641107	NeuCorrB3	1000	n/a	n/a	1
643.1070000000	n/a	643107	ignore	1700	n/a	n/a	1
644.8070000000	n/a	644807	RewardB3	2253	n/a	n/a	0
648.1230000000	n/a	648123	NeuIncorrB3	1000	n/a	n/a	1
650.1240000000	n/a	650124	ignore	1700	n/a	n/a	1
651.8230000000	n/a	651823	PenaltyB3	550	n/a	n/a	0
653.4400000000	n/a	653440	NeuIncorrB3	1000	n/a	n/a	1
655.4400000000	n/a	655440	ignore	1700	n/a	n/a	1
657.1400000000	n/a	657140	RewardB3	719	n/a	n/a	1
658.9230000000	n/a	658923	RewardCorrB3	1000	n/a	n/a	1
660.9240000000	n/a	660924	STATUS	1700	n/a	n/a	1
662.6230000000	n/a	662623	PenaltyB3	764	n/a	n/a	1
664.4570000000	n/a	664457	NeuCorrB3	1000	n/a	n/a	1
666.4570000000	n/a	666457	STATUS	1700	n/a	n/a	1
668.1570000000	n/a	668157	RewardB3	1065	n/a	n/a	0
670.2900000000	n/a	670290	RewIncorrB3	1000	n/a	n/a	1
672.2900000000	n/a	672290	STATUS	1700	n/a	n/a	1
673.9900000000	n/a	673990	PenaltyB3	676	n/a	n/a	0
675.7400000000	n/a	675740	PunIncorrB3	1000	n/a	n/a	1
677.7400000000	n/a	677740	STATUS	1700	n/a	n/a	1
679.4400000000	n/a	679440	RewardB3	513	n/a	n/a	0
681.0230000000	n/a	681023	NeuIncorrB3	1000	n/a	n/a	1
683.0230000000	n/a	683023	STATUS	1700	n/a	n/a	1
684.7230000000	n/a	684723	RewardB3	426	n/a	n/a	1
686.2230000000	n/a	686223	RewardCorrB3	1000	n/a	n/a	1
688.2230000000	n/a	688223	STATUS	1700	n/a	n/a	1
689.9230000000	n/a	689923	RewardB3	630	n/a	n/a	0
691.6230000000	n/a	691623	NeuIncorrB3	1000	n/a	n/a	1
693.6230000000	n/a	693623	STATUS	1700	n/a	n/a	1
695.3230000000	n/a	695323	PenaltyB3	1232	n/a	n/a	0
697.6230000000	n/a	697623	NeuIncorrB3	1000	n/a	n/a	1
699.6230000000	n/a	699623	STATUS	1700	n/a	n/a	1
701.3230000000	n/a	701323	RewardB3	896	n/a	n/a	0
703.2900000000	n/a	703290	NeuIncorrB3	1000	n/a	n/a	1
705.2900000000	n/a	705290	STATUS	1700	n/a	n/a	1
706.9900000000	n/a	706990	PenaltyB3	616	n/a	n/a	1
708.6730000000	n/a	708673	NeuCorrB3	1000	n/a	n/a	1
710.6730000000	n/a	710673	STATUS	1700	n/a	n/a	1
712.3730000000	n/a	712373	RewardB3	536	n/a	n/a	1
713.9730000000	n/a	713973	RewardCorrB3	1000	n/a	n/a	1
715.9730000000	n/a	715973	STATUS	1700	n/a	n/a	1
717.6730000000	n/a	717673	RewardB3	407	n/a	n/a	0
719.1570000000	n/a	719157	NeuIncorrB3	1000	n/a	n/a	1
721.1570000000	n/a	721157	STATUS	1700	n/a	n/a	1
722.8570000000	n/a	722857	RewardB3	784	n/a	n/a	0
724.7070000000	n/a	724707	RewIncorrB3	1000	n/a	n/a	1
726.7070000000	n/a	726707	STATUS	1700	n/a	n/a	1
728.4070000000	n/a	728407	RewardB3	6182	n/a	n/a	1
735.6570000000	n/a	735657	RewardCorrB3	1000	n/a	n/a	1
737.6570000000	n/a	737657	STATUS	1700	n/a	n/a	1
739.3570000000	n/a	739357	RewardB3	573	n/a	n/a	1
741.0070000000	n/a	741007	RewardCorrB3	1000	n/a	n/a	1
743.0070000000	n/a	743007	STATUS	1700	n/a	n/a	1
744.7070000000	n/a	744707	PenaltyB3	591	n/a	n/a	0
746.3730000000	n/a	746373	PunIncorrB3	1000	n/a	n/a	1
748.3730000000	n/a	748373	STATUS	1700	n/a	n/a	1
750.0730000000	n/a	750073	RewardB3	467	n/a	n/a	1
751.6070000000	n/a	751607	NeuCorrB3	1000	n/a	n/a	1
753.6070000000	n/a	753607	STATUS	1700	n/a	n/a	1
755.3070000000	n/a	755307	PenaltyB3	947	n/a	n/a	1
757.3230000000	n/a	757323	NeuCorrB3	1000	n/a	n/a	1
759.3230000000	n/a	759323	STATUS	1700	n/a	n/a	1
761.0230000000	n/a	761023	PenaltyB3	691	n/a	n/a	1
762.7900000000	n/a	762790	NeuCorrB3	1000	n/a	n/a	1
764.7900000000	n/a	764790	STATUS	1700	n/a	n/a	1
766.4900000000	n/a	766490	RewardB3	516	n/a	n/a	1
768.0730000000	n/a	768073	RewardCorrB3	1000	n/a	n/a	1
770.0730000000	n/a	770073	STATUS	1700	n/a	n/a	1
771.7730000000	n/a	771773	PenaltyB3	650	n/a	n/a	1
773.4900000000	n/a	773490	NeuCorrB3	1000	n/a	n/a	1
775.4900000000	n/a	775490	STATUS	1700	n/a	n/a	1
777.1900000000	n/a	777190	RewardB3	450	n/a	n/a	1
778.7070000000	n/a	778707	NeuCorrB3	1000	n/a	n/a	1
780.7070000000	n/a	780707	STATUS	1700	n/a	n/a	1
782.4070000000	n/a	782407	PenaltyB3	1404	n/a	n/a	0
784.8730000000	n/a	784873	PunIncorrB3	1000	n/a	n/a	1
786.8730000000	n/a	786873	STATUS	1700	n/a	n/a	1
788.5730000000	n/a	788573	RewardB3	509	n/a	n/a	0
790.1570000000	n/a	790157	NeuIncorrB3	1000	n/a	n/a	1
792.1570000000	n/a	792157	STATUS	1700	n/a	n/a	1
793.8570000000	n/a	793857	PenaltyB3	675	n/a	n/a	1
795.6070000000	n/a	795607	PunCorrB3	1000	n/a	n/a	1
797.6070000000	n/a	797607	STATUS	1700	n/a	n/a	1
799.3070000000	n/a	799307	PenaltyB3	353	n/a	n/a	1
800.7230000000	n/a	800723	NeuCorrB3	1000	n/a	n/a	1
802.7230000000	n/a	802723	STATUS	1700	n/a	n/a	1
804.4230000000	n/a	804423	PenaltyB3	567	n/a	n/a	1
806.0570000000	n/a	806057	NeuCorrB3	1000	n/a	n/a	1
808.0570000000	n/a	808057	STATUS	1700	n/a	n/a	1
809.7570000000	n/a	809757	PenaltyB3	5049	n/a	n/a	1
815.8730000000	n/a	815873	NeuCorrB3	1000	n/a	n/a	1
817.8730000000	n/a	817873	STATUS	1700	n/a	n/a	1
819.5730000000	n/a	819573	RewardB3	422	n/a	n/a	0
821.0730000000	n/a	821073	NeuIncorrB3	1000	n/a	n/a	1
823.0730000000	n/a	823073	STATUS	1700	n/a	n/a	1
824.7730000000	n/a	824773	RewardB3	543	n/a	n/a	1
826.3900000000	n/a	826390	RewardCorrB3	1000	n/a	n/a	1
828.3900000000	n/a	828390	STATUS	1700	n/a	n/a	1
830.0900000000	n/a	830090	PenaltyB3	592	n/a	n/a	1
831.7570000000	n/a	831757	NeuCorrB3	1000	n/a	n/a	1
833.7570000000	n/a	833757	STATUS	1700	n/a	n/a	1
835.4570000000	n/a	835457	PenaltyB3	1119	n/a	n/a	0
837.6400000000	n/a	837640	PunIncorrB3	1000	n/a	n/a	1
839.6400000000	n/a	839640	STATUS	1700	n/a	n/a	1
841.3400000000	n/a	841340	PenaltyB3	858	n/a	n/a	1
843.2730000000	n/a	843273	NeuCorrB3	1000	n/a	n/a	1
845.2730000000	n/a	845273	STATUS	1700	n/a	n/a	1
874.7900000000	n/a	874790	RewardB4	1322	n/a	n/a	1
877.1900000000	n/a	877190	RewardCorrB4	1000	n/a	n/a	1
879.1900000000	n/a	879190	STATUS	1700	n/a	n/a	1
880.8900000000	n/a	880890	PenaltyB4	820	n/a	n/a	1
882.7730000000	n/a	882773	PunCorrB4	1000	n/a	n/a	1
884.7730000000	n/a	884773	STATUS	1700	n/a	n/a	1
886.4730000000	n/a	886473	RewardB4	691	n/a	n/a	0
888.2400000000	n/a	888240	NeuIncorrB4	1000	n/a	n/a	1
890.2400000000	n/a	890240	STATUS	1700	n/a	n/a	1
891.9400000000	n/a	891940	PenaltyB4	737	n/a	n/a	1
893.7400000000	n/a	893740	NeuCorrB4	1000	n/a	n/a	1
895.7400000000	n/a	895740	STATUS	1700	n/a	n/a	1
897.4400000000	n/a	897440	RewardB4	572	n/a	n/a	1
899.0900000000	n/a	899090	RewardCorrB4	1000	n/a	n/a	1
901.0900000000	n/a	901090	STATUS	1700	n/a	n/a	1
902.7900000000	n/a	902790	PenaltyB4	537	n/a	n/a	1
904.3900000000	n/a	904390	PunCorrB4	1000	n/a	n/a	1
906.3900000000	n/a	906390	STATUS	1700	n/a	n/a	1
908.0900000000	n/a	908090	PenaltyB4	821	n/a	n/a	1
909.9730000000	n/a	909973	NeuCorrB4	1000	n/a	n/a	1
911.9730000000	n/a	911973	STATUS	1700	n/a	n/a	1
913.6730000000	n/a	913673	RewardB4	1040	n/a	n/a	0
915.7900000000	n/a	915790	NeuIncorrB4	1000	n/a	n/a	1
917.7900000000	n/a	917790	STATUS	1700	n/a	n/a	1
919.4900000000	n/a	919490	PenaltyB4	787	n/a	n/a	1
921.3400000000	n/a	921340	NeuCorrB4	1000	n/a	n/a	1
923.3400000000	n/a	923340	STATUS	1700	n/a	n/a	1
925.0400000000	n/a	925040	RewardB4	2235	n/a	n/a	1
928.3400000000	n/a	928340	NeuCorrB4	1000	n/a	n/a	1
930.3400000000	n/a	930340	STATUS	1700	n/a	n/a	1
932.0400000000	n/a	932040	PenaltyB4	642	n/a	n/a	0
933.7560000000	n/a	933756	PunIncorrB4	1000	n/a	n/a	1
935.7560000000	n/a	935756	STATUS	1700	n/a	n/a	1
937.4560000000	n/a	937456	RewardB4	691	n/a	n/a	0
939.2230000000	n/a	939223	NeuIncorrB4	1000	n/a	n/a	1
941.2230000000	n/a	941223	STATUS	1700	n/a	n/a	1
942.9230000000	n/a	942923	PenaltyB4	1139	n/a	n/a	1
945.1400000000	n/a	945140	NeuCorrB4	1000	n/a	n/a	1
947.1400000000	n/a	947140	STATUS	1700	n/a	n/a	1
948.8400000000	n/a	948840	PenaltyB4	623	n/a	n/a	0
950.5400000000	n/a	950540	PunIncorrB4	1000	n/a	n/a	1
952.5400000000	n/a	952540	STATUS	1700	n/a	n/a	1
954.2400000000	n/a	954240	RewardB4	806	n/a	n/a	1
956.1230000000	n/a	956123	RewardCorrB4	1000	n/a	n/a	1
958.1230000000	n/a	958123	STATUS	1700	n/a	n/a	1
959.8230000000	n/a	959823	RewardB4	545	n/a	n/a	1
961.4400000000	n/a	961440	NeuCorrB4	1000	n/a	n/a	1
963.4400000000	n/a	963440	STATUS	1700	n/a	n/a	1
965.1400000000	n/a	965140	RewardB4	1601	n/a	n/a	0
967.8060000000	n/a	967806	NeuIncorrB4	1000	n/a	n/a	1
969.8060000000	n/a	969806	STATUS	1700	n/a	n/a	1
971.5060000000	n/a	971506	PenaltyB4	607	n/a	n/a	0
973.1900000000	n/a	973190	PunIncorrB4	1000	n/a	n/a	1
975.1900000000	n/a	975190	STATUS	1700	n/a	n/a	1
976.8900000000	n/a	976890	PenaltyB4	515	n/a	n/a	1
978.4730000000	n/a	978473	NeuCorrB4	1000	n/a	n/a	1
980.4730000000	n/a	980473	STATUS	1700	n/a	n/a	1
982.1730000000	n/a	982173	PenaltyB4	368	n/a	n/a	1
983.6060000000	n/a	983606	PunCorrB4	1000	n/a	n/a	1
985.6060000000	n/a	985606	STATUS	1700	n/a	n/a	1
987.3060000000	n/a	987306	RewardB4	490	n/a	n/a	1
988.8730000000	n/a	988873	RewardCorrB4	1000	n/a	n/a	1
990.8730000000	n/a	990873	STATUS	1700	n/a	n/a	1
992.5730000000	n/a	992573	PenaltyB4	762	n/a	n/a	0
994.4060000000	n/a	994406	PunIncorrB4	1000	n/a	n/a	1
996.4060000000	n/a	996406	STATUS	1700	n/a	n/a	1
998.1060000000	n/a	998106	RewardB4	603	n/a	n/a	0
999.7730000000	n/a	999773	NeuIncorrB4	1000	n/a	n/a	1
1001.7730000000	n/a	1001773	STATUS	1700	n/a	n/a	1
1003.4730000000	n/a	1003473	PenaltyB4	601	n/a	n/a	0
1005.1400000000	n/a	1005140	PunIncorrB4	1000	n/a	n/a	1
1007.1400000000	n/a	1007140	ignore	1700	n/a	n/a	1
1008.8400000000	n/a	1008840	RewardB4	682	n/a	n/a	0
1010.5900000000	n/a	1010590	RewIncorrB4	1000	n/a	n/a	1
1012.5900000000	n/a	1012590	STATUS	1700	n/a	n/a	1
1014.2900000000	n/a	1014290	PenaltyB4	876	n/a	n/a	0
1016.2400000000	n/a	1016240	PunIncorrB4	1000	n/a	n/a	1
1018.2400000000	n/a	1018240	ignore	1700	n/a	n/a	1
1019.9400000000	n/a	1019940	RewardB4	569	n/a	n/a	1
1021.5730000000	n/a	1021573	RewardCorrB4	1000	n/a	n/a	1
1023.5730000000	n/a	1023573	STATUS	1700	n/a	n/a	1
1025.2730000000	n/a	1025273	PenaltyB4	648	n/a	n/a	1
1026.9900000000	n/a	1026990	NeuCorrB4	1000	n/a	n/a	1
1028.9900000000	n/a	1028990	STATUS	1700	n/a	n/a	1
1030.6900000000	n/a	1030690	RewardB4	572	n/a	n/a	1
1032.3400000000	n/a	1032340	RewardCorrB4	1000	n/a	n/a	1
1034.3400000000	n/a	1034340	STATUS	1700	n/a	n/a	1
1036.0400000000	n/a	1036040	PenaltyB4	1476	n/a	n/a	0
1038.5900000000	n/a	1038590	NeuIncorrB4	1000	n/a	n/a	1
1040.5900000000	n/a	1040590	STATUS	1700	n/a	n/a	1
1042.2900000000	n/a	1042290	RewardB4	718	n/a	n/a	1
1044.0730000000	n/a	1044073	RewardCorrB4	1000	n/a	n/a	1
1046.0730000000	n/a	1046073	STATUS	1700	n/a	n/a	1
1047.7730000000	n/a	1047773	PenaltyB4	762	n/a	n/a	1
1049.6060000000	n/a	1049606	NeuCorrB4	1000	n/a	n/a	1
1051.6060000000	n/a	1051606	STATUS	1700	n/a	n/a	1
1053.3060000000	n/a	1053306	RewardB4	451	n/a	n/a	0
1054.8230000000	n/a	1054823	NeuIncorrB4	1000	n/a	n/a	1
1056.8230000000	n/a	1056823	STATUS	1700	n/a	n/a	1
1058.5230000000	n/a	1058523	PenaltyB4	495	n/a	n/a	1
1060.0890000000	n/a	1060089	NeuCorrB4	1000	n/a	n/a	1
1062.0900000000	n/a	1062090	STATUS	1700	n/a	n/a	1
1063.7890000000	n/a	1063789	RewardB4	1830	n/a	n/a	0
1066.6890000000	n/a	1066689	NeuIncorrB4	1000	n/a	n/a	1
1068.6900000000	n/a	1068690	STATUS	1700	n/a	n/a	1
1070.3890000000	n/a	1070389	PenaltyB4	1109	n/a	n/a	1
1072.5730000000	n/a	1072573	NeuCorrB4	1000	n/a	n/a	1
1074.5730000000	n/a	1074573	STATUS	1700	n/a	n/a	1
1076.2730000000	n/a	1076273	RewardB4	357	n/a	n/a	1
1077.7060000000	n/a	1077706	NeuCorrB4	1000	n/a	n/a	1
1079.7060000000	n/a	1079706	STATUS	1700	n/a	n/a	1
1081.4060000000	n/a	1081406	RewardB4	291	n/a	n/a	1
1082.7730000000	n/a	1082773	RewardCorrB4	1000	n/a	n/a	1
1084.7730000000	n/a	1084773	STATUS	1700	n/a	n/a	1
1086.4730000000	n/a	1086473	PenaltyB4	808	n/a	n/a	1
1088.3560000000	n/a	1088356	NeuCorrB4	1000	n/a	n/a	1
1090.3560000000	n/a	1090356	STATUS	1700	n/a	n/a	1
1092.0560000000	n/a	1092056	RewardB4	677	n/a	n/a	1
1093.8060000000	n/a	1093806	RewardCorrB4	1000	n/a	n/a	1
1095.8060000000	n/a	1095806	STATUS	1700	n/a	n/a	1
1112.2390000000	n/a	1112239	STATUS	1700	n/a	n/a	1
