onset	duration	sample	trial_type	response_time	stim_file	value	correct
3.0010000000	n/a	3001	FrequentFixedSOA	1633	n/a	n/a	1
4.6340000000	n/a	4634	FrequentFixedSOA	1633	n/a	n/a	1
6.2670000000	n/a	6267	FrequentFixedSOA	1633	n/a	n/a	1
7.9010000000	n/a	7901	FrequentFixedSOA	740	n/a	n/a	0
9.5340000000	n/a	9534	FrequentFixedSOA	1633	n/a	n/a	1
11.1670000000	n/a	11167	FrequentFixedSOA	1633	n/a	n/a	1
12.8010000000	n/a	12801	FrequentFixedSOA	267	n/a	n/a	0
14.4340000000	n/a	14434	FrequentFixedSOA	221	n/a	n/a	0
16.0670000000	n/a	16067	FrequentFixedSOA	229	n/a	n/a	0
17.7010000000	n/a	17701	FrequentFixedSOA	263	n/a	n/a	0
19.3340000000	n/a	19334	NovelFixedSOA	1633	n/a	n/a	1
20.9670000000	n/a	20967	FrequentFixedSOA	1633	n/a	n/a	1
22.6010000000	n/a	22601	GoFixedSOA	500	n/a	n/a	1
24.2340000000	n/a	24234	FrequentFixedSOA	1633	n/a	n/a	1
25.8670000000	n/a	25867	FrequentFixedSOA	1633	n/a	n/a	1
27.5010000000	n/a	27501	FrequentFixedSOA	1633	n/a	n/a	1
29.1340000000	n/a	29134	GoFixedSOA	510	n/a	n/a	1
30.7670000000	n/a	30767	FrequentFixedSOA	1633	n/a	n/a	1
32.4010000000	n/a	32401	FrequentFixedSOA	1633	n/a	n/a	1
34.0340000000	n/a	34034	FrequentFixedSOA	1633	n/a	n/a	1
35.6670000000	n/a	35667	NovelFixedSOA	1633	n/a	n/a	1
37.3010000000	n/a	37301	FrequentFixedSOA	1633	n/a	n/a	1
38.9340000000	n/a	38934	FrequentFixedSOA	1633	n/a	n/a	1
40.5670000000	n/a	40567	FrequentFixedSOA	1633	n/a	n/a	1
42.2010000000	n/a	42201	GoFixedSOA	456	n/a	n/a	1
43.8340000000	n/a	43834	FrequentFixedSOA	1633	n/a	n/a	1
45.4670000000	n/a	45467	NovelFixedSOA	1633	n/a	n/a	1
47.1010000000	n/a	47101	FrequentFixedSOA	1633	n/a	n/a	1
48.7340000000	n/a	48734	FrequentFixedSOA	1633	n/a	n/a	1
50.3670000000	n/a	50367	FrequentFixedSOA	1633	n/a	n/a	1
52.0010000000	n/a	52001	GoFixedSOA	525	n/a	n/a	1
53.6340000000	n/a	53634	FrequentFixedSOA	1633	n/a	n/a	1
55.2670000000	n/a	55267	GoFixedSOA	591	n/a	n/a	1
56.9010000000	n/a	56901	FrequentFixedSOA	1633	n/a	n/a	1
58.5340000000	n/a	58534	FrequentFixedSOA	1633	n/a	n/a	1
60.1670000000	n/a	60167	GoFixedSOA	444	n/a	n/a	1
61.8010000000	n/a	61801	FrequentFixedSOA	1633	n/a	n/a	1
63.4340000000	n/a	63434	FrequentFixedSOA	1633	n/a	n/a	1
65.0670000000	n/a	65067	FrequentFixedSOA	1633	n/a	n/a	1
66.7010000000	n/a	66701	FrequentFixedSOA	1633	n/a	n/a	1
68.3340000000	n/a	68334	NovelFixedSOA	1633	n/a	n/a	1
69.9670000000	n/a	69967	FrequentFixedSOA	1633	n/a	n/a	1
71.6010000000	n/a	71601	NovelFixedSOA	1633	n/a	n/a	1
73.2340000000	n/a	73234	FrequentFixedSOA	1633	n/a	n/a	1
74.8670000000	n/a	74867	FrequentFixedSOA	1633	n/a	n/a	1
76.5010000000	n/a	76501	GoFixedSOA	443	n/a	n/a	1
78.1340000000	n/a	78134	FrequentFixedSOA	1633	n/a	n/a	1
79.7670000000	n/a	79767	FrequentFixedSOA	1633	n/a	n/a	1
81.4010000000	n/a	81401	FrequentFixedSOA	1633	n/a	n/a	1
83.0340000000	n/a	83034	FrequentFixedSOA	1633	n/a	n/a	1
84.6670000000	n/a	84667	NovelFixedSOA	1633	n/a	n/a	1
86.3010000000	n/a	86301	FrequentFixedSOA	1633	n/a	n/a	1
87.9340000000	n/a	87934	FrequentFixedSOA	1633	n/a	n/a	1
89.5670000000	n/a	89567	FrequentFixedSOA	1633	n/a	n/a	1
91.2010000000	n/a	91201	FrequentFixedSOA	1633	n/a	n/a	1
92.8340000000	n/a	92834	GoFixedSOA	563	n/a	n/a	1
94.4670000000	n/a	94467	FrequentFixedSOA	1633	n/a	n/a	1
96.1010000000	n/a	96101	FrequentFixedSOA	1633	n/a	n/a	1
97.7340000000	n/a	97734	NovelFixedSOA	1633	n/a	n/a	1
99.3670000000	n/a	99367	FrequentFixedSOA	1633	n/a	n/a	1
101.0010000000	n/a	101001	FrequentFixedSOA	1633	n/a	n/a	1
102.6340000000	n/a	102634	GoFixedSOA	505	n/a	n/a	1
104.2670000000	n/a	104267	FrequentFixedSOA	1633	n/a	n/a	1
105.9010000000	n/a	105901	FrequentFixedSOA	1633	n/a	n/a	1
107.5340000000	n/a	107534	FrequentFixedSOA	1633	n/a	n/a	1
109.1670000000	n/a	109167	FrequentFixedSOA	1633	n/a	n/a	1
110.8010000000	n/a	110801	NovelFixedSOA	1633	n/a	n/a	1
112.4340000000	n/a	112434	FrequentFixedSOA	1633	n/a	n/a	1
114.0670000000	n/a	114067	FrequentFixedSOA	1633	n/a	n/a	1
115.7010000000	n/a	115701	GoFixedSOA	387	n/a	n/a	1
117.3340000000	n/a	117334	FrequentVariableSOA	1600	n/a	n/a	1
118.9340000000	n/a	118934	FrequentVariableSOA	1700	n/a	n/a	1
120.6340000000	n/a	120634	FrequentVariableSOA	1750	n/a	n/a	1
122.3840000000	n/a	122384	FrequentVariableSOA	1583	n/a	n/a	1
123.9670000000	n/a	123967	FrequentVariableSOA	1633	n/a	n/a	1
125.6010000000	n/a	125601	FrequentVariableSOA	1533	n/a	n/a	1
127.1340000000	n/a	127134	FrequentVariableSOA	1616	n/a	n/a	1
128.7510000000	n/a	128751	FrequentVariableSOA	1700	n/a	n/a	1
130.4510000000	n/a	130451	FrequentVariableSOA	1733	n/a	n/a	1
132.1840000000	n/a	132184	FrequentVariableSOA	1533	n/a	n/a	1
133.7170000000	n/a	133717	NovelVariableSOA	1616	n/a	n/a	1
135.3340000000	n/a	135334	FrequentVariableSOA	1500	n/a	n/a	1
136.8340000000	n/a	136834	GoVariableSOA	496	n/a	n/a	1
138.5510000000	n/a	138551	FrequentVariableSOA	1766	n/a	n/a	1
140.3170000000	n/a	140317	FrequentVariableSOA	1683	n/a	n/a	1
142.0010000000	n/a	142001	FrequentVariableSOA	1733	n/a	n/a	1
143.7340000000	n/a	143734	GoVariableSOA	527	n/a	n/a	1
145.4170000000	n/a	145417	FrequentVariableSOA	1783	n/a	n/a	1
147.2010000000	n/a	147201	FrequentVariableSOA	1566	n/a	n/a	1
148.7670000000	n/a	148767	FrequentVariableSOA	1550	n/a	n/a	1
150.3170000000	n/a	150317	NovelVariableSOA	1583	n/a	n/a	1
151.9010000000	n/a	151901	FrequentVariableSOA	1750	n/a	n/a	1
153.6510000000	n/a	153651	FrequentVariableSOA	1750	n/a	n/a	1
155.4010000000	n/a	155401	FrequentVariableSOA	1516	n/a	n/a	1
156.9170000000	n/a	156917	GoVariableSOA	485	n/a	n/a	1
158.4840000000	n/a	158484	FrequentVariableSOA	1666	n/a	n/a	1
160.1510000000	n/a	160151	NovelVariableSOA	1716	n/a	n/a	1
161.8670000000	n/a	161867	FrequentVariableSOA	1733	n/a	n/a	1
163.6010000000	n/a	163601	FrequentVariableSOA	1700	n/a	n/a	1
165.3010000000	n/a	165301	FrequentVariableSOA	1666	n/a	n/a	1
166.9670000000	n/a	166967	GoVariableSOA	349	n/a	n/a	1
168.7340000000	n/a	168734	FrequentVariableSOA	1783	n/a	n/a	1
170.5170000000	n/a	170517	GoVariableSOA	586	n/a	n/a	1
172.1170000000	n/a	172117	FrequentVariableSOA	1566	n/a	n/a	1
173.6840000000	n/a	173684	FrequentVariableSOA	1650	n/a	n/a	1
175.3340000000	n/a	175334	GoVariableSOA	342	n/a	n/a	1
176.8510000000	n/a	176851	FrequentVariableSOA	1633	n/a	n/a	1
178.4840000000	n/a	178484	FrequentVariableSOA	1716	n/a	n/a	1
180.2010000000	n/a	180201	FrequentVariableSOA	1566	n/a	n/a	1
181.7670000000	n/a	181767	FrequentVariableSOA	1716	n/a	n/a	1
183.4840000000	n/a	183484	NovelVariableSOA	1800	n/a	n/a	1
185.2840000000	n/a	185284	FrequentVariableSOA	1666	n/a	n/a	1
186.9510000000	n/a	186951	NovelVariableSOA	1633	n/a	n/a	1
188.5840000000	n/a	188584	FrequentVariableSOA	1666	n/a	n/a	1
190.2510000000	n/a	190251	FrequentVariableSOA	1633	n/a	n/a	1
191.8840000000	n/a	191884	GoVariableSOA	397	n/a	n/a	1
193.4170000000	n/a	193417	FrequentVariableSOA	1666	n/a	n/a	1
195.0840000000	n/a	195084	FrequentVariableSOA	1733	n/a	n/a	1
196.8170000000	n/a	196817	FrequentVariableSOA	1583	n/a	n/a	1
198.4010000000	n/a	198401	FrequentVariableSOA	1500	n/a	n/a	1
199.9010000000	n/a	199901	NovelVariableSOA	1783	n/a	n/a	1
201.6840000000	n/a	201684	FrequentVariableSOA	1650	n/a	n/a	1
203.3340000000	n/a	203334	FrequentVariableSOA	1533	n/a	n/a	1
204.8670000000	n/a	204867	FrequentVariableSOA	1650	n/a	n/a	1
206.5170000000	n/a	206517	FrequentVariableSOA	1766	n/a	n/a	1
208.2840000000	n/a	208284	GoVariableSOA	467	n/a	n/a	1
209.9840000000	n/a	209984	FrequentVariableSOA	1666	n/a	n/a	1
211.6500000000	n/a	211650	FrequentVariableSOA	1666	n/a	n/a	1
213.3170000000	n/a	213317	NovelVariableSOA	1566	n/a	n/a	1
214.8840000000	n/a	214884	FrequentVariableSOA	1700	n/a	n/a	1
216.5840000000	n/a	216584	FrequentVariableSOA	1633	n/a	n/a	1
218.2170000000	n/a	218217	GoVariableSOA	440	n/a	n/a	1
219.7840000000	n/a	219784	FrequentVariableSOA	1700	n/a	n/a	1
221.4840000000	n/a	221484	FrequentVariableSOA	1716	n/a	n/a	1
223.2000000000	n/a	223200	FrequentVariableSOA	1633	n/a	n/a	1
224.8340000000	n/a	224834	FrequentVariableSOA	1600	n/a	n/a	1
226.4340000000	n/a	226434	NovelVariableSOA	1700	n/a	n/a	1
228.1340000000	n/a	228134	FrequentVariableSOA	1616	n/a	n/a	1
229.7500000000	n/a	229750	FrequentVariableSOA	1766	n/a	n/a	1
231.5170000000	n/a	231517	GoVariableSOA	481	n/a	n/a	1
233.0500000000	n/a	233050	FrequentFixedSOA	1633	n/a	n/a	1
234.6840000000	n/a	234684	FrequentFixedSOA	1633	n/a	n/a	1
236.3170000000	n/a	236317	FrequentFixedSOA	1633	n/a	n/a	1
237.9500000000	n/a	237950	GoFixedSOA	524	n/a	n/a	1
239.5840000000	n/a	239584	FrequentFixedSOA	1633	n/a	n/a	1
241.2170000000	n/a	241217	FrequentFixedSOA	1633	n/a	n/a	1
242.8500000000	n/a	242850	FrequentFixedSOA	1633	n/a	n/a	1
244.4840000000	n/a	244484	GoFixedSOA	432	n/a	n/a	1
246.1170000000	n/a	246117	FrequentFixedSOA	1633	n/a	n/a	1
247.7500000000	n/a	247750	FrequentFixedSOA	1633	n/a	n/a	1
249.3840000000	n/a	249384	FrequentFixedSOA	1633	n/a	n/a	1
251.0170000000	n/a	251017	NovelFixedSOA	1633	n/a	n/a	1
252.6500000000	n/a	252650	FrequentFixedSOA	1633	n/a	n/a	1
254.2840000000	n/a	254284	NovelFixedSOA	1633	n/a	n/a	1
255.9170000000	n/a	255917	FrequentFixedSOA	1633	n/a	n/a	1
257.5500000000	n/a	257550	FrequentFixedSOA	1633	n/a	n/a	1
259.1840000000	n/a	259184	NovelFixedSOA	1633	n/a	n/a	1
260.8170000000	n/a	260817	FrequentFixedSOA	1633	n/a	n/a	1
262.4500000000	n/a	262450	FrequentFixedSOA	1633	n/a	n/a	1
264.0840000000	n/a	264084	FrequentFixedSOA	1633	n/a	n/a	1
265.7170000000	n/a	265717	FrequentFixedSOA	1633	n/a	n/a	1
267.3500000000	n/a	267350	FrequentFixedSOA	1633	n/a	n/a	1
268.9840000000	n/a	268984	NovelFixedSOA	1633	n/a	n/a	1
270.6170000000	n/a	270617	FrequentFixedSOA	1633	n/a	n/a	1
272.2500000000	n/a	272250	FrequentFixedSOA	1633	n/a	n/a	1
273.8840000000	n/a	273884	FrequentFixedSOA	1633	n/a	n/a	1
275.5170000000	n/a	275517	FrequentFixedSOA	1633	n/a	n/a	1
277.1500000000	n/a	277150	FrequentFixedSOA	1633	n/a	n/a	1
278.7840000000	n/a	278784	GoFixedSOA	421	n/a	n/a	1
280.4170000000	n/a	280417	FrequentFixedSOA	1633	n/a	n/a	1
282.0500000000	n/a	282050	FrequentFixedSOA	1633	n/a	n/a	1
283.6840000000	n/a	283684	GoFixedSOA	1633	n/a	n/a	0
285.3170000000	n/a	285317	FrequentFixedSOA	1633	n/a	n/a	1
286.9500000000	n/a	286950	NovelFixedSOA	1633	n/a	n/a	1
288.5840000000	n/a	288584	FrequentFixedSOA	1633	n/a	n/a	1
290.2170000000	n/a	290217	GoFixedSOA	549	n/a	n/a	1
291.8500000000	n/a	291850	FrequentFixedSOA	1633	n/a	n/a	1
293.4840000000	n/a	293484	GoFixedSOA	551	n/a	n/a	1
295.1170000000	n/a	295117	FrequentFixedSOA	1633	n/a	n/a	1
296.7500000000	n/a	296750	FrequentFixedSOA	1633	n/a	n/a	1
298.3840000000	n/a	298384	FrequentFixedSOA	1633	n/a	n/a	1
300.0170000000	n/a	300017	FrequentFixedSOA	1633	n/a	n/a	1
301.6500000000	n/a	301650	GoFixedSOA	579	n/a	n/a	1
303.2840000000	n/a	303284	FrequentFixedSOA	1633	n/a	n/a	1
304.9170000000	n/a	304917	FrequentFixedSOA	1633	n/a	n/a	1
306.5500000000	n/a	306550	FrequentFixedSOA	1633	n/a	n/a	1
308.1840000000	n/a	308184	NovelFixedSOA	1633	n/a	n/a	1
309.8170000000	n/a	309817	FrequentFixedSOA	1633	n/a	n/a	1
311.4500000000	n/a	311450	FrequentFixedSOA	1633	n/a	n/a	1
313.0840000000	n/a	313084	FrequentFixedSOA	1633	n/a	n/a	1
314.7170000000	n/a	314717	FrequentFixedSOA	1633	n/a	n/a	1
316.3500000000	n/a	316350	NovelFixedSOA	1633	n/a	n/a	1
317.9840000000	n/a	317984	FrequentFixedSOA	1633	n/a	n/a	1
319.6170000000	n/a	319617	FrequentFixedSOA	1633	n/a	n/a	1
321.2500000000	n/a	321250	FrequentFixedSOA	1633	n/a	n/a	1
322.8840000000	n/a	322884	FrequentFixedSOA	1633	n/a	n/a	1
324.5170000000	n/a	324517	NovelFixedSOA	1633	n/a	n/a	1
326.1500000000	n/a	326150	FrequentFixedSOA	1633	n/a	n/a	1
327.7840000000	n/a	327784	FrequentFixedSOA	1633	n/a	n/a	1
329.4170000000	n/a	329417	GoFixedSOA	590	n/a	n/a	1
331.0500000000	n/a	331050	FrequentFixedSOA	1633	n/a	n/a	1
332.6840000000	n/a	332684	FrequentFixedSOA	1633	n/a	n/a	1
334.3170000000	n/a	334317	FrequentFixedSOA	1633	n/a	n/a	1
335.9500000000	n/a	335950	FrequentFixedSOA	1633	n/a	n/a	1
337.5840000000	n/a	337584	NovelFixedSOA	1633	n/a	n/a	1
339.2170000000	n/a	339217	FrequentFixedSOA	1633	n/a	n/a	1
340.8500000000	n/a	340850	FrequentFixedSOA	1633	n/a	n/a	1
342.4840000000	n/a	342484	FrequentFixedSOA	1633	n/a	n/a	1
344.1170000000	n/a	344117	FrequentFixedSOA	1633	n/a	n/a	1
345.7500000000	n/a	345750	FrequentFixedSOA	1633	n/a	n/a	1
347.3840000000	n/a	347384	FrequentVariableSOA	1550	n/a	n/a	1
348.9340000000	n/a	348934	FrequentVariableSOA	1600	n/a	n/a	1
350.5340000000	n/a	350534	FrequentVariableSOA	1583	n/a	n/a	1
352.1170000000	n/a	352117	GoVariableSOA	424	n/a	n/a	1
353.8170000000	n/a	353817	FrequentVariableSOA	1700	n/a	n/a	1
355.5170000000	n/a	355517	FrequentVariableSOA	1650	n/a	n/a	1
357.1670000000	n/a	357167	FrequentVariableSOA	1683	n/a	n/a	1
358.8500000000	n/a	358850	GoVariableSOA	510	n/a	n/a	1
360.4500000000	n/a	360450	FrequentVariableSOA	1683	n/a	n/a	1
362.1340000000	n/a	362134	FrequentVariableSOA	1683	n/a	n/a	1
363.8170000000	n/a	363817	FrequentVariableSOA	1600	n/a	n/a	1
365.4170000000	n/a	365417	NovelVariableSOA	1800	n/a	n/a	1
367.2170000000	n/a	367217	FrequentVariableSOA	1766	n/a	n/a	1
368.9840000000	n/a	368984	NovelVariableSOA	1650	n/a	n/a	1
370.6340000000	n/a	370634	FrequentVariableSOA	1683	n/a	n/a	1
372.3170000000	n/a	372317	FrequentVariableSOA	1650	n/a	n/a	1
373.9670000000	n/a	373967	NovelVariableSOA	1783	n/a	n/a	1
375.7500000000	n/a	375750	FrequentVariableSOA	1566	n/a	n/a	1
377.3170000000	n/a	377317	FrequentVariableSOA	1616	n/a	n/a	1
378.9340000000	n/a	378934	FrequentVariableSOA	1566	n/a	n/a	1
380.5000000000	n/a	380500	FrequentVariableSOA	1666	n/a	n/a	1
382.1670000000	n/a	382167	FrequentVariableSOA	1516	n/a	n/a	1
383.6840000000	n/a	383684	NovelVariableSOA	1500	n/a	n/a	1
385.1840000000	n/a	385184	FrequentVariableSOA	1783	n/a	n/a	1
386.9670000000	n/a	386967	FrequentVariableSOA	1533	n/a	n/a	1
388.5000000000	n/a	388500	FrequentVariableSOA	1516	n/a	n/a	1
390.0170000000	n/a	390017	FrequentVariableSOA	1683	n/a	n/a	1
391.7000000000	n/a	391700	FrequentVariableSOA	1683	n/a	n/a	1
393.3840000000	n/a	393384	GoVariableSOA	486	n/a	n/a	1
395.1500000000	n/a	395150	FrequentVariableSOA	1533	n/a	n/a	1
396.6840000000	n/a	396684	FrequentVariableSOA	1700	n/a	n/a	1
398.3840000000	n/a	398384	GoVariableSOA	1800	n/a	n/a	0
400.1840000000	n/a	400184	FrequentVariableSOA	1600	n/a	n/a	1
401.7840000000	n/a	401784	NovelVariableSOA	1633	n/a	n/a	1
403.4170000000	n/a	403417	FrequentVariableSOA	1533	n/a	n/a	1
404.9500000000	n/a	404950	GoVariableSOA	505	n/a	n/a	1
406.6170000000	n/a	406617	FrequentVariableSOA	1733	n/a	n/a	1
408.3500000000	n/a	408350	GoVariableSOA	591	n/a	n/a	1
410.0840000000	n/a	410084	FrequentVariableSOA	1700	n/a	n/a	1
411.7840000000	n/a	411784	FrequentVariableSOA	1633	n/a	n/a	1
413.4170000000	n/a	413417	FrequentVariableSOA	1616	n/a	n/a	1
415.0340000000	n/a	415034	FrequentVariableSOA	1533	n/a	n/a	1
416.5670000000	n/a	416567	GoVariableSOA	504	n/a	n/a	1
418.3170000000	n/a	418317	FrequentVariableSOA	1750	n/a	n/a	1
420.0670000000	n/a	420067	FrequentVariableSOA	1616	n/a	n/a	1
421.6840000000	n/a	421684	FrequentVariableSOA	1683	n/a	n/a	1
423.3670000000	n/a	423367	NovelVariableSOA	1516	n/a	n/a	1
424.8840000000	n/a	424884	FrequentVariableSOA	1550	n/a	n/a	1
426.4330000000	n/a	426433	FrequentVariableSOA	1550	n/a	n/a	1
427.9830000000	n/a	427983	FrequentVariableSOA	1633	n/a	n/a	1
429.6170000000	n/a	429617	FrequentVariableSOA	1733	n/a	n/a	1
431.3500000000	n/a	431350	NovelVariableSOA	1666	n/a	n/a	1
433.0170000000	n/a	433017	FrequentVariableSOA	1733	n/a	n/a	1
434.7500000000	n/a	434750	FrequentVariableSOA	1766	n/a	n/a	1
436.5170000000	n/a	436517	FrequentVariableSOA	1733	n/a	n/a	1
438.2500000000	n/a	438250	FrequentVariableSOA	1733	n/a	n/a	1
439.9830000000	n/a	439983	NovelVariableSOA	1583	n/a	n/a	1
441.5670000000	n/a	441567	FrequentVariableSOA	1766	n/a	n/a	1
443.3330000000	n/a	443333	FrequentVariableSOA	1516	n/a	n/a	1
444.8500000000	n/a	444850	GoVariableSOA	1616	n/a	n/a	0
446.4670000000	n/a	446467	FrequentVariableSOA	1600	n/a	n/a	1
448.0670000000	n/a	448067	FrequentVariableSOA	1533	n/a	n/a	1
449.6000000000	n/a	449600	FrequentVariableSOA	1650	n/a	n/a	1
451.2500000000	n/a	451250	FrequentVariableSOA	1616	n/a	n/a	1
452.8670000000	n/a	452867	NovelVariableSOA	1766	n/a	n/a	1
454.6330000000	n/a	454633	FrequentVariableSOA	1650	n/a	n/a	1
456.2830000000	n/a	456283	FrequentVariableSOA	1533	n/a	n/a	1
457.8170000000	n/a	457817	FrequentVariableSOA	1566	n/a	n/a	1
459.3830000000	n/a	459383	FrequentVariableSOA	1583	n/a	n/a	1
460.9670000000	n/a	460967	FrequentVariableSOA	1600	n/a	n/a	1
462.5670000000	n/a	462567	GoFixedSOA	440	n/a	n/a	1
464.2000000000	n/a	464200	FrequentFixedSOA	1633	n/a	n/a	1
465.8330000000	n/a	465833	FrequentFixedSOA	1633	n/a	n/a	1
467.4670000000	n/a	467467	FrequentFixedSOA	1633	n/a	n/a	1
469.1000000000	n/a	469100	FrequentFixedSOA	1633	n/a	n/a	1
470.7330000000	n/a	470733	FrequentFixedSOA	1633	n/a	n/a	1
472.3670000000	n/a	472367	FrequentFixedSOA	1633	n/a	n/a	1
474.0000000000	n/a	474000	NovelFixedSOA	1633	n/a	n/a	1
475.6330000000	n/a	475633	FrequentFixedSOA	1633	n/a	n/a	1
477.2670000000	n/a	477267	FrequentFixedSOA	1633	n/a	n/a	1
478.9000000000	n/a	478900	FrequentFixedSOA	1633	n/a	n/a	1
480.5330000000	n/a	480533	NovelFixedSOA	1633	n/a	n/a	1
482.1670000000	n/a	482167	FrequentFixedSOA	1633	n/a	n/a	1
483.8000000000	n/a	483800	GoFixedSOA	1633	n/a	n/a	0
485.4330000000	n/a	485433	FrequentFixedSOA	1633	n/a	n/a	1
487.0670000000	n/a	487067	FrequentFixedSOA	1633	n/a	n/a	1
488.7000000000	n/a	488700	GoFixedSOA	481	n/a	n/a	1
490.3330000000	n/a	490333	FrequentFixedSOA	1633	n/a	n/a	1
491.9670000000	n/a	491967	NovelFixedSOA	1633	n/a	n/a	1
493.6000000000	n/a	493600	FrequentFixedSOA	1633	n/a	n/a	1
495.2330000000	n/a	495233	FrequentFixedSOA	1633	n/a	n/a	1
496.8670000000	n/a	496867	FrequentFixedSOA	1633	n/a	n/a	1
498.5000000000	n/a	498500	FrequentFixedSOA	1633	n/a	n/a	1
500.1330000000	n/a	500133	FrequentFixedSOA	1633	n/a	n/a	1
501.7670000000	n/a	501767	GoFixedSOA	1633	n/a	n/a	0
503.4000000000	n/a	503400	FrequentFixedSOA	1633	n/a	n/a	1
505.0330000000	n/a	505033	FrequentFixedSOA	1633	n/a	n/a	1
506.6670000000	n/a	506667	NovelFixedSOA	1633	n/a	n/a	1
508.3000000000	n/a	508300	FrequentFixedSOA	1633	n/a	n/a	1
509.9330000000	n/a	509933	FrequentFixedSOA	1633	n/a	n/a	1
511.5670000000	n/a	511567	FrequentFixedSOA	1633	n/a	n/a	1
513.2000000000	n/a	513200	FrequentFixedSOA	1633	n/a	n/a	1
514.8330000000	n/a	514833	FrequentFixedSOA	1633	n/a	n/a	1
516.4670000000	n/a	516467	NovelFixedSOA	1633	n/a	n/a	1
518.1000000000	n/a	518100	FrequentFixedSOA	1633	n/a	n/a	1
519.7330000000	n/a	519733	FrequentFixedSOA	1633	n/a	n/a	1
521.3670000000	n/a	521367	FrequentFixedSOA	1633	n/a	n/a	1
523.0000000000	n/a	523000	FrequentFixedSOA	1633	n/a	n/a	1
524.6330000000	n/a	524633	GoFixedSOA	533	n/a	n/a	1
526.2670000000	n/a	526267	FrequentFixedSOA	1633	n/a	n/a	1
527.9000000000	n/a	527900	FrequentFixedSOA	1633	n/a	n/a	1
529.5330000000	n/a	529533	NovelFixedSOA	1633	n/a	n/a	1
531.1670000000	n/a	531167	FrequentFixedSOA	1633	n/a	n/a	1
532.8000000000	n/a	532800	FrequentFixedSOA	1633	n/a	n/a	1
534.4330000000	n/a	534433	NovelFixedSOA	1633	n/a	n/a	1
536.0670000000	n/a	536067	FrequentFixedSOA	1633	n/a	n/a	1
537.7000000000	n/a	537700	FrequentFixedSOA	1633	n/a	n/a	1
539.3330000000	n/a	539333	FrequentFixedSOA	1633	n/a	n/a	1
540.9670000000	n/a	540967	FrequentFixedSOA	1633	n/a	n/a	1
542.6000000000	n/a	542600	FrequentFixedSOA	1633	n/a	n/a	1
544.2330000000	n/a	544233	GoFixedSOA	1633	n/a	n/a	0
545.8670000000	n/a	545867	FrequentFixedSOA	1633	n/a	n/a	1
547.5000000000	n/a	547500	FrequentFixedSOA	1633	n/a	n/a	1
549.1330000000	n/a	549133	FrequentFixedSOA	1633	n/a	n/a	1
550.7670000000	n/a	550767	FrequentFixedSOA	1633	n/a	n/a	1
552.4000000000	n/a	552400	FrequentFixedSOA	1633	n/a	n/a	1
554.0330000000	n/a	554033	NovelFixedSOA	1633	n/a	n/a	1
555.6670000000	n/a	555667	FrequentFixedSOA	1633	n/a	n/a	1
557.3000000000	n/a	557300	GoFixedSOA	408	n/a	n/a	1
558.9330000000	n/a	558933	FrequentFixedSOA	1633	n/a	n/a	1
560.5670000000	n/a	560567	FrequentFixedSOA	1633	n/a	n/a	1
562.2000000000	n/a	562200	FrequentFixedSOA	1633	n/a	n/a	1
563.8330000000	n/a	563833	FrequentFixedSOA	1633	n/a	n/a	1
565.4670000000	n/a	565467	FrequentFixedSOA	1633	n/a	n/a	1
567.1000000000	n/a	567100	FrequentFixedSOA	1633	n/a	n/a	1
568.7330000000	n/a	568733	FrequentFixedSOA	1633	n/a	n/a	1
570.3670000000	n/a	570367	FrequentFixedSOA	1633	n/a	n/a	1
572.0000000000	n/a	572000	NovelFixedSOA	1633	n/a	n/a	1
573.6330000000	n/a	573633	FrequentFixedSOA	1633	n/a	n/a	1
575.2670000000	n/a	575267	FrequentFixedSOA	1633	n/a	n/a	1
576.9000000000	n/a	576900	GoVariableSOA	627	n/a	n/a	1
578.6670000000	n/a	578667	FrequentVariableSOA	1716	n/a	n/a	1
580.3830000000	n/a	580383	FrequentVariableSOA	1633	n/a	n/a	1
582.0170000000	n/a	582017	FrequentVariableSOA	1616	n/a	n/a	1
583.6330000000	n/a	583633	FrequentVariableSOA	1583	n/a	n/a	1
585.2170000000	n/a	585217	FrequentVariableSOA	1600	n/a	n/a	1
586.8170000000	n/a	586817	FrequentVariableSOA	1600	n/a	n/a	1
588.4170000000	n/a	588417	NovelVariableSOA	1533	n/a	n/a	1
589.9500000000	n/a	589950	FrequentVariableSOA	1700	n/a	n/a	1
591.6500000000	n/a	591650	FrequentVariableSOA	1566	n/a	n/a	1
593.2170000000	n/a	593217	FrequentVariableSOA	1750	n/a	n/a	1
594.9670000000	n/a	594967	NovelVariableSOA	1666	n/a	n/a	1
596.6330000000	n/a	596633	FrequentVariableSOA	1566	n/a	n/a	1
598.2000000000	n/a	598200	GoVariableSOA	1616	n/a	n/a	0
599.8170000000	n/a	599817	FrequentVariableSOA	1700	n/a	n/a	1
601.5170000000	n/a	601517	FrequentVariableSOA	1533	n/a	n/a	1
603.0500000000	n/a	603050	GoVariableSOA	415	n/a	n/a	1
604.5500000000	n/a	604550	FrequentVariableSOA	1516	n/a	n/a	1
606.0670000000	n/a	606067	NovelVariableSOA	1633	n/a	n/a	1
607.7000000000	n/a	607700	FrequentVariableSOA	1733	n/a	n/a	1
609.4330000000	n/a	609433	FrequentVariableSOA	1650	n/a	n/a	1
611.0830000000	n/a	611083	FrequentVariableSOA	1766	n/a	n/a	1
612.8500000000	n/a	612850	FrequentVariableSOA	1700	n/a	n/a	1
614.5500000000	n/a	614550	FrequentVariableSOA	1550	n/a	n/a	1
616.1000000000	n/a	616100	GoVariableSOA	511	n/a	n/a	1
617.6170000000	n/a	617617	FrequentVariableSOA	1650	n/a	n/a	1
619.2670000000	n/a	619267	FrequentVariableSOA	1583	n/a	n/a	1
620.8500000000	n/a	620850	NovelVariableSOA	1666	n/a	n/a	1
622.5170000000	n/a	622517	FrequentVariableSOA	1683	n/a	n/a	1
624.2000000000	n/a	624200	FrequentVariableSOA	1583	n/a	n/a	1
625.7830000000	n/a	625783	FrequentVariableSOA	1550	n/a	n/a	1
627.3330000000	n/a	627333	FrequentVariableSOA	1550	n/a	n/a	1
628.8830000000	n/a	628883	FrequentVariableSOA	1683	n/a	n/a	1
630.5670000000	n/a	630567	NovelVariableSOA	1683	n/a	n/a	1
632.2500000000	n/a	632250	FrequentVariableSOA	1716	n/a	n/a	1
633.9670000000	n/a	633967	FrequentVariableSOA	1583	n/a	n/a	1
635.5500000000	n/a	635550	FrequentVariableSOA	1700	n/a	n/a	1
637.2500000000	n/a	637250	FrequentVariableSOA	1800	n/a	n/a	1
639.0500000000	n/a	639050	GoVariableSOA	1616	n/a	n/a	0
640.6670000000	n/a	640667	FrequentVariableSOA	1616	n/a	n/a	1
642.2830000000	n/a	642283	FrequentVariableSOA	1650	n/a	n/a	1
643.9330000000	n/a	643933	NovelVariableSOA	1666	n/a	n/a	1
645.6000000000	n/a	645600	FrequentVariableSOA	1666	n/a	n/a	1
647.2670000000	n/a	647267	FrequentVariableSOA	1616	n/a	n/a	1
648.8830000000	n/a	648883	NovelVariableSOA	1666	n/a	n/a	1
650.5500000000	n/a	650550	FrequentVariableSOA	1600	n/a	n/a	1
652.1500000000	n/a	652150	FrequentVariableSOA	1700	n/a	n/a	1
653.8500000000	n/a	653850	FrequentVariableSOA	1733	n/a	n/a	1
655.5830000000	n/a	655583	FrequentVariableSOA	1766	n/a	n/a	1
657.3500000000	n/a	657350	FrequentVariableSOA	1616	n/a	n/a	1
658.9660000000	n/a	658966	GoVariableSOA	563	n/a	n/a	1
660.7500000000	n/a	660750	FrequentVariableSOA	1716	n/a	n/a	1
662.4660000000	n/a	662466	FrequentVariableSOA	1500	n/a	n/a	1
663.9660000000	n/a	663966	FrequentVariableSOA	1783	n/a	n/a	1
665.7500000000	n/a	665750	FrequentVariableSOA	1633	n/a	n/a	1
667.3830000000	n/a	667383	FrequentVariableSOA	1566	n/a	n/a	1
668.9500000000	n/a	668950	NovelVariableSOA	1783	n/a	n/a	1
670.7330000000	n/a	670733	FrequentVariableSOA	1800	n/a	n/a	1
672.5330000000	n/a	672533	GoVariableSOA	1533	n/a	n/a	0
674.0660000000	n/a	674066	FrequentVariableSOA	1550	n/a	n/a	1
675.6160000000	n/a	675616	FrequentVariableSOA	1516	n/a	n/a	1
677.1330000000	n/a	677133	FrequentVariableSOA	1616	n/a	n/a	1
678.7500000000	n/a	678750	FrequentVariableSOA	1566	n/a	n/a	1
680.3160000000	n/a	680316	FrequentVariableSOA	1600	n/a	n/a	1
681.9160000000	n/a	681916	FrequentVariableSOA	1783	n/a	n/a	1
683.7000000000	n/a	683700	FrequentVariableSOA	1766	n/a	n/a	1
685.4660000000	n/a	685466	FrequentVariableSOA	1533	n/a	n/a	1
687.0000000000	n/a	687000	NovelVariableSOA	1533	n/a	n/a	1
688.5330000000	n/a	688533	FrequentVariableSOA	1550	n/a	n/a	1
690.0830000000	n/a	690083	FrequentVariableSOA	1533	n/a	n/a	1
691.6160000000	n/a	691616	GoFixedSOA	590	n/a	n/a	1
693.2500000000	n/a	693250	FrequentFixedSOA	1633	n/a	n/a	1
694.8830000000	n/a	694883	FrequentFixedSOA	1633	n/a	n/a	1
696.5160000000	n/a	696516	FrequentFixedSOA	1633	n/a	n/a	1
698.1500000000	n/a	698150	GoFixedSOA	540	n/a	n/a	1
699.7830000000	n/a	699783	FrequentFixedSOA	1633	n/a	n/a	1
701.4160000000	n/a	701416	FrequentFixedSOA	1633	n/a	n/a	1
703.0500000000	n/a	703050	FrequentFixedSOA	1633	n/a	n/a	1
704.6830000000	n/a	704683	FrequentFixedSOA	1633	n/a	n/a	1
706.3160000000	n/a	706316	GoFixedSOA	572	n/a	n/a	1
707.9500000000	n/a	707950	FrequentFixedSOA	1633	n/a	n/a	1
709.5830000000	n/a	709583	FrequentFixedSOA	1633	n/a	n/a	1
711.2160000000	n/a	711216	NovelFixedSOA	1633	n/a	n/a	1
712.8500000000	n/a	712850	FrequentFixedSOA	1633	n/a	n/a	1
714.4830000000	n/a	714483	FrequentFixedSOA	1633	n/a	n/a	1
716.1160000000	n/a	716116	GoFixedSOA	471	n/a	n/a	1
717.7500000000	n/a	717750	FrequentFixedSOA	1633	n/a	n/a	1
719.3830000000	n/a	719383	FrequentFixedSOA	1633	n/a	n/a	1
721.0160000000	n/a	721016	FrequentFixedSOA	1633	n/a	n/a	1
722.6500000000	n/a	722650	NovelFixedSOA	1633	n/a	n/a	1
724.2830000000	n/a	724283	FrequentFixedSOA	1633	n/a	n/a	1
725.9160000000	n/a	725916	NovelFixedSOA	1633	n/a	n/a	1
727.5500000000	n/a	727550	FrequentFixedSOA	1633	n/a	n/a	1
729.1830000000	n/a	729183	FrequentFixedSOA	1633	n/a	n/a	1
730.8160000000	n/a	730816	FrequentFixedSOA	1633	n/a	n/a	1
732.4500000000	n/a	732450	GoFixedSOA	431	n/a	n/a	1
734.0830000000	n/a	734083	FrequentFixedSOA	1633	n/a	n/a	1
735.7160000000	n/a	735716	FrequentFixedSOA	1633	n/a	n/a	1
737.3500000000	n/a	737350	FrequentFixedSOA	1633	n/a	n/a	1
738.9830000000	n/a	738983	GoFixedSOA	1633	n/a	n/a	0
740.6160000000	n/a	740616	FrequentFixedSOA	1633	n/a	n/a	1
742.2500000000	n/a	742250	FrequentFixedSOA	1633	n/a	n/a	1
743.8830000000	n/a	743883	NovelFixedSOA	1633	n/a	n/a	1
745.5160000000	n/a	745516	FrequentFixedSOA	1633	n/a	n/a	1
747.1500000000	n/a	747150	GoFixedSOA	1633	n/a	n/a	0
748.7830000000	n/a	748783	FrequentFixedSOA	1633	n/a	n/a	1
750.4160000000	n/a	750416	FrequentFixedSOA	1633	n/a	n/a	1
752.0500000000	n/a	752050	FrequentFixedSOA	1633	n/a	n/a	1
753.6830000000	n/a	753683	FrequentFixedSOA	1633	n/a	n/a	1
755.3160000000	n/a	755316	FrequentFixedSOA	1633	n/a	n/a	1
756.9500000000	n/a	756950	FrequentFixedSOA	1633	n/a	n/a	1
758.5830000000	n/a	758583	NovelFixedSOA	1633	n/a	n/a	1
760.2160000000	n/a	760216	FrequentFixedSOA	1633	n/a	n/a	1
761.8500000000	n/a	761850	FrequentFixedSOA	1633	n/a	n/a	1
763.4830000000	n/a	763483	FrequentFixedSOA	1633	n/a	n/a	1
765.1160000000	n/a	765116	GoFixedSOA	1633	n/a	n/a	0
766.7500000000	n/a	766750	FrequentFixedSOA	1633	n/a	n/a	1
768.3830000000	n/a	768383	FrequentFixedSOA	1633	n/a	n/a	1
770.0160000000	n/a	770016	FrequentFixedSOA	1633	n/a	n/a	1
771.6500000000	n/a	771650	FrequentFixedSOA	1633	n/a	n/a	1
773.2830000000	n/a	773283	NovelFixedSOA	1633	n/a	n/a	1
774.9160000000	n/a	774916	FrequentFixedSOA	1633	n/a	n/a	1
776.5500000000	n/a	776550	FrequentFixedSOA	1633	n/a	n/a	1
778.1830000000	n/a	778183	NovelFixedSOA	1633	n/a	n/a	1
779.8160000000	n/a	779816	FrequentFixedSOA	1633	n/a	n/a	1
781.4500000000	n/a	781450	NovelFixedSOA	1633	n/a	n/a	1
783.0830000000	n/a	783083	FrequentFixedSOA	1633	n/a	n/a	1
784.7160000000	n/a	784716	FrequentFixedSOA	1633	n/a	n/a	1
786.3500000000	n/a	786350	FrequentFixedSOA	1633	n/a	n/a	1
787.9830000000	n/a	787983	FrequentFixedSOA	1633	n/a	n/a	1
789.6160000000	n/a	789616	FrequentFixedSOA	1633	n/a	n/a	1
791.2500000000	n/a	791250	FrequentFixedSOA	1633	n/a	n/a	1
792.8830000000	n/a	792883	FrequentFixedSOA	1633	n/a	n/a	1
794.5160000000	n/a	794516	GoFixedSOA	546	n/a	n/a	1
796.1500000000	n/a	796150	FrequentFixedSOA	1633	n/a	n/a	1
797.7830000000	n/a	797783	GoFixedSOA	785	n/a	n/a	1
799.4160000000	n/a	799416	FrequentFixedSOA	1633	n/a	n/a	1
801.0500000000	n/a	801050	FrequentFixedSOA	1633	n/a	n/a	1
802.6830000000	n/a	802683	NovelFixedSOA	1633	n/a	n/a	1
804.3160000000	n/a	804316	FrequentFixedSOA	1633	n/a	n/a	1
805.9500000000	n/a	805950	GoVariableSOA	1750	n/a	n/a	0
807.7000000000	n/a	807700	FrequentVariableSOA	1766	n/a	n/a	1
809.4660000000	n/a	809466	FrequentVariableSOA	1700	n/a	n/a	1
811.1660000000	n/a	811166	FrequentVariableSOA	1600	n/a	n/a	1
812.7660000000	n/a	812766	GoVariableSOA	465	n/a	n/a	1
814.5160000000	n/a	814516	FrequentVariableSOA	1566	n/a	n/a	1
816.0830000000	n/a	816083	FrequentVariableSOA	1516	n/a	n/a	1
817.6000000000	n/a	817600	FrequentVariableSOA	1733	n/a	n/a	1
819.3330000000	n/a	819333	FrequentVariableSOA	1750	n/a	n/a	1
821.0830000000	n/a	821083	GoVariableSOA	1766	n/a	n/a	0
822.8500000000	n/a	822850	FrequentVariableSOA	1683	n/a	n/a	1
824.5330000000	n/a	824533	FrequentVariableSOA	1716	n/a	n/a	1
826.2500000000	n/a	826250	NovelVariableSOA	1633	n/a	n/a	1
827.8830000000	n/a	827883	FrequentVariableSOA	1600	n/a	n/a	1
829.4830000000	n/a	829483	FrequentVariableSOA	1550	n/a	n/a	1
831.0330000000	n/a	831033	GoVariableSOA	427	n/a	n/a	1
832.6500000000	n/a	832650	FrequentVariableSOA	1733	n/a	n/a	1
834.3830000000	n/a	834383	FrequentVariableSOA	1566	n/a	n/a	1
835.9500000000	n/a	835950	FrequentVariableSOA	1666	n/a	n/a	1
837.6160000000	n/a	837616	NovelVariableSOA	1700	n/a	n/a	1
839.3160000000	n/a	839316	FrequentVariableSOA	1516	n/a	n/a	1
840.8330000000	n/a	840833	NovelVariableSOA	1633	n/a	n/a	1
842.4660000000	n/a	842466	FrequentVariableSOA	1650	n/a	n/a	1
844.1160000000	n/a	844116	FrequentVariableSOA	1700	n/a	n/a	1
845.8160000000	n/a	845816	FrequentVariableSOA	1750	n/a	n/a	1
847.5660000000	n/a	847566	GoVariableSOA	515	n/a	n/a	1
849.3330000000	n/a	849333	FrequentVariableSOA	1800	n/a	n/a	1
851.1330000000	n/a	851133	FrequentVariableSOA	1650	n/a	n/a	1
852.7830000000	n/a	852783	FrequentVariableSOA	1716	n/a	n/a	1
854.5000000000	n/a	854500	GoVariableSOA	1733	n/a	n/a	0
856.2330000000	n/a	856233	FrequentVariableSOA	1683	n/a	n/a	1
857.9160000000	n/a	857916	FrequentVariableSOA	1766	n/a	n/a	1
859.6830000000	n/a	859683	NovelVariableSOA	1683	n/a	n/a	1
861.3660000000	n/a	861366	FrequentVariableSOA	1516	n/a	n/a	1
862.8830000000	n/a	862883	GoVariableSOA	411	n/a	n/a	1
864.3830000000	n/a	864383	FrequentVariableSOA	1533	n/a	n/a	1
865.9160000000	n/a	865916	FrequentVariableSOA	1666	n/a	n/a	1
867.5830000000	n/a	867583	FrequentVariableSOA	1800	n/a	n/a	1
869.3830000000	n/a	869383	FrequentVariableSOA	1650	n/a	n/a	1
871.0330000000	n/a	871033	FrequentVariableSOA	1766	n/a	n/a	1
872.8000000000	n/a	872800	FrequentVariableSOA	1750	n/a	n/a	1
874.5500000000	n/a	874550	NovelVariableSOA	1666	n/a	n/a	1
876.2160000000	n/a	876216	FrequentVariableSOA	1550	n/a	n/a	1
877.7660000000	n/a	877766	FrequentVariableSOA	1566	n/a	n/a	1
879.3330000000	n/a	879333	FrequentVariableSOA	1650	n/a	n/a	1
880.9830000000	n/a	880983	GoVariableSOA	625	n/a	n/a	1
882.7160000000	n/a	882716	FrequentVariableSOA	1750	n/a	n/a	1
884.4660000000	n/a	884466	FrequentVariableSOA	1683	n/a	n/a	1
886.1490000000	n/a	886149	FrequentVariableSOA	1600	n/a	n/a	1
887.7490000000	n/a	887749	FrequentVariableSOA	1533	n/a	n/a	1
889.2830000000	n/a	889283	NovelVariableSOA	1583	n/a	n/a	1
890.8660000000	n/a	890866	FrequentVariableSOA	1683	n/a	n/a	1
892.5490000000	n/a	892549	FrequentVariableSOA	1800	n/a	n/a	1
894.3490000000	n/a	894349	NovelVariableSOA	1800	n/a	n/a	1
896.1490000000	n/a	896149	FrequentVariableSOA	1616	n/a	n/a	1
897.7660000000	n/a	897766	NovelVariableSOA	1600	n/a	n/a	1
899.3660000000	n/a	899366	FrequentVariableSOA	1516	n/a	n/a	1
900.8830000000	n/a	900883	FrequentVariableSOA	1766	n/a	n/a	1
902.6490000000	n/a	902649	FrequentVariableSOA	1716	n/a	n/a	1
904.3660000000	n/a	904366	FrequentVariableSOA	1766	n/a	n/a	1
906.1330000000	n/a	906133	FrequentVariableSOA	1783	n/a	n/a	1
907.9160000000	n/a	907916	FrequentVariableSOA	1666	n/a	n/a	1
909.5830000000	n/a	909583	FrequentVariableSOA	1516	n/a	n/a	1
911.0990000000	n/a	911099	GoVariableSOA	504	n/a	n/a	1
912.6330000000	n/a	912633	FrequentVariableSOA	1600	n/a	n/a	1
914.2330000000	n/a	914233	GoVariableSOA	544	n/a	n/a	1
915.8330000000	n/a	915833	FrequentVariableSOA	1616	n/a	n/a	1
917.4490000000	n/a	917449	FrequentVariableSOA	1666	n/a	n/a	1
919.1160000000	n/a	919116	NovelVariableSOA	1700	n/a	n/a	1
920.8160000000	n/a	920816	FrequentVariableSOA	1500	n/a	n/a	1
