onset	duration	sample	trial_type	response_time	stim_file	value	correct
8.3020000000	n/a	8302	ignore	n/a	n/a	n/a	n/a
11.4020000000	n/a	11402	ignore	n/a	n/a	n/a	n/a
14.4110000000	n/a	14411	ignore	n/a	n/a	n/a	n/a
29.6850000000	n/a	29685	ignore	n/a	n/a	n/a	n/a
32.7850000000	n/a	32785	ignore	n/a	n/a	n/a	n/a
35.7720000000	n/a	35772	ignore	n/a	n/a	n/a	n/a
51.9190000000	n/a	51919	NeuStim	n/a	n/a	n/a	n/a
55.0190000000	n/a	55019	NeuNonAlcP1000	n/a	n/a	n/a	n/a
60.0060000000	n/a	60006	NeuNonAlcP1000	n/a	n/a	n/a	n/a
71.2850000000	n/a	71285	PosStim	n/a	n/a	n/a	n/a
74.3190000000	n/a	74319	PosAlcStimWithoutStartle	n/a	n/a	n/a	n/a
89.0680000000	n/a	89068	NeuStim	n/a	n/a	n/a	n/a
92.1680000000	n/a	92168	NeuAlcP2000	n/a	n/a	n/a	n/a
96.1560000000	n/a	96156	NeuAlcP2000	n/a	n/a	n/a	n/a
106.9680000000	n/a	106968	NegStim	n/a	n/a	n/a	n/a
110.0680000000	n/a	110068	NegNonAlcP2000	n/a	n/a	n/a	n/a
114.0550000000	n/a	114055	NegNonAlcP2000	n/a	n/a	n/a	n/a
123.4520000000	n/a	123452	NeuStim	n/a	n/a	n/a	n/a
126.4850000000	n/a	126485	NeuNonAlcStimWithoutStartle	n/a	n/a	n/a	n/a
142.1350000000	n/a	142135	PosStim	n/a	n/a	n/a	n/a
145.2350000000	n/a	145235	PosNonAlcP1000	n/a	n/a	n/a	n/a
150.2220000000	n/a	150222	PosNonAlcP1000	n/a	n/a	n/a	n/a
159.6850000000	n/a	159685	NeuStim	n/a	n/a	n/a	n/a
162.7850000000	n/a	162785	NeuAlcP1000	n/a	n/a	n/a	n/a
167.7720000000	n/a	167772	NeuAlcP1000	n/a	n/a	n/a	n/a
178.6520000000	n/a	178652	NegStim	n/a	n/a	n/a	n/a
181.6850000000	n/a	181685	NegNonAlcStimWithoutStartle	n/a	n/a	n/a	n/a
198.1020000000	n/a	198102	NeuStim	n/a	n/a	n/a	n/a
201.2020000000	n/a	201202	NeuNonAlcP1000	n/a	n/a	n/a	n/a
206.1890000000	n/a	206189	NeuNonAlcP1000	n/a	n/a	n/a	n/a
217.0180000000	n/a	217018	NegStim	n/a	n/a	n/a	n/a
220.1180000000	n/a	220118	NegNonAlcP3000	n/a	n/a	n/a	n/a
223.1050000000	n/a	223105	NegNonAlcP3000	n/a	n/a	n/a	n/a
234.0350000000	n/a	234035	PosStim	n/a	n/a	n/a	n/a
237.1350000000	n/a	237135	PosNonAlcP3000	n/a	n/a	n/a	n/a
240.1220000000	n/a	240122	PosNonAlcP3000	n/a	n/a	n/a	n/a
251.8520000000	n/a	251852	NeuStim	n/a	n/a	n/a	n/a
254.9520000000	n/a	254952	NeuAlcP1000	n/a	n/a	n/a	n/a
259.9390000000	n/a	259939	NeuAlcP1000	n/a	n/a	n/a	n/a
268.4180000000	n/a	268418	NegStim	n/a	n/a	n/a	n/a
271.4520000000	n/a	271452	NegAlcStimWithoutStartle	n/a	n/a	n/a	n/a
287.6350000000	n/a	287635	PosStim	n/a	n/a	n/a	n/a
290.6680000000	n/a	290668	PosNonAlcStimWithoutStartle	n/a	n/a	n/a	n/a
304.1850000000	n/a	304185	NegStim	n/a	n/a	n/a	n/a
307.2850000000	n/a	307285	NegAlcP3000	n/a	n/a	n/a	n/a
310.2720000000	n/a	310272	NegAlcP3000	n/a	n/a	n/a	n/a
322.7680000000	n/a	322768	NeuStim	n/a	n/a	n/a	n/a
325.8020000000	n/a	325802	NeuAlcStimWithoutStartle	n/a	n/a	n/a	n/a
339.9350000000	n/a	339935	PosStim	n/a	n/a	n/a	n/a
343.0350000000	n/a	343035	PosNonAlcP1000	n/a	n/a	n/a	n/a
348.0220000000	n/a	348022	PosNonAlcP1000	n/a	n/a	n/a	n/a
358.6180000000	n/a	358618	NegStim	n/a	n/a	n/a	n/a
361.7180000000	n/a	361718	NegAlcP3000	n/a	n/a	n/a	n/a
364.7050000000	n/a	364705	NegAlcP3000	n/a	n/a	n/a	n/a
377.7510000000	n/a	377751	NegStim	n/a	n/a	n/a	n/a
380.7850000000	n/a	380785	NegNonAlcStimWithoutStartle	n/a	n/a	n/a	n/a
396.0180000000	n/a	396018	PosStim	n/a	n/a	n/a	n/a
399.1180000000	n/a	399118	PosAlcP1000	n/a	n/a	n/a	n/a
404.1050000000	n/a	404105	PosAlcP1000	n/a	n/a	n/a	n/a
412.7350000000	n/a	412735	NeuStim	n/a	n/a	n/a	n/a
415.7680000000	n/a	415768	NeuAlcStimWithoutStartle	n/a	n/a	n/a	n/a
431.1850000000	n/a	431185	NegStim	n/a	n/a	n/a	n/a
434.2850000000	n/a	434285	NegNonAlcP1000	n/a	n/a	n/a	n/a
439.2720000000	n/a	439272	NegNonAlcP1000	n/a	n/a	n/a	n/a
448.7180000000	n/a	448718	PosStim	n/a	n/a	n/a	n/a
451.8180000000	n/a	451818	PosAlcP3000	n/a	n/a	n/a	n/a
454.8050000000	n/a	454805	PosAlcP3000	n/a	n/a	n/a	n/a
468.3010000000	n/a	468301	NeuStim	n/a	n/a	n/a	n/a
471.4010000000	n/a	471401	NeuAlcP3000	n/a	n/a	n/a	n/a
474.3880000000	n/a	474388	NeuAlcP3000	n/a	n/a	n/a	n/a
484.9850000000	n/a	484985	NegStim	n/a	n/a	n/a	n/a
488.0180000000	n/a	488018	NegAlcStimWithoutStartle	n/a	n/a	n/a	n/a
505.0010000000	n/a	505001	PosStim	n/a	n/a	n/a	n/a
508.1010000000	n/a	508101	PosNonAlcP2000	n/a	n/a	n/a	n/a
512.0880000000	n/a	512088	PosNonAlcP2000	n/a	n/a	n/a	n/a
523.5510000000	n/a	523551	NegStim	n/a	n/a	n/a	n/a
526.6510000000	n/a	526651	NegAlcP2000	n/a	n/a	n/a	n/a
530.6380000000	n/a	530638	NegAlcP2000	n/a	n/a	n/a	n/a
540.3180000000	n/a	540318	PosStim	n/a	n/a	n/a	n/a
543.4180000000	n/a	543418	PosAlcP2000	n/a	n/a	n/a	n/a
547.4050000000	n/a	547405	PosAlcP2000	n/a	n/a	n/a	n/a
556.6010000000	n/a	556601	NeuStim	n/a	n/a	n/a	n/a
559.6350000000	n/a	559635	NeuAlcStimWithoutStartle	n/a	n/a	n/a	n/a
573.2350000000	n/a	573235	NegStim	n/a	n/a	n/a	n/a
576.3350000000	n/a	576335	NegNonAlcP1000	n/a	n/a	n/a	n/a
581.3220000000	n/a	581322	NegNonAlcP1000	n/a	n/a	n/a	n/a
589.4680000000	n/a	589468	NeuStim	n/a	n/a	n/a	n/a
592.5680000000	n/a	592568	NeuNonAlcP1000	n/a	n/a	n/a	n/a
597.5550000000	n/a	597555	NeuNonAlcP1000	n/a	n/a	n/a	n/a
609.0680000000	n/a	609068	PosStim	n/a	n/a	n/a	n/a
612.1680000000	n/a	612168	PosNonAlcP3000	n/a	n/a	n/a	n/a
615.1550000000	n/a	615155	PosNonAlcP3000	n/a	n/a	n/a	n/a
625.5340000000	n/a	625534	NeuStim	n/a	n/a	n/a	n/a
628.5680000000	n/a	628568	NeuNonAlcStimWithoutStartle	n/a	n/a	n/a	n/a
642.3010000000	n/a	642301	NegStim	n/a	n/a	n/a	n/a
645.3340000000	n/a	645334	NegNonAlcStimWithoutStartle	n/a	n/a	n/a	n/a
659.4680000000	n/a	659468	NeuStim	n/a	n/a	n/a	n/a
662.5680000000	n/a	662568	NeuNonAlcP3000	n/a	n/a	n/a	n/a
665.5550000000	n/a	665555	NeuNonAlcP3000	n/a	n/a	n/a	n/a
677.4010000000	n/a	677401	PosStim	n/a	n/a	n/a	n/a
680.5010000000	n/a	680501	PosAlcP1000	n/a	n/a	n/a	n/a
685.4880000000	n/a	685488	PosAlcP1000	n/a	n/a	n/a	n/a
693.7340000000	n/a	693734	NegStim	n/a	n/a	n/a	n/a
696.8340000000	n/a	696834	NegNonAlcP1000	n/a	n/a	n/a	n/a
701.8210000000	n/a	701821	NegNonAlcP1000	n/a	n/a	n/a	n/a
713.3680000000	n/a	713368	PosStim	n/a	n/a	n/a	n/a
716.4010000000	n/a	716401	PosNonAlcStimWithoutStartle	n/a	n/a	n/a	n/a
730.1180000000	n/a	730118	NeuStim	n/a	n/a	n/a	n/a
733.2180000000	n/a	733218	NeuAlcP2000	n/a	n/a	n/a	n/a
737.2050000000	n/a	737205	NeuAlcP2000	n/a	n/a	n/a	n/a
748.4340000000	n/a	748434	PosStim	n/a	n/a	n/a	n/a
751.5340000000	n/a	751534	PosAlcP1000	n/a	n/a	n/a	n/a
756.5210000000	n/a	756521	PosAlcP1000	n/a	n/a	n/a	n/a
765.9180000000	n/a	765918	NegStim	n/a	n/a	n/a	n/a
768.9510000000	n/a	768951	NegNonAlcStimWithoutStartle	n/a	n/a	n/a	n/a
784.2510000000	n/a	784251	PosStim	n/a	n/a	n/a	n/a
787.3510000000	n/a	787351	PosNonAlcP2000	n/a	n/a	n/a	n/a
791.3380000000	n/a	791338	PosNonAlcP2000	n/a	n/a	n/a	n/a
802.7010000000	n/a	802701	NegStim	n/a	n/a	n/a	n/a
805.8010000000	n/a	805801	NegNonAlcP3000	n/a	n/a	n/a	n/a
808.7880000000	n/a	808788	NegNonAlcP3000	n/a	n/a	n/a	n/a
820.1510000000	n/a	820151	NeuStim	n/a	n/a	n/a	n/a
823.2510000000	n/a	823251	NeuNonAlcP2000	n/a	n/a	n/a	n/a
827.2380000000	n/a	827238	NeuNonAlcP2000	n/a	n/a	n/a	n/a
838.5180000000	n/a	838518	NegStim	n/a	n/a	n/a	n/a
841.5510000000	n/a	841551	NegAlcStimWithoutStartle	n/a	n/a	n/a	n/a
856.5840000000	n/a	856584	PosStim	n/a	n/a	n/a	n/a
859.6170000000	n/a	859617	PosAlcStimWithoutStartle	n/a	n/a	n/a	n/a
872.9670000000	n/a	872967	NeuStim	n/a	n/a	n/a	n/a
876.0670000000	n/a	876067	NeuAlcP3000	n/a	n/a	n/a	n/a
879.0540000000	n/a	879054	NeuAlcP3000	n/a	n/a	n/a	n/a
891.7840000000	n/a	891784	NegStim	n/a	n/a	n/a	n/a
894.8840000000	n/a	894884	NegNonAlcP1000	n/a	n/a	n/a	n/a
899.8710000000	n/a	899871	NegNonAlcP1000	n/a	n/a	n/a	n/a
910.7010000000	n/a	910701	NeuStim	n/a	n/a	n/a	n/a
913.8010000000	n/a	913801	NeuNonAlcP2000	n/a	n/a	n/a	n/a
917.7880000000	n/a	917788	NeuNonAlcP2000	n/a	n/a	n/a	n/a
928.6170000000	n/a	928617	PosStim	n/a	n/a	n/a	n/a
931.6510000000	n/a	931651	PosAlcStimWithoutStartle	n/a	n/a	n/a	n/a
947.3340000000	n/a	947334	NegStim	n/a	n/a	n/a	n/a
950.4340000000	n/a	950434	NegNonAlcP2000	n/a	n/a	n/a	n/a
954.4210000000	n/a	954421	NegNonAlcP2000	n/a	n/a	n/a	n/a
964.4670000000	n/a	964467	NeuStim	n/a	n/a	n/a	n/a
967.5670000000	n/a	967567	NeuAlcP1000	n/a	n/a	n/a	n/a
972.5540000000	n/a	972554	NeuAlcP1000	n/a	n/a	n/a	n/a
