onset	duration	sample	trial_type	response_time	stim_file	value	correct
6.7090000000	n/a	6709	ignore	4830	n/a	n/a	1
12.6090000000	n/a	12609	ignore	1000	n/a	n/a	1
14.6090000000	n/a	14609	ignore	1700	n/a	n/a	1
16.3090000000	n/a	16309	ignore	3047	n/a	n/a	1
20.4260000000	n/a	20426	ignore	1000	n/a	n/a	1
22.4260000000	n/a	22426	ignore	1700	n/a	n/a	1
24.1260000000	n/a	24126	ignore	4175	n/a	n/a	1
29.3760000000	n/a	29376	ignore	1000	n/a	n/a	1
31.3760000000	n/a	31376	ignore	1700	n/a	n/a	1
33.0760000000	n/a	33076	ignore	3841	n/a	n/a	1
37.9920000000	n/a	37992	ignore	1000	n/a	n/a	1
39.9930000000	n/a	39993	ignore	1700	n/a	n/a	1
41.6920000000	n/a	41692	ignore	4014	n/a	n/a	1
46.7760000000	n/a	46776	ignore	1000	n/a	n/a	1
48.7760000000	n/a	48776	ignore	1700	n/a	n/a	1
50.4760000000	n/a	50476	ignore	5592	n/a	n/a	1
57.1420000000	n/a	57142	ignore	1000	n/a	n/a	1
59.1420000000	n/a	59142	STATUS	1700	n/a	n/a	1
60.8420000000	n/a	60842	ignore	2940	n/a	n/a	1
64.8590000000	n/a	64859	ignore	1000	n/a	n/a	1
66.8590000000	n/a	66859	STATUS	1700	n/a	n/a	1
68.5590000000	n/a	68559	ignore	5369	n/a	n/a	1
74.9920000000	n/a	74992	ignore	1000	n/a	n/a	1
76.9920000000	n/a	76992	STATUS	1700	n/a	n/a	1
78.6920000000	n/a	78692	ignore	5098	n/a	n/a	1
83.8590000000	n/a	83859	ignore 	2000	n/a	n/a	1
90.5590000000	n/a	90559	ignore	1000	n/a	n/a	1
92.5590000000	n/a	92559	STATUS	1700	n/a	n/a	1
94.2590000000	n/a	94259	ignore	2730	n/a	n/a	0
98.0590000000	n/a	98059	ignore	1000	n/a	n/a	1
100.0590000000	n/a	100059	STATUS	1700	n/a	n/a	1
101.7590000000	n/a	101759	ignore	1433	n/a	n/a	1
104.2590000000	n/a	104259	ignore	1000	n/a	n/a	1
106.2590000000	n/a	106259	STATUS	1700	n/a	n/a	1
107.9590000000	n/a	107959	ignore	1160	n/a	n/a	1
110.1920000000	n/a	110192	ignore	1000	n/a	n/a	1
112.1920000000	n/a	112192	ignore	1700	n/a	n/a	1
113.8920000000	n/a	113892	ignore	1574	n/a	n/a	0
116.5420000000	n/a	116542	ignore	1000	n/a	n/a	1
118.5420000000	n/a	118542	ignore	1700	n/a	n/a	1
120.2420000000	n/a	120242	ignore	1791	n/a	n/a	0
123.1090000000	n/a	123109	ignore	1000	n/a	n/a	1
125.1090000000	n/a	125109	ignore	1700	n/a	n/a	1
126.8090000000	n/a	126809	ignore	951	n/a	n/a	1
128.8260000000	n/a	128826	ignore	1000	n/a	n/a	1
130.8260000000	n/a	130826	ignore	1700	n/a	n/a	1
132.5260000000	n/a	132526	ignore	492	n/a	n/a	1
134.0920000000	n/a	134092	ignore	1000	n/a	n/a	1
136.0920000000	n/a	136092	ignore	1700	n/a	n/a	1
137.7920000000	n/a	137792	ignore	2535	n/a	n/a	1
140.3920000000	n/a	140392	ignore 	2000	n/a	n/a	1
186.2920000000	n/a	186292	PenaltyB1	3029	n/a	n/a	1
190.3920000000	n/a	190392	NeuCorrB1	1000	n/a	n/a	1
192.3920000000	n/a	192392	ignore	1700	n/a	n/a	1
194.0920000000	n/a	194092	PenaltyB1	3321	n/a	n/a	1
198.4760000000	n/a	198476	NeuCorrB1	1000	n/a	n/a	1
200.4760000000	n/a	200476	ignore	1700	n/a	n/a	1
202.1760000000	n/a	202176	PenaltyB1	1298	n/a	n/a	0
204.5420000000	n/a	204542	PunIncorrB1	1000	n/a	n/a	1
206.5420000000	n/a	206542	ignore	1700	n/a	n/a	1
208.2420000000	n/a	208242	RewardB1	1589	n/a	n/a	1
210.9090000000	n/a	210909	RewardCorrB1	1000	n/a	n/a	1
212.9090000000	n/a	212909	ignore	1700	n/a	n/a	1
214.6090000000	n/a	214609	RewardB1	1693	n/a	n/a	0
217.3760000000	n/a	217376	NeuIncorrB1	1000	n/a	n/a	1
219.3760000000	n/a	219376	ignore	1700	n/a	n/a	1
221.0760000000	n/a	221076	PenaltyB1	1631	n/a	n/a	0
223.7760000000	n/a	223776	PunIncorrB1	1000	n/a	n/a	1
225.7760000000	n/a	225776	ignore	1700	n/a	n/a	1
227.4760000000	n/a	227476	PenaltyB1	1827	n/a	n/a	1
230.3760000000	n/a	230376	NeuCorrB1	1000	n/a	n/a	1
232.3760000000	n/a	232376	ignore	1700	n/a	n/a	1
234.0760000000	n/a	234076	PenaltyB1	904	n/a	n/a	0
236.0420000000	n/a	236042	PunIncorrB1	1000	n/a	n/a	1
238.0420000000	n/a	238042	STATUS	1700	n/a	n/a	1
239.7420000000	n/a	239742	PenaltyB1	1220	n/a	n/a	1
242.0260000000	n/a	242026	PunCorrB1	1000	n/a	n/a	1
244.0260000000	n/a	244026	STATUS	1700	n/a	n/a	1
245.7260000000	n/a	245726	RewardB1	1469	n/a	n/a	1
248.2590000000	n/a	248259	RewardCorrB1	1000	n/a	n/a	1
250.2590000000	n/a	250259	STATUS	1700	n/a	n/a	1
251.9590000000	n/a	251959	PenaltyB1	652	n/a	n/a	0
253.6760000000	n/a	253676	PunIncorrB1	1000	n/a	n/a	1
255.6760000000	n/a	255676	STATUS	1700	n/a	n/a	1
257.3750000000	n/a	257375	RewardB1	1293	n/a	n/a	0
259.7420000000	n/a	259742	RewIncorrB1	1000	n/a	n/a	1
261.7420000000	n/a	261742	STATUS	1700	n/a	n/a	1
263.4420000000	n/a	263442	PenaltyB1	1732	n/a	n/a	0
266.2420000000	n/a	266242	PunIncorrB1	1000	n/a	n/a	1
268.2420000000	n/a	268242	STATUS	1700	n/a	n/a	1
269.9420000000	n/a	269942	RewardB1	880	n/a	n/a	1
271.8920000000	n/a	271892	RewardCorrB1	1000	n/a	n/a	1
273.8920000000	n/a	273892	STATUS	1700	n/a	n/a	1
275.5920000000	n/a	275592	PenaltyB1	794	n/a	n/a	1
277.4590000000	n/a	277459	NeuCorrB1	1000	n/a	n/a	1
279.4590000000	n/a	279459	STATUS	1700	n/a	n/a	1
281.1590000000	n/a	281159	PenaltyB1	1775	n/a	n/a	0
284.0090000000	n/a	284009	PunIncorrB1	1000	n/a	n/a	1
286.0090000000	n/a	286009	STATUS	1700	n/a	n/a	1
287.7090000000	n/a	287709	RewardB1	943	n/a	n/a	1
289.7250000000	n/a	289725	NeuCorrB1	1000	n/a	n/a	1
291.7260000000	n/a	291726	STATUS	1700	n/a	n/a	1
293.4250000000	n/a	293425	PenaltyB1	1863	n/a	n/a	1
296.3590000000	n/a	296359	NeuCorrB1	1000	n/a	n/a	1
298.3590000000	n/a	298359	STATUS	1700	n/a	n/a	1
300.0590000000	n/a	300059	RewardB1	847	n/a	n/a	0
301.9750000000	n/a	301975	NeuIncorrB1	1000	n/a	n/a	1
303.9750000000	n/a	303975	STATUS	1700	n/a	n/a	1
305.6750000000	n/a	305675	RewardB1	810	n/a	n/a	0
307.5590000000	n/a	307559	NeuIncorrB1	1000	n/a	n/a	1
309.5590000000	n/a	309559	STATUS	1700	n/a	n/a	1
311.2590000000	n/a	311259	RewardB1	2096	n/a	n/a	0
314.4250000000	n/a	314425	RewIncorrB1	1000	n/a	n/a	1
316.4250000000	n/a	316425	STATUS	1700	n/a	n/a	1
318.1250000000	n/a	318125	RewardB1	1017	n/a	n/a	0
320.2090000000	n/a	320209	NeuIncorrB1	1000	n/a	n/a	1
322.2090000000	n/a	322209	STATUS	1700	n/a	n/a	1
323.9090000000	n/a	323909	RewardB1	1460	n/a	n/a	1
326.4420000000	n/a	326442	RewardCorrB1	1000	n/a	n/a	1
328.4420000000	n/a	328442	ignore	1700	n/a	n/a	1
330.1420000000	n/a	330142	PenaltyB1	1752	n/a	n/a	1
332.9590000000	n/a	332959	NeuCorrB1	1000	n/a	n/a	1
334.9590000000	n/a	334959	ignore	1700	n/a	n/a	1
336.6590000000	n/a	336659	RewardB1	1456	n/a	n/a	0
339.1920000000	n/a	339192	NeuIncorrB1	1000	n/a	n/a	1
341.1920000000	n/a	341192	ignore	1700	n/a	n/a	1
342.8920000000	n/a	342892	PenaltyB1	2650	n/a	n/a	0
346.6090000000	n/a	346609	NeuIncorrB1	1000	n/a	n/a	1
348.6090000000	n/a	348609	ignore	1700	n/a	n/a	1
350.3090000000	n/a	350309	RewardB1	801	n/a	n/a	0
352.1750000000	n/a	352175	NeuIncorrB1	1000	n/a	n/a	1
354.1750000000	n/a	354175	ignore	1700	n/a	n/a	1
355.8750000000	n/a	355875	RewardB1	681	n/a	n/a	1
357.6250000000	n/a	357625	RewardCorrB1	1000	n/a	n/a	1
359.6250000000	n/a	359625	ignore	1700	n/a	n/a	1
361.3250000000	n/a	361325	RewardB1	756	n/a	n/a	0
363.1590000000	n/a	363159	NeuIncorrB1	1000	n/a	n/a	1
365.1590000000	n/a	365159	ignore	1700	n/a	n/a	1
366.8590000000	n/a	366859	PenaltyB1	1505	n/a	n/a	0
369.4420000000	n/a	369442	PunIncorrB1	1000	n/a	n/a	1
371.4420000000	n/a	371442	ignore	1700	n/a	n/a	1
373.1420000000	n/a	373142	RewardB1	1970	n/a	n/a	0
376.1750000000	n/a	376175	RewIncorrB1	1000	n/a	n/a	1
378.1750000000	n/a	378175	ignore	1700	n/a	n/a	1
379.8750000000	n/a	379875	PenaltyB1	2014	n/a	n/a	0
382.9590000000	n/a	382959	PunIncorrB1	1000	n/a	n/a	1
384.9590000000	n/a	384959	ignore	1700	n/a	n/a	1
386.6590000000	n/a	386659	RewardB1	1093	n/a	n/a	1
388.8250000000	n/a	388825	RewardCorrB1	1000	n/a	n/a	1
390.8250000000	n/a	390825	ignore	1700	n/a	n/a	1
392.5250000000	n/a	392525	PenaltyB1	1055	n/a	n/a	0
394.6590000000	n/a	394659	NeuIncorrB1	1000	n/a	n/a	1
396.6590000000	n/a	396659	ignore	1700	n/a	n/a	1
398.3590000000	n/a	398359	RewardB1	772	n/a	n/a	0
400.2090000000	n/a	400209	NeuIncorrB1	1000	n/a	n/a	1
402.2090000000	n/a	402209	ignore	1700	n/a	n/a	1
403.9090000000	n/a	403909	PenaltyB1	873	n/a	n/a	1
405.8590000000	n/a	405859	NeuCorrB1	1000	n/a	n/a	1
407.8590000000	n/a	407859	ignore	1700	n/a	n/a	1
409.5590000000	n/a	409559	PenaltyB1	695	n/a	n/a	0
411.3250000000	n/a	411325	PunIncorrB1	1000	n/a	n/a	1
413.3250000000	n/a	413325	ignore	1700	n/a	n/a	1
415.0250000000	n/a	415025	RewardB1	820	n/a	n/a	0
416.9090000000	n/a	416909	NeuIncorrB1	1000	n/a	n/a	1
418.9090000000	n/a	418909	ignore	1700	n/a	n/a	1
420.6090000000	n/a	420609	PenaltyB1	1488	n/a	n/a	0
423.1750000000	n/a	423175	NeuIncorrB1	1000	n/a	n/a	1
425.1750000000	n/a	425175	ignore	1700	n/a	n/a	1
426.8750000000	n/a	426875	RewardB1	1790	n/a	n/a	1
429.7420000000	n/a	429742	RewardCorrB1	1000	n/a	n/a	1
431.7420000000	n/a	431742	ignore	1700	n/a	n/a	1
449.7750000000	n/a	449775	RewardB2	9220	n/a	n/a	1
460.0590000000	n/a	460059	RewardCorrB2	1000	n/a	n/a	1
462.0590000000	n/a	462059	ignore	1700	n/a	n/a	1
463.7590000000	n/a	463759	PenaltyB2	1644	n/a	n/a	0
466.4750000000	n/a	466475	PunIncorrB2	1000	n/a	n/a	1
468.4750000000	n/a	468475	ignore	1700	n/a	n/a	1
470.1750000000	n/a	470175	RewardB2	617	n/a	n/a	1
471.8590000000	n/a	471859	RewardCorrB2	1000	n/a	n/a	1
473.8590000000	n/a	473859	ignore	1700	n/a	n/a	1
475.5590000000	n/a	475559	RewardB2	1541	n/a	n/a	1
478.1750000000	n/a	478175	NeuCorrB2	1000	n/a	n/a	1
480.1750000000	n/a	480175	ignore	1700	n/a	n/a	1
481.8750000000	n/a	481875	PenaltyB2	1595	n/a	n/a	0
484.5420000000	n/a	484542	PunIncorrB2	1000	n/a	n/a	1
486.5420000000	n/a	486542	ignore	1700	n/a	n/a	1
488.2420000000	n/a	488242	RewardB2	685	n/a	n/a	0
489.9920000000	n/a	489992	NeuIncorrB2	1000	n/a	n/a	1
491.9920000000	n/a	491992	ignore	1700	n/a	n/a	1
493.6920000000	n/a	493692	PenaltyB2	2999	n/a	n/a	1
497.7590000000	n/a	497759	NeuCorrB2	1000	n/a	n/a	1
499.7590000000	n/a	499759	ignore	1700	n/a	n/a	1
501.4590000000	n/a	501459	RewardB2	1034	n/a	n/a	0
503.5590000000	n/a	503559	NeuIncorrB2	1000	n/a	n/a	1
505.5590000000	n/a	505559	ignore	1700	n/a	n/a	1
507.2590000000	n/a	507259	PenaltyB2	1085	n/a	n/a	0
509.4080000000	n/a	509408	PunIncorrB2	1000	n/a	n/a	1
511.4090000000	n/a	511409	ignore	1700	n/a	n/a	1
513.1080000000	n/a	513108	RewardB2	1134	n/a	n/a	0
515.3080000000	n/a	515308	NeuIncorrB2	1000	n/a	n/a	1
517.3090000000	n/a	517309	ignore	1700	n/a	n/a	1
519.0080000000	n/a	519008	PenaltyB2	914	n/a	n/a	1
520.9920000000	n/a	520992	PunCorrB2	1000	n/a	n/a	1
522.9920000000	n/a	522992	STATUS	1700	n/a	n/a	1
524.6920000000	n/a	524692	RewardB2	1156	n/a	n/a	1
526.9250000000	n/a	526925	RewardCorrB2	1000	n/a	n/a	1
528.9250000000	n/a	528925	ignore	1700	n/a	n/a	1
530.6250000000	n/a	530625	PenaltyB2	3484	n/a	n/a	0
535.1750000000	n/a	535175	PunIncorrB2	1000	n/a	n/a	1
537.1750000000	n/a	537175	STATUS	1700	n/a	n/a	1
538.8750000000	n/a	538875	RewardB2	6227	n/a	n/a	0
546.1750000000	n/a	546175	NeuIncorrB2	1000	n/a	n/a	1
548.1750000000	n/a	548175	STATUS	1700	n/a	n/a	1
549.8750000000	n/a	549875	PenaltyB2	1000	n/a	n/a	1
551.9420000000	n/a	551942	NeuCorrB2	1000	n/a	n/a	1
553.9420000000	n/a	553942	STATUS	1700	n/a	n/a	1
555.6420000000	n/a	555642	RewardB2	965	n/a	n/a	0
557.6750000000	n/a	557675	RewIncorrB2	1000	n/a	n/a	1
559.6750000000	n/a	559675	ignore	1700	n/a	n/a	1
561.3750000000	n/a	561375	PenaltyB2	1452	n/a	n/a	1
563.8920000000	n/a	563892	NeuCorrB2	1000	n/a	n/a	1
565.8920000000	n/a	565892	ignore	1700	n/a	n/a	1
567.5920000000	n/a	567592	RewardB2	4139	n/a	n/a	0
572.8080000000	n/a	572808	NeuIncorrB2	1000	n/a	n/a	1
574.8080000000	n/a	574808	ignore	1700	n/a	n/a	1
576.5080000000	n/a	576508	PenaltyB2	1477	n/a	n/a	1
579.0580000000	n/a	579058	NeuCorrB2	1000	n/a	n/a	1
581.0580000000	n/a	581058	ignore	1700	n/a	n/a	1
582.7580000000	n/a	582758	RewardB2	848	n/a	n/a	1
584.6750000000	n/a	584675	RewardCorrB2	1000	n/a	n/a	1
586.6750000000	n/a	586675	ignore	1700	n/a	n/a	1
588.3750000000	n/a	588375	PenaltyB2	5134	n/a	n/a	0
594.5750000000	n/a	594575	NeuIncorrB2	1000	n/a	n/a	1
596.5750000000	n/a	596575	ignore	1700	n/a	n/a	1
598.2750000000	n/a	598275	PenaltyB2	3855	n/a	n/a	1
603.2080000000	n/a	603208	NeuCorrB2	1000	n/a	n/a	1
605.2080000000	n/a	605208	ignore	1700	n/a	n/a	1
606.9080000000	n/a	606908	PenaltyB2	1172	n/a	n/a	1
609.1580000000	n/a	609158	NeuCorrB2	1000	n/a	n/a	1
611.1580000000	n/a	611158	ignore	1700	n/a	n/a	1
612.8580000000	n/a	612858	RewardB2	1662	n/a	n/a	1
615.5920000000	n/a	615592	RewardCorrB2	1000	n/a	n/a	1
617.5920000000	n/a	617592	ignore	1700	n/a	n/a	1
619.2920000000	n/a	619292	RewardB2	899	n/a	n/a	1
621.2580000000	n/a	621258	NeuCorrB2	1000	n/a	n/a	1
623.2580000000	n/a	623258	ignore	1700	n/a	n/a	1
624.9580000000	n/a	624958	RewardB2	3149	n/a	n/a	1
629.1750000000	n/a	629175	RewardCorrB2	1000	n/a	n/a	1
631.1750000000	n/a	631175	ignore	1700	n/a	n/a	1
632.8750000000	n/a	632875	PenaltyB2	960	n/a	n/a	1
634.9080000000	n/a	634908	NeuCorrB2	1000	n/a	n/a	1
636.9080000000	n/a	636908	ignore	1700	n/a	n/a	1
638.6080000000	n/a	638608	PenaltyB2	1127	n/a	n/a	0
640.8080000000	n/a	640808	PunIncorrB2	1000	n/a	n/a	1
642.8080000000	n/a	642808	ignore	1700	n/a	n/a	1
644.5080000000	n/a	644508	RewardB2	1632	n/a	n/a	1
647.2080000000	n/a	647208	RewardCorrB2	1000	n/a	n/a	1
649.2080000000	n/a	649208	ignore	1700	n/a	n/a	1
650.9080000000	n/a	650908	PenaltyB2	2472	n/a	n/a	0
654.4580000000	n/a	654458	PunIncorrB2	1000	n/a	n/a	1
656.4580000000	n/a	656458	ignore	1700	n/a	n/a	1
658.1580000000	n/a	658158	RewardB2	4041	n/a	n/a	1
663.2750000000	n/a	663275	NeuCorrB2	1000	n/a	n/a	1
665.2750000000	n/a	665275	ignore	1700	n/a	n/a	1
666.9750000000	n/a	666975	PenaltyB2	7084	n/a	n/a	1
675.1250000000	n/a	675125	NeuCorrB2	1000	n/a	n/a	1
677.1250000000	n/a	677125	ignore	1700	n/a	n/a	1
678.8250000000	n/a	678825	RewardB2	1413	n/a	n/a	1
681.3080000000	n/a	681308	RewardCorrB2	1000	n/a	n/a	1
683.3080000000	n/a	683308	ignore	1700	n/a	n/a	1
685.0080000000	n/a	685008	PenaltyB2	829	n/a	n/a	0
686.9080000000	n/a	686908	PunIncorrB2	1000	n/a	n/a	1
688.9080000000	n/a	688908	ignore	1700	n/a	n/a	1
690.6080000000	n/a	690608	PenaltyB2	7420	n/a	n/a	1
699.0920000000	n/a	699092	PunCorrB2	1000	n/a	n/a	1
701.0920000000	n/a	701092	ignore	1700	n/a	n/a	1
702.7920000000	n/a	702792	RewardB2	1056	n/a	n/a	1
704.9250000000	n/a	704925	RewardCorrB2	1000	n/a	n/a	1
706.9250000000	n/a	706925	ignore	1700	n/a	n/a	1
708.6250000000	n/a	708625	PenaltyB2	9668	n/a	n/a	0
719.3580000000	n/a	719358	PunIncorrB2	1000	n/a	n/a	1
721.3580000000	n/a	721358	ignore	1700	n/a	n/a	1
723.0580000000	n/a	723058	RewardB2	2555	n/a	n/a	1
726.6920000000	n/a	726692	RewardCorrB2	1000	n/a	n/a	1
728.6920000000	n/a	728692	ignore	1700	n/a	n/a	1
730.3920000000	n/a	730392	PenaltyB2	1732	n/a	n/a	0
733.1920000000	n/a	733192	NeuIncorrB2	1000	n/a	n/a	1
735.1920000000	n/a	735192	ignore	1700	n/a	n/a	1
736.8920000000	n/a	736892	RewardB2	911	n/a	n/a	1
738.8750000000	n/a	738875	RewardCorrB2	1000	n/a	n/a	1
740.8750000000	n/a	740875	ignore	1700	n/a	n/a	1
759.6250000000	n/a	759625	RewardB3	1365	n/a	n/a	1
762.0580000000	n/a	762058	RewardCorrB3	1000	n/a	n/a	1
764.0580000000	n/a	764058	ignore	1700	n/a	n/a	1
765.7580000000	n/a	765758	PenaltyB3	770	n/a	n/a	1
767.5910000000	n/a	767591	PunCorrB3	1000	n/a	n/a	1
769.5920000000	n/a	769592	ignore	1700	n/a	n/a	1
771.2920000000	n/a	771292	RewardB3	1313	n/a	n/a	1
773.6750000000	n/a	773675	RewardCorrB3	1000	n/a	n/a	1
775.6750000000	n/a	775675	ignore	1700	n/a	n/a	1
777.3750000000	n/a	777375	PenaltyB3	3107	n/a	n/a	1
781.5580000000	n/a	781558	NeuCorrB3	1000	n/a	n/a	1
783.5580000000	n/a	783558	ignore	1700	n/a	n/a	1
785.2580000000	n/a	785258	PenaltyB3	1130	n/a	n/a	0
787.4580000000	n/a	787458	PunIncorrB3	1000	n/a	n/a	1
789.4580000000	n/a	789458	ignore	1700	n/a	n/a	1
791.1580000000	n/a	791158	RewardB3	1308	n/a	n/a	1
793.5410000000	n/a	793541	RewardCorrB3	1000	n/a	n/a	1
795.5420000000	n/a	795542	ignore	1700	n/a	n/a	1
797.2410000000	n/a	797241	PenaltyB3	7731	n/a	n/a	0
806.0410000000	n/a	806041	NeuIncorrB3	1000	n/a	n/a	1
808.0420000000	n/a	808042	ignore	1700	n/a	n/a	1
809.7410000000	n/a	809741	RewardB3	796	n/a	n/a	1
811.6080000000	n/a	811608	RewardCorrB3	1000	n/a	n/a	1
813.6080000000	n/a	813608	ignore	1700	n/a	n/a	1
815.3080000000	n/a	815308	PenaltyB3	757	n/a	n/a	1
817.1410000000	n/a	817141	NeuCorrB3	1000	n/a	n/a	1
819.1410000000	n/a	819141	ignore	1700	n/a	n/a	1
820.8410000000	n/a	820841	RewardB3	1032	n/a	n/a	1
822.9410000000	n/a	822941	NeuCorrB3	1000	n/a	n/a	1
824.9410000000	n/a	824941	ignore	1700	n/a	n/a	1
826.6410000000	n/a	826641	PenaltyB3	5523	n/a	n/a	0
833.2410000000	n/a	833241	PunIncorrB3	1000	n/a	n/a	1
835.2410000000	n/a	835241	ignore	1700	n/a	n/a	1
836.9410000000	n/a	836941	RewardB3	4548	n/a	n/a	1
842.5580000000	n/a	842558	RewardCorrB3	1000	n/a	n/a	1
844.5580000000	n/a	844558	ignore	1700	n/a	n/a	1
846.2580000000	n/a	846258	RewardB3	3564	n/a	n/a	1
850.8910000000	n/a	850891	RewardCorrB3	1000	n/a	n/a	1
852.8910000000	n/a	852891	ignore	1700	n/a	n/a	1
854.5910000000	n/a	854591	RewardB3	1172	n/a	n/a	1
856.8410000000	n/a	856841	RewardCorrB3	1000	n/a	n/a	1
858.8410000000	n/a	858841	ignore	1700	n/a	n/a	1
860.5410000000	n/a	860541	PenaltyB3	1023	n/a	n/a	0
862.6410000000	n/a	862641	NeuIncorrB3	1000	n/a	n/a	1
864.6410000000	n/a	864641	ignore	1700	n/a	n/a	1
866.3410000000	n/a	866341	RewardB3	848	n/a	n/a	1
868.2580000000	n/a	868258	RewardCorrB3	1000	n/a	n/a	1
870.2580000000	n/a	870258	ignore	1700	n/a	n/a	1
871.9580000000	n/a	871958	PenaltyB3	788	n/a	n/a	1
873.8080000000	n/a	873808	NeuCorrB3	1000	n/a	n/a	1
875.8080000000	n/a	875808	ignore	1700	n/a	n/a	1
877.5080000000	n/a	877508	RewardB3	1396	n/a	n/a	1
879.9750000000	n/a	879975	RewardCorrB3	1000	n/a	n/a	1
881.9750000000	n/a	881975	STATUS	1700	n/a	n/a	1
883.6750000000	n/a	883675	RewardB3	1727	n/a	n/a	1
886.4750000000	n/a	886475	RewardCorrB3	1000	n/a	n/a	1
888.4750000000	n/a	888475	STATUS	1700	n/a	n/a	1
890.1750000000	n/a	890175	RewardB3	5504	n/a	n/a	1
896.7410000000	n/a	896741	NeuCorrB3	1000	n/a	n/a	1
898.7410000000	n/a	898741	STATUS	1700	n/a	n/a	1
900.4410000000	n/a	900441	RewardB3	1007	n/a	n/a	1
902.5250000000	n/a	902525	RewardCorrB3	1000	n/a	n/a	1
904.5250000000	n/a	904525	STATUS	1700	n/a	n/a	1
906.2250000000	n/a	906225	RewardB3	574	n/a	n/a	1
907.8750000000	n/a	907875	RewardCorrB3	1000	n/a	n/a	1
909.8750000000	n/a	909875	STATUS	1700	n/a	n/a	1
911.5750000000	n/a	911575	PenaltyB3	725	n/a	n/a	0
913.3750000000	n/a	913375	PunIncorrB3	1000	n/a	n/a	1
915.3750000000	n/a	915375	STATUS	1700	n/a	n/a	1
917.0750000000	n/a	917075	RewardB3	744	n/a	n/a	1
918.8910000000	n/a	918891	NeuCorrB3	1000	n/a	n/a	1
920.8910000000	n/a	920891	STATUS	1700	n/a	n/a	1
922.5910000000	n/a	922591	PenaltyB3	7279	n/a	n/a	0
930.9410000000	n/a	930941	PunIncorrB3	1000	n/a	n/a	1
932.9410000000	n/a	932941	STATUS	1700	n/a	n/a	1
934.6410000000	n/a	934641	PenaltyB3	1382	n/a	n/a	1
937.0910000000	n/a	937091	NeuCorrB3	1000	n/a	n/a	1
939.0910000000	n/a	939091	STATUS	1700	n/a	n/a	1
940.7910000000	n/a	940791	RewardB3	3291	n/a	n/a	1
945.1580000000	n/a	945158	RewardCorrB3	1000	n/a	n/a	1
947.1580000000	n/a	947158	STATUS	1700	n/a	n/a	1
948.8580000000	n/a	948858	PenaltyB3	743	n/a	n/a	1
950.6750000000	n/a	950675	NeuCorrB3	1000	n/a	n/a	1
952.6750000000	n/a	952675	STATUS	1700	n/a	n/a	1
954.3750000000	n/a	954375	RewardB3	752	n/a	n/a	1
956.1910000000	n/a	956191	NeuCorrB3	1000	n/a	n/a	1
958.1910000000	n/a	958191	STATUS	1700	n/a	n/a	1
959.8910000000	n/a	959891	PenaltyB3	970	n/a	n/a	0
961.9250000000	n/a	961925	PunIncorrB3	1000	n/a	n/a	1
963.9250000000	n/a	963925	STATUS	1700	n/a	n/a	1
965.6250000000	n/a	965625	RewardB3	1028	n/a	n/a	1
967.7250000000	n/a	967725	RewardCorrB3	1000	n/a	n/a	1
969.7250000000	n/a	969725	STATUS	1700	n/a	n/a	1
971.4250000000	n/a	971425	PenaltyB3	8941	n/a	n/a	1
981.4410000000	n/a	981441	PunCorrB3	1000	n/a	n/a	1
983.4410000000	n/a	983441	STATUS	1700	n/a	n/a	1
985.1410000000	n/a	985141	PenaltyB3	1449	n/a	n/a	1
987.6580000000	n/a	987658	NeuCorrB3	1000	n/a	n/a	1
989.6580000000	n/a	989658	STATUS	1700	n/a	n/a	1
991.3580000000	n/a	991358	PenaltyB3	7095	n/a	n/a	0
999.5250000000	n/a	999525	PunIncorrB3	1000	n/a	n/a	1
1001.5250000000	n/a	1001525	STATUS	1700	n/a	n/a	1
1003.2250000000	n/a	1003225	PenaltyB3	6858	n/a	n/a	1
1011.1580000000	n/a	1011158	NeuCorrB3	1000	n/a	n/a	1
1013.1580000000	n/a	1013158	STATUS	1700	n/a	n/a	1
1014.8580000000	n/a	1014858	RewardB3	968	n/a	n/a	1
1016.8910000000	n/a	1016891	RewardCorrB3	1000	n/a	n/a	1
1018.8910000000	n/a	1018891	STATUS	1700	n/a	n/a	1
1020.5910000000	n/a	1020591	RewardB3	2001	n/a	n/a	1
1023.6580000000	n/a	1023658	RewardCorrB3	1000	n/a	n/a	1
1025.6580000000	n/a	1025658	STATUS	1700	n/a	n/a	1
1027.3580000000	n/a	1027358	PenaltyB3	719	n/a	n/a	1
1029.1410000000	n/a	1029141	NeuCorrB3	1000	n/a	n/a	1
1031.1410000000	n/a	1031141	STATUS	1700	n/a	n/a	1
1032.8410000000	n/a	1032841	PenaltyB3	1817	n/a	n/a	1
1035.7240000000	n/a	1035724	NeuCorrB3	1000	n/a	n/a	1
1037.7250000000	n/a	1037725	STATUS	1700	n/a	n/a	1
1039.4240000000	n/a	1039424	PenaltyB3	7551	n/a	n/a	1
1048.0410000000	n/a	1048041	NeuCorrB3	1000	n/a	n/a	1
1050.0410000000	n/a	1050041	STATUS	1700	n/a	n/a	1
1066.4910000000	n/a	1066491	RewardB4	1012	n/a	n/a	1
1068.5740000000	n/a	1068574	RewardCorrB4	1000	n/a	n/a	1
1070.5750000000	n/a	1070575	STATUS	1700	n/a	n/a	1
1072.2740000000	n/a	1072274	PenaltyB4	710	n/a	n/a	0
1074.0580000000	n/a	1074058	NeuIncorrB4	1000	n/a	n/a	1
1076.0580000000	n/a	1076058	STATUS	1700	n/a	n/a	1
1077.7580000000	n/a	1077758	RewardB4	1015	n/a	n/a	1
1079.8410000000	n/a	1079841	RewardCorrB4	1000	n/a	n/a	1
1081.8410000000	n/a	1081841	STATUS	1700	n/a	n/a	1
1083.5410000000	n/a	1083541	PenaltyB4	1017	n/a	n/a	1
1085.6240000000	n/a	1085624	NeuCorrB4	1000	n/a	n/a	1
1087.6240000000	n/a	1087624	STATUS	1700	n/a	n/a	1
1089.3240000000	n/a	1089324	RewardB4	1122	n/a	n/a	1
1091.5240000000	n/a	1091524	RewardCorrB4	1000	n/a	n/a	1
1093.5240000000	n/a	1093524	STATUS	1700	n/a	n/a	1
1095.2240000000	n/a	1095224	PenaltyB4	1662	n/a	n/a	1
1097.9580000000	n/a	1097958	PunCorrB4	1000	n/a	n/a	1
1099.9580000000	n/a	1099958	STATUS	1700	n/a	n/a	1
1101.6580000000	n/a	1101658	PenaltyB4	7114	n/a	n/a	0
1109.8410000000	n/a	1109841	PunIncorrB4	1000	n/a	n/a	1
1111.8410000000	n/a	1111841	STATUS	1700	n/a	n/a	1
1113.5410000000	n/a	1113541	RewardB4	7143	n/a	n/a	1
1121.7580000000	n/a	1121758	RewardCorrB4	1000	n/a	n/a	1
1123.7580000000	n/a	1123758	STATUS	1700	n/a	n/a	1
1125.4580000000	n/a	1125458	PenaltyB4	1031	n/a	n/a	1
1127.5580000000	n/a	1127558	NeuCorrB4	1000	n/a	n/a	1
1129.5580000000	n/a	1129558	STATUS	1700	n/a	n/a	1
1131.2580000000	n/a	1131258	RewardB4	884	n/a	n/a	1
1133.2080000000	n/a	1133208	NeuCorrB4	1000	n/a	n/a	1
1135.2080000000	n/a	1135208	STATUS	1700	n/a	n/a	1
1136.9080000000	n/a	1136908	PenaltyB4	818	n/a	n/a	0
1138.7910000000	n/a	1138791	PunIncorrB4	1000	n/a	n/a	1
1140.7910000000	n/a	1140791	STATUS	1700	n/a	n/a	1
1142.4910000000	n/a	1142491	RewardB4	4134	n/a	n/a	0
1147.6910000000	n/a	1147691	NeuIncorrB4	1000	n/a	n/a	1
1149.6910000000	n/a	1149691	STATUS	1700	n/a	n/a	1
1151.3910000000	n/a	1151391	PenaltyB4	594	n/a	n/a	0
1153.0580000000	n/a	1153058	PunIncorrB4	1000	n/a	n/a	1
1155.0580000000	n/a	1155058	STATUS	1700	n/a	n/a	1
1156.7580000000	n/a	1156758	PenaltyB4	962	n/a	n/a	1
1158.7910000000	n/a	1158791	NeuCorrB4	1000	n/a	n/a	1
1160.7910000000	n/a	1160791	STATUS	1700	n/a	n/a	1
1162.4910000000	n/a	1162491	RewardB4	710	n/a	n/a	1
1164.2740000000	n/a	1164274	RewardCorrB4	1000	n/a	n/a	1
1166.2740000000	n/a	1166274	STATUS	1700	n/a	n/a	1
1167.9740000000	n/a	1167974	RewardB4	564	n/a	n/a	1
1169.6080000000	n/a	1169608	NeuCorrB4	1000	n/a	n/a	1
1171.6080000000	n/a	1171608	STATUS	1700	n/a	n/a	1
1173.3080000000	n/a	1173308	RewardB4	659	n/a	n/a	1
1175.0410000000	n/a	1175041	RewardCorrB4	1000	n/a	n/a	1
1177.0410000000	n/a	1177041	STATUS	1700	n/a	n/a	1
1178.7410000000	n/a	1178741	PenaltyB4	929	n/a	n/a	0
1180.7410000000	n/a	1180741	PunIncorrB4	1000	n/a	n/a	1
1182.7410000000	n/a	1182741	STATUS	1700	n/a	n/a	1
1184.4410000000	n/a	1184441	PenaltyB4	9154	n/a	n/a	1
1194.6580000000	n/a	1194658	NeuCorrB4	1000	n/a	n/a	1
1196.6580000000	n/a	1196658	STATUS	1700	n/a	n/a	1
1198.3580000000	n/a	1198358	PenaltyB4	720	n/a	n/a	0
1200.1410000000	n/a	1200141	NeuIncorrB4	1000	n/a	n/a	1
1202.1410000000	n/a	1202141	STATUS	1700	n/a	n/a	1
1203.8410000000	n/a	1203841	RewardB4	816	n/a	n/a	1
1205.7240000000	n/a	1205724	RewardCorrB4	1000	n/a	n/a	1
1207.7240000000	n/a	1207724	STATUS	1700	n/a	n/a	1
1209.4240000000	n/a	1209424	PenaltyB4	674	n/a	n/a	1
1211.1740000000	n/a	1211174	NeuCorrB4	1000	n/a	n/a	1
1213.1740000000	n/a	1213174	STATUS	1700	n/a	n/a	1
1214.8740000000	n/a	1214874	RewardB4	513	n/a	n/a	1
1216.4580000000	n/a	1216458	RewardCorrB4	1000	n/a	n/a	1
1218.4580000000	n/a	1218458	STATUS	1700	n/a	n/a	1
1220.1580000000	n/a	1220158	PenaltyB4	595	n/a	n/a	0
1221.8240000000	n/a	1221824	PunIncorrB4	1000	n/a	n/a	1
1223.8240000000	n/a	1223824	STATUS	1700	n/a	n/a	1
1225.5240000000	n/a	1225524	RewardB4	648	n/a	n/a	1
1227.2410000000	n/a	1227241	NeuCorrB4	1000	n/a	n/a	1
1229.2410000000	n/a	1229241	STATUS	1700	n/a	n/a	1
1230.9410000000	n/a	1230941	PenaltyB4	1710	n/a	n/a	1
1233.7240000000	n/a	1233724	NeuCorrB4	1000	n/a	n/a	1
1235.7240000000	n/a	1235724	STATUS	1700	n/a	n/a	1
1237.4240000000	n/a	1237424	RewardB4	3234	n/a	n/a	1
1241.7240000000	n/a	1241724	RewardCorrB4	1000	n/a	n/a	1
1243.7240000000	n/a	1243724	STATUS	1700	n/a	n/a	1
1245.4240000000	n/a	1245424	PenaltyB4	585	n/a	n/a	1
1247.0740000000	n/a	1247074	NeuCorrB4	1000	n/a	n/a	1
1249.0740000000	n/a	1249074	STATUS	1700	n/a	n/a	1
1250.7740000000	n/a	1250774	RewardB4	541	n/a	n/a	1
1252.3910000000	n/a	1252391	RewardCorrB4	1000	n/a	n/a	1
1254.3910000000	n/a	1254391	STATUS	1700	n/a	n/a	1
1256.0910000000	n/a	1256091	PenaltyB4	838	n/a	n/a	1
1257.9910000000	n/a	1257991	PunCorrB4	1000	n/a	n/a	1
1259.9910000000	n/a	1259991	STATUS	1700	n/a	n/a	1
1261.6910000000	n/a	1261691	RewardB4	2328	n/a	n/a	1
1265.0910000000	n/a	1265091	RewardCorrB4	1000	n/a	n/a	1
1267.0910000000	n/a	1267091	STATUS	1700	n/a	n/a	1
1268.7910000000	n/a	1268791	PenaltyB4	664	n/a	n/a	1
1270.5240000000	n/a	1270524	NeuCorrB4	1000	n/a	n/a	1
1272.5240000000	n/a	1272524	STATUS	1700	n/a	n/a	1
1274.2240000000	n/a	1274224	RewardB4	816	n/a	n/a	1
1276.1080000000	n/a	1276108	RewardCorrB4	1000	n/a	n/a	1
1278.1080000000	n/a	1278108	STATUS	1700	n/a	n/a	1
1279.8080000000	n/a	1279808	PenaltyB4	871	n/a	n/a	0
1281.7410000000	n/a	1281741	PunIncorrB4	1000	n/a	n/a	1
1283.7410000000	n/a	1283741	STATUS	1700	n/a	n/a	1
1285.4410000000	n/a	1285441	RewardB4	3904	n/a	n/a	1
1290.4070000000	n/a	1290407	RewardCorrB4	1000	n/a	n/a	1
1292.4080000000	n/a	1292408	STATUS	1700	n/a	n/a	1
1294.1070000000	n/a	1294107	PenaltyB4	4693	n/a	n/a	1
1299.8740000000	n/a	1299874	NeuCorrB4	1000	n/a	n/a	1
1301.8740000000	n/a	1301874	STATUS	1700	n/a	n/a	1
1303.5740000000	n/a	1303574	RewardB4	667	n/a	n/a	1
1305.3070000000	n/a	1305307	NeuCorrB4	1000	n/a	n/a	1
1307.3080000000	n/a	1307308	STATUS	1700	n/a	n/a	1
1309.0070000000	n/a	1309007	RewardB4	752	n/a	n/a	1
1310.8240000000	n/a	1310824	RewardCorrB4	1000	n/a	n/a	1
1312.8240000000	n/a	1312824	STATUS	1700	n/a	n/a	1
1314.5240000000	n/a	1314524	PenaltyB4	709	n/a	n/a	0
1316.3070000000	n/a	1316307	PunIncorrB4	1000	n/a	n/a	1
1318.3080000000	n/a	1318308	STATUS	1700	n/a	n/a	1
1320.0070000000	n/a	1320007	RewardB4	969	n/a	n/a	1
1322.0410000000	n/a	1322041	RewardCorrB4	1000	n/a	n/a	1
1324.0410000000	n/a	1324041	STATUS	1700	n/a	n/a	1
1327.8580000000	n/a	1327858	STATUS	1700	n/a	n/a	1
