onset	duration	sample	trial_type	response_time	stim_file	value	correct
3.7580000000	n/a	3758	FrequentFixedSOA	1633	n/a	n/a	1
5.3910000000	n/a	5391	FrequentFixedSOA	1633	n/a	n/a	1
7.0250000000	n/a	7025	FrequentFixedSOA	1633	n/a	n/a	1
8.6580000000	n/a	8658	FrequentFixedSOA	1633	n/a	n/a	1
10.2910000000	n/a	10291	FrequentFixedSOA	1633	n/a	n/a	1
11.9250000000	n/a	11925	FrequentFixedSOA	1633	n/a	n/a	1
13.5580000000	n/a	13558	FrequentFixedSOA	1633	n/a	n/a	1
15.1910000000	n/a	15191	FrequentFixedSOA	1633	n/a	n/a	1
16.8250000000	n/a	16825	FrequentFixedSOA	1633	n/a	n/a	1
18.4580000000	n/a	18458	FrequentFixedSOA	1633	n/a	n/a	1
20.0910000000	n/a	20091	NovelFixedSOA	1633	n/a	n/a	1
21.7240000000	n/a	21724	FrequentFixedSOA	1633	n/a	n/a	1
23.3580000000	n/a	23358	GoFixedSOA	373	n/a	n/a	1
24.9910000000	n/a	24991	FrequentFixedSOA	1633	n/a	n/a	1
26.6240000000	n/a	26624	FrequentFixedSOA	1633	n/a	n/a	1
28.2580000000	n/a	28258	FrequentFixedSOA	1633	n/a	n/a	1
29.8910000000	n/a	29891	GoFixedSOA	310	n/a	n/a	1
31.5240000000	n/a	31524	FrequentFixedSOA	1633	n/a	n/a	1
33.1580000000	n/a	33158	FrequentFixedSOA	1633	n/a	n/a	1
34.7910000000	n/a	34791	FrequentFixedSOA	1633	n/a	n/a	1
36.4240000000	n/a	36424	NovelFixedSOA	1633	n/a	n/a	1
38.0580000000	n/a	38058	FrequentFixedSOA	1633	n/a	n/a	1
39.6910000000	n/a	39691	FrequentFixedSOA	1633	n/a	n/a	1
41.3240000000	n/a	41324	FrequentFixedSOA	1633	n/a	n/a	1
42.9580000000	n/a	42958	GoFixedSOA	399	n/a	n/a	1
44.5910000000	n/a	44591	FrequentFixedSOA	1633	n/a	n/a	1
46.2240000000	n/a	46224	NovelFixedSOA	1633	n/a	n/a	1
47.8580000000	n/a	47858	FrequentFixedSOA	1633	n/a	n/a	1
49.4910000000	n/a	49491	FrequentFixedSOA	1633	n/a	n/a	1
51.1240000000	n/a	51124	FrequentFixedSOA	1633	n/a	n/a	1
52.7580000000	n/a	52758	GoFixedSOA	393	n/a	n/a	1
54.3910000000	n/a	54391	FrequentFixedSOA	1633	n/a	n/a	1
56.0240000000	n/a	56024	GoFixedSOA	1633	n/a	n/a	0
57.6580000000	n/a	57658	FrequentFixedSOA	1633	n/a	n/a	1
59.2910000000	n/a	59291	FrequentFixedSOA	1633	n/a	n/a	1
60.9240000000	n/a	60924	GoFixedSOA	326	n/a	n/a	1
62.5580000000	n/a	62558	FrequentFixedSOA	1633	n/a	n/a	1
64.1910000000	n/a	64191	FrequentFixedSOA	1633	n/a	n/a	1
65.8240000000	n/a	65824	FrequentFixedSOA	1633	n/a	n/a	1
67.4580000000	n/a	67458	FrequentFixedSOA	1633	n/a	n/a	1
69.0910000000	n/a	69091	NovelFixedSOA	1633	n/a	n/a	1
70.7240000000	n/a	70724	FrequentFixedSOA	1633	n/a	n/a	1
72.3580000000	n/a	72358	NovelFixedSOA	1633	n/a	n/a	1
73.9910000000	n/a	73991	FrequentFixedSOA	1633	n/a	n/a	1
75.6240000000	n/a	75624	FrequentFixedSOA	1633	n/a	n/a	1
77.2580000000	n/a	77258	GoFixedSOA	409	n/a	n/a	1
78.8910000000	n/a	78891	FrequentFixedSOA	1633	n/a	n/a	1
80.5240000000	n/a	80524	FrequentFixedSOA	1633	n/a	n/a	1
82.1580000000	n/a	82158	FrequentFixedSOA	1633	n/a	n/a	1
83.7910000000	n/a	83791	FrequentFixedSOA	1633	n/a	n/a	1
85.4240000000	n/a	85424	NovelFixedSOA	1633	n/a	n/a	1
87.0580000000	n/a	87058	FrequentFixedSOA	1633	n/a	n/a	1
88.6910000000	n/a	88691	FrequentFixedSOA	1633	n/a	n/a	1
90.3240000000	n/a	90324	FrequentFixedSOA	1633	n/a	n/a	1
91.9580000000	n/a	91958	FrequentFixedSOA	1633	n/a	n/a	1
93.5910000000	n/a	93591	GoFixedSOA	304	n/a	n/a	1
95.2240000000	n/a	95224	FrequentFixedSOA	1633	n/a	n/a	1
96.8580000000	n/a	96858	FrequentFixedSOA	1633	n/a	n/a	1
98.4910000000	n/a	98491	NovelFixedSOA	1633	n/a	n/a	1
100.1240000000	n/a	100124	FrequentFixedSOA	1633	n/a	n/a	1
101.7580000000	n/a	101758	FrequentFixedSOA	1633	n/a	n/a	1
103.3910000000	n/a	103391	GoFixedSOA	482	n/a	n/a	1
105.0240000000	n/a	105024	FrequentFixedSOA	1633	n/a	n/a	1
106.6580000000	n/a	106658	FrequentFixedSOA	1633	n/a	n/a	1
108.2910000000	n/a	108291	FrequentFixedSOA	1633	n/a	n/a	1
109.9240000000	n/a	109924	FrequentFixedSOA	1633	n/a	n/a	1
111.5580000000	n/a	111558	NovelFixedSOA	1633	n/a	n/a	1
113.1910000000	n/a	113191	FrequentFixedSOA	1633	n/a	n/a	1
114.8240000000	n/a	114824	FrequentFixedSOA	1633	n/a	n/a	1
116.4580000000	n/a	116458	GoFixedSOA	359	n/a	n/a	1
118.0910000000	n/a	118091	FrequentVariableSOA	1533	n/a	n/a	1
119.6240000000	n/a	119624	FrequentVariableSOA	1633	n/a	n/a	1
121.2580000000	n/a	121258	FrequentVariableSOA	1700	n/a	n/a	1
122.9580000000	n/a	122958	FrequentVariableSOA	1766	n/a	n/a	1
124.7240000000	n/a	124724	FrequentVariableSOA	1800	n/a	n/a	1
126.5240000000	n/a	126524	FrequentVariableSOA	1683	n/a	n/a	1
128.2080000000	n/a	128208	FrequentVariableSOA	1783	n/a	n/a	1
129.9910000000	n/a	129991	FrequentVariableSOA	1550	n/a	n/a	1
131.5410000000	n/a	131541	FrequentVariableSOA	1733	n/a	n/a	1
133.2740000000	n/a	133274	FrequentVariableSOA	1683	n/a	n/a	1
134.9580000000	n/a	134958	NovelVariableSOA	1700	n/a	n/a	1
136.6580000000	n/a	136658	FrequentVariableSOA	1583	n/a	n/a	1
138.2410000000	n/a	138241	GoVariableSOA	413	n/a	n/a	1
139.9410000000	n/a	139941	FrequentVariableSOA	1650	n/a	n/a	1
141.5910000000	n/a	141591	FrequentVariableSOA	1600	n/a	n/a	1
143.1910000000	n/a	143191	FrequentVariableSOA	1750	n/a	n/a	1
144.9410000000	n/a	144941	GoVariableSOA	388	n/a	n/a	1
146.5910000000	n/a	146591	FrequentVariableSOA	1666	n/a	n/a	1
148.2580000000	n/a	148258	FrequentVariableSOA	1633	n/a	n/a	1
149.8910000000	n/a	149891	FrequentVariableSOA	1766	n/a	n/a	1
151.6580000000	n/a	151658	NovelVariableSOA	1700	n/a	n/a	1
153.3580000000	n/a	153358	FrequentVariableSOA	1683	n/a	n/a	1
155.0410000000	n/a	155041	FrequentVariableSOA	1550	n/a	n/a	1
156.5910000000	n/a	156591	FrequentVariableSOA	1550	n/a	n/a	1
158.1410000000	n/a	158141	GoVariableSOA	361	n/a	n/a	1
159.8410000000	n/a	159841	FrequentVariableSOA	1516	n/a	n/a	1
161.3580000000	n/a	161358	NovelVariableSOA	1566	n/a	n/a	1
162.9240000000	n/a	162924	FrequentVariableSOA	1700	n/a	n/a	1
164.6240000000	n/a	164624	FrequentVariableSOA	1750	n/a	n/a	1
166.3740000000	n/a	166374	FrequentVariableSOA	1783	n/a	n/a	1
168.1580000000	n/a	168158	GoVariableSOA	388	n/a	n/a	1
169.9410000000	n/a	169941	FrequentVariableSOA	1600	n/a	n/a	1
171.5410000000	n/a	171541	GoVariableSOA	441	n/a	n/a	1
173.0740000000	n/a	173074	FrequentVariableSOA	1650	n/a	n/a	1
174.7240000000	n/a	174724	FrequentVariableSOA	1566	n/a	n/a	1
176.2910000000	n/a	176291	GoVariableSOA	303	n/a	n/a	1
177.9080000000	n/a	177908	FrequentVariableSOA	1500	n/a	n/a	1
179.4080000000	n/a	179408	FrequentVariableSOA	1516	n/a	n/a	1
180.9240000000	n/a	180924	FrequentVariableSOA	1583	n/a	n/a	1
182.5080000000	n/a	182508	FrequentVariableSOA	1683	n/a	n/a	1
184.1910000000	n/a	184191	NovelVariableSOA	1650	n/a	n/a	1
185.8410000000	n/a	185841	FrequentVariableSOA	1650	n/a	n/a	1
187.4910000000	n/a	187491	NovelVariableSOA	1650	n/a	n/a	1
189.1410000000	n/a	189141	FrequentVariableSOA	1516	n/a	n/a	1
190.6580000000	n/a	190658	FrequentVariableSOA	1600	n/a	n/a	1
192.2580000000	n/a	192258	GoVariableSOA	452	n/a	n/a	1
193.8580000000	n/a	193858	FrequentVariableSOA	1533	n/a	n/a	1
195.3910000000	n/a	195391	FrequentVariableSOA	1516	n/a	n/a	1
196.9080000000	n/a	196908	FrequentVariableSOA	1616	n/a	n/a	1
198.5240000000	n/a	198524	FrequentVariableSOA	1583	n/a	n/a	1
200.1080000000	n/a	200108	NovelVariableSOA	1566	n/a	n/a	1
201.6740000000	n/a	201674	FrequentVariableSOA	1633	n/a	n/a	1
203.3080000000	n/a	203308	FrequentVariableSOA	1583	n/a	n/a	1
204.8910000000	n/a	204891	FrequentVariableSOA	1716	n/a	n/a	1
206.6080000000	n/a	206608	FrequentVariableSOA	1616	n/a	n/a	1
208.2240000000	n/a	208224	GoVariableSOA	407	n/a	n/a	1
209.7410000000	n/a	209741	FrequentVariableSOA	1566	n/a	n/a	1
211.3080000000	n/a	211308	FrequentVariableSOA	1550	n/a	n/a	1
212.8580000000	n/a	212858	NovelVariableSOA	1783	n/a	n/a	1
214.6410000000	n/a	214641	FrequentVariableSOA	1600	n/a	n/a	1
216.2410000000	n/a	216241	FrequentVariableSOA	1583	n/a	n/a	1
217.8240000000	n/a	217824	GoVariableSOA	344	n/a	n/a	1
219.3240000000	n/a	219324	FrequentVariableSOA	1650	n/a	n/a	1
220.9740000000	n/a	220974	FrequentVariableSOA	1633	n/a	n/a	1
222.6080000000	n/a	222608	FrequentVariableSOA	1683	n/a	n/a	1
224.2910000000	n/a	224291	FrequentVariableSOA	1750	n/a	n/a	1
226.0410000000	n/a	226041	NovelVariableSOA	1533	n/a	n/a	1
227.5740000000	n/a	227574	FrequentVariableSOA	1500	n/a	n/a	1
229.0740000000	n/a	229074	FrequentVariableSOA	1716	n/a	n/a	1
230.7910000000	n/a	230791	GoVariableSOA	429	n/a	n/a	1
232.3910000000	n/a	232391	FrequentFixedSOA	1633	n/a	n/a	1
234.0240000000	n/a	234024	FrequentFixedSOA	1633	n/a	n/a	1
235.6580000000	n/a	235658	FrequentFixedSOA	1633	n/a	n/a	1
237.2910000000	n/a	237291	GoFixedSOA	484	n/a	n/a	1
238.9240000000	n/a	238924	FrequentFixedSOA	1633	n/a	n/a	1
240.5580000000	n/a	240558	FrequentFixedSOA	1633	n/a	n/a	1
242.1910000000	n/a	242191	FrequentFixedSOA	1633	n/a	n/a	1
243.8240000000	n/a	243824	GoFixedSOA	374	n/a	n/a	1
245.4570000000	n/a	245457	FrequentFixedSOA	1633	n/a	n/a	1
247.0910000000	n/a	247091	FrequentFixedSOA	1633	n/a	n/a	1
248.7240000000	n/a	248724	FrequentFixedSOA	1633	n/a	n/a	1
250.3570000000	n/a	250357	NovelFixedSOA	1633	n/a	n/a	1
251.9910000000	n/a	251991	FrequentFixedSOA	1633	n/a	n/a	1
253.6240000000	n/a	253624	NovelFixedSOA	1633	n/a	n/a	1
255.2570000000	n/a	255257	FrequentFixedSOA	1633	n/a	n/a	1
256.8910000000	n/a	256891	FrequentFixedSOA	1633	n/a	n/a	1
258.5240000000	n/a	258524	NovelFixedSOA	1633	n/a	n/a	1
260.1570000000	n/a	260157	FrequentFixedSOA	1633	n/a	n/a	1
261.7910000000	n/a	261791	FrequentFixedSOA	1633	n/a	n/a	1
263.4240000000	n/a	263424	FrequentFixedSOA	1633	n/a	n/a	1
265.0570000000	n/a	265057	FrequentFixedSOA	1633	n/a	n/a	1
266.6910000000	n/a	266691	FrequentFixedSOA	1633	n/a	n/a	1
268.3240000000	n/a	268324	NovelFixedSOA	1633	n/a	n/a	1
269.9570000000	n/a	269957	FrequentFixedSOA	1633	n/a	n/a	1
271.5910000000	n/a	271591	FrequentFixedSOA	1633	n/a	n/a	1
273.2240000000	n/a	273224	FrequentFixedSOA	1633	n/a	n/a	1
274.8570000000	n/a	274857	FrequentFixedSOA	1633	n/a	n/a	1
276.4910000000	n/a	276491	FrequentFixedSOA	1633	n/a	n/a	1
278.1240000000	n/a	278124	GoFixedSOA	420	n/a	n/a	1
279.7570000000	n/a	279757	FrequentFixedSOA	1633	n/a	n/a	1
281.3910000000	n/a	281391	FrequentFixedSOA	1633	n/a	n/a	1
283.0240000000	n/a	283024	GoFixedSOA	489	n/a	n/a	1
284.6570000000	n/a	284657	FrequentFixedSOA	1633	n/a	n/a	1
286.2910000000	n/a	286291	NovelFixedSOA	1633	n/a	n/a	1
287.9240000000	n/a	287924	FrequentFixedSOA	1633	n/a	n/a	1
289.5570000000	n/a	289557	GoFixedSOA	538	n/a	n/a	1
291.1910000000	n/a	291191	FrequentFixedSOA	1633	n/a	n/a	1
292.8240000000	n/a	292824	GoFixedSOA	1633	n/a	n/a	0
294.4570000000	n/a	294457	FrequentFixedSOA	1633	n/a	n/a	1
296.0910000000	n/a	296091	FrequentFixedSOA	1633	n/a	n/a	1
297.7240000000	n/a	297724	FrequentFixedSOA	1633	n/a	n/a	1
299.3570000000	n/a	299357	FrequentFixedSOA	1633	n/a	n/a	1
300.9910000000	n/a	300991	GoFixedSOA	386	n/a	n/a	1
302.6240000000	n/a	302624	FrequentFixedSOA	1633	n/a	n/a	1
304.2570000000	n/a	304257	FrequentFixedSOA	1633	n/a	n/a	1
305.8910000000	n/a	305891	FrequentFixedSOA	1633	n/a	n/a	1
307.5240000000	n/a	307524	NovelFixedSOA	1633	n/a	n/a	1
309.1570000000	n/a	309157	FrequentFixedSOA	1633	n/a	n/a	1
310.7910000000	n/a	310791	FrequentFixedSOA	1633	n/a	n/a	1
312.4240000000	n/a	312424	FrequentFixedSOA	1633	n/a	n/a	1
314.0570000000	n/a	314057	FrequentFixedSOA	1633	n/a	n/a	1
315.6910000000	n/a	315691	NovelFixedSOA	1633	n/a	n/a	1
317.3240000000	n/a	317324	FrequentFixedSOA	1633	n/a	n/a	1
318.9570000000	n/a	318957	FrequentFixedSOA	1633	n/a	n/a	1
320.5910000000	n/a	320591	FrequentFixedSOA	1633	n/a	n/a	1
322.2240000000	n/a	322224	FrequentFixedSOA	1633	n/a	n/a	1
323.8570000000	n/a	323857	NovelFixedSOA	1633	n/a	n/a	1
325.4910000000	n/a	325491	FrequentFixedSOA	1633	n/a	n/a	1
327.1240000000	n/a	327124	FrequentFixedSOA	1633	n/a	n/a	1
328.7570000000	n/a	328757	GoFixedSOA	404	n/a	n/a	1
330.3910000000	n/a	330391	FrequentFixedSOA	1633	n/a	n/a	1
332.0240000000	n/a	332024	FrequentFixedSOA	1633	n/a	n/a	1
333.6570000000	n/a	333657	FrequentFixedSOA	1633	n/a	n/a	1
335.2910000000	n/a	335291	FrequentFixedSOA	1633	n/a	n/a	1
336.9240000000	n/a	336924	NovelFixedSOA	1633	n/a	n/a	1
338.5570000000	n/a	338557	FrequentFixedSOA	1633	n/a	n/a	1
340.1910000000	n/a	340191	FrequentFixedSOA	1633	n/a	n/a	1
341.8240000000	n/a	341824	FrequentFixedSOA	1633	n/a	n/a	1
343.4570000000	n/a	343457	FrequentFixedSOA	1633	n/a	n/a	1
345.0910000000	n/a	345091	FrequentFixedSOA	1633	n/a	n/a	1
346.7240000000	n/a	346724	FrequentVariableSOA	1633	n/a	n/a	1
348.3570000000	n/a	348357	FrequentVariableSOA	1550	n/a	n/a	1
349.9070000000	n/a	349907	FrequentVariableSOA	1616	n/a	n/a	1
351.5240000000	n/a	351524	GoVariableSOA	422	n/a	n/a	1
353.2070000000	n/a	353207	FrequentVariableSOA	1683	n/a	n/a	1
354.8910000000	n/a	354891	FrequentVariableSOA	1650	n/a	n/a	1
356.5410000000	n/a	356541	FrequentVariableSOA	1583	n/a	n/a	1
358.1240000000	n/a	358124	GoVariableSOA	592	n/a	n/a	1
359.7570000000	n/a	359757	FrequentVariableSOA	1516	n/a	n/a	1
361.2740000000	n/a	361274	FrequentVariableSOA	1750	n/a	n/a	1
363.0240000000	n/a	363024	FrequentVariableSOA	1566	n/a	n/a	1
364.5910000000	n/a	364591	NovelVariableSOA	1800	n/a	n/a	1
366.3910000000	n/a	366391	FrequentVariableSOA	1650	n/a	n/a	1
368.0410000000	n/a	368041	NovelVariableSOA	1700	n/a	n/a	1
369.7410000000	n/a	369741	FrequentVariableSOA	1716	n/a	n/a	1
371.4570000000	n/a	371457	FrequentVariableSOA	1616	n/a	n/a	1
373.0740000000	n/a	373074	NovelVariableSOA	1666	n/a	n/a	1
374.7410000000	n/a	374741	FrequentVariableSOA	1666	n/a	n/a	1
376.4070000000	n/a	376407	FrequentVariableSOA	1516	n/a	n/a	1
377.9240000000	n/a	377924	FrequentVariableSOA	1633	n/a	n/a	1
379.5570000000	n/a	379557	FrequentVariableSOA	1683	n/a	n/a	1
381.2410000000	n/a	381241	FrequentVariableSOA	1700	n/a	n/a	1
382.9410000000	n/a	382941	NovelVariableSOA	1716	n/a	n/a	1
384.6570000000	n/a	384657	FrequentVariableSOA	1550	n/a	n/a	1
386.2070000000	n/a	386207	FrequentVariableSOA	1666	n/a	n/a	1
387.8740000000	n/a	387874	FrequentVariableSOA	1616	n/a	n/a	1
389.4910000000	n/a	389491	FrequentVariableSOA	1750	n/a	n/a	1
391.2410000000	n/a	391241	FrequentVariableSOA	1783	n/a	n/a	1
393.0240000000	n/a	393024	GoVariableSOA	1766	n/a	n/a	0
394.7910000000	n/a	394791	FrequentVariableSOA	1583	n/a	n/a	1
396.3740000000	n/a	396374	FrequentVariableSOA	1766	n/a	n/a	1
398.1410000000	n/a	398141	GoVariableSOA	373	n/a	n/a	1
399.8240000000	n/a	399824	FrequentVariableSOA	1516	n/a	n/a	1
401.3410000000	n/a	401341	NovelVariableSOA	1500	n/a	n/a	1
402.8410000000	n/a	402841	FrequentVariableSOA	1550	n/a	n/a	1
404.3910000000	n/a	404391	GoVariableSOA	381	n/a	n/a	1
405.8910000000	n/a	405891	FrequentVariableSOA	1766	n/a	n/a	1
407.6570000000	n/a	407657	GoVariableSOA	424	n/a	n/a	1
409.2410000000	n/a	409241	FrequentVariableSOA	1716	n/a	n/a	1
410.9570000000	n/a	410957	FrequentVariableSOA	1566	n/a	n/a	1
412.5240000000	n/a	412524	FrequentVariableSOA	1566	n/a	n/a	1
414.0910000000	n/a	414091	FrequentVariableSOA	1566	n/a	n/a	1
415.6570000000	n/a	415657	GoVariableSOA	528	n/a	n/a	1
417.2740000000	n/a	417274	FrequentVariableSOA	1716	n/a	n/a	1
418.9910000000	n/a	418991	FrequentVariableSOA	1716	n/a	n/a	1
420.7070000000	n/a	420707	FrequentVariableSOA	1650	n/a	n/a	1
422.3570000000	n/a	422357	NovelVariableSOA	1550	n/a	n/a	1
423.9070000000	n/a	423907	FrequentVariableSOA	1650	n/a	n/a	1
425.5570000000	n/a	425557	FrequentVariableSOA	1666	n/a	n/a	1
427.2240000000	n/a	427224	FrequentVariableSOA	1666	n/a	n/a	1
428.8910000000	n/a	428891	FrequentVariableSOA	1650	n/a	n/a	1
430.5410000000	n/a	430541	NovelVariableSOA	1766	n/a	n/a	1
432.3070000000	n/a	432307	FrequentVariableSOA	1666	n/a	n/a	1
433.9740000000	n/a	433974	FrequentVariableSOA	1600	n/a	n/a	1
435.5740000000	n/a	435574	FrequentVariableSOA	1616	n/a	n/a	1
437.1910000000	n/a	437191	FrequentVariableSOA	1766	n/a	n/a	1
438.9570000000	n/a	438957	NovelVariableSOA	1700	n/a	n/a	1
440.6570000000	n/a	440657	FrequentVariableSOA	1633	n/a	n/a	1
442.2910000000	n/a	442291	FrequentVariableSOA	1616	n/a	n/a	1
443.9070000000	n/a	443907	GoVariableSOA	457	n/a	n/a	1
445.4570000000	n/a	445457	FrequentVariableSOA	1716	n/a	n/a	1
447.1740000000	n/a	447174	FrequentVariableSOA	1700	n/a	n/a	1
448.8740000000	n/a	448874	FrequentVariableSOA	1516	n/a	n/a	1
450.3910000000	n/a	450391	FrequentVariableSOA	1583	n/a	n/a	1
451.9740000000	n/a	451974	NovelVariableSOA	1516	n/a	n/a	1
453.4910000000	n/a	453491	FrequentVariableSOA	1750	n/a	n/a	1
455.2410000000	n/a	455241	FrequentVariableSOA	1783	n/a	n/a	1
457.0240000000	n/a	457024	FrequentVariableSOA	1683	n/a	n/a	1
458.7070000000	n/a	458707	FrequentVariableSOA	1766	n/a	n/a	1
460.4740000000	n/a	460474	FrequentVariableSOA	1533	n/a	n/a	1
462.0070000000	n/a	462007	GoFixedSOA	481	n/a	n/a	1
463.6410000000	n/a	463641	FrequentFixedSOA	1633	n/a	n/a	1
465.2740000000	n/a	465274	FrequentFixedSOA	1633	n/a	n/a	1
466.9070000000	n/a	466907	FrequentFixedSOA	1633	n/a	n/a	1
468.5400000000	n/a	468540	FrequentFixedSOA	1633	n/a	n/a	1
470.1740000000	n/a	470174	FrequentFixedSOA	1633	n/a	n/a	1
471.8070000000	n/a	471807	FrequentFixedSOA	1633	n/a	n/a	1
473.4400000000	n/a	473440	NovelFixedSOA	1633	n/a	n/a	1
475.0740000000	n/a	475074	FrequentFixedSOA	1633	n/a	n/a	1
476.7070000000	n/a	476707	FrequentFixedSOA	1633	n/a	n/a	1
478.3400000000	n/a	478340	FrequentFixedSOA	1633	n/a	n/a	1
479.9740000000	n/a	479974	NovelFixedSOA	1633	n/a	n/a	1
481.6070000000	n/a	481607	FrequentFixedSOA	1633	n/a	n/a	1
483.2400000000	n/a	483240	GoFixedSOA	409	n/a	n/a	1
484.8740000000	n/a	484874	FrequentFixedSOA	1633	n/a	n/a	1
486.5070000000	n/a	486507	FrequentFixedSOA	1633	n/a	n/a	1
488.1400000000	n/a	488140	GoFixedSOA	350	n/a	n/a	1
489.7740000000	n/a	489774	FrequentFixedSOA	1633	n/a	n/a	1
491.4070000000	n/a	491407	NovelFixedSOA	1633	n/a	n/a	1
493.0400000000	n/a	493040	FrequentFixedSOA	1633	n/a	n/a	1
494.6740000000	n/a	494674	FrequentFixedSOA	588	n/a	n/a	0
496.3070000000	n/a	496307	FrequentFixedSOA	1633	n/a	n/a	1
497.9400000000	n/a	497940	FrequentFixedSOA	1633	n/a	n/a	1
499.5740000000	n/a	499574	FrequentFixedSOA	1633	n/a	n/a	1
501.2070000000	n/a	501207	GoFixedSOA	540	n/a	n/a	1
502.8400000000	n/a	502840	FrequentFixedSOA	1633	n/a	n/a	1
504.4740000000	n/a	504474	FrequentFixedSOA	1633	n/a	n/a	1
506.1070000000	n/a	506107	NovelFixedSOA	1633	n/a	n/a	1
507.7400000000	n/a	507740	FrequentFixedSOA	1633	n/a	n/a	1
509.3740000000	n/a	509374	FrequentFixedSOA	1633	n/a	n/a	1
511.0070000000	n/a	511007	FrequentFixedSOA	1633	n/a	n/a	1
512.6400000000	n/a	512640	FrequentFixedSOA	1633	n/a	n/a	1
514.2740000000	n/a	514274	FrequentFixedSOA	1633	n/a	n/a	1
515.9070000000	n/a	515907	NovelFixedSOA	1633	n/a	n/a	1
517.5400000000	n/a	517540	FrequentFixedSOA	1633	n/a	n/a	1
519.1740000000	n/a	519174	FrequentFixedSOA	1633	n/a	n/a	1
520.8070000000	n/a	520807	FrequentFixedSOA	1633	n/a	n/a	1
522.4400000000	n/a	522440	FrequentFixedSOA	1633	n/a	n/a	1
524.0740000000	n/a	524074	GoFixedSOA	364	n/a	n/a	1
525.7070000000	n/a	525707	FrequentFixedSOA	1633	n/a	n/a	1
527.3400000000	n/a	527340	FrequentFixedSOA	1633	n/a	n/a	1
528.9740000000	n/a	528974	NovelFixedSOA	1633	n/a	n/a	1
530.6070000000	n/a	530607	FrequentFixedSOA	1633	n/a	n/a	1
532.2400000000	n/a	532240	FrequentFixedSOA	1633	n/a	n/a	1
533.8740000000	n/a	533874	NovelFixedSOA	1633	n/a	n/a	1
535.5070000000	n/a	535507	FrequentFixedSOA	1633	n/a	n/a	1
537.1400000000	n/a	537140	FrequentFixedSOA	1633	n/a	n/a	1
538.7740000000	n/a	538774	FrequentFixedSOA	1633	n/a	n/a	1
540.4070000000	n/a	540407	FrequentFixedSOA	1633	n/a	n/a	1
542.0400000000	n/a	542040	FrequentFixedSOA	1633	n/a	n/a	1
543.6740000000	n/a	543674	GoFixedSOA	425	n/a	n/a	1
545.3070000000	n/a	545307	FrequentFixedSOA	1633	n/a	n/a	1
546.9400000000	n/a	546940	FrequentFixedSOA	1633	n/a	n/a	1
548.5740000000	n/a	548574	FrequentFixedSOA	1633	n/a	n/a	1
550.2070000000	n/a	550207	FrequentFixedSOA	1633	n/a	n/a	1
551.8400000000	n/a	551840	FrequentFixedSOA	1633	n/a	n/a	1
553.4740000000	n/a	553474	NovelFixedSOA	1633	n/a	n/a	1
555.1070000000	n/a	555107	FrequentFixedSOA	1633	n/a	n/a	1
556.7400000000	n/a	556740	GoFixedSOA	1633	n/a	n/a	0
558.3740000000	n/a	558374	FrequentFixedSOA	1633	n/a	n/a	1
560.0070000000	n/a	560007	FrequentFixedSOA	1633	n/a	n/a	1
561.6400000000	n/a	561640	FrequentFixedSOA	1633	n/a	n/a	1
563.2740000000	n/a	563274	FrequentFixedSOA	1633	n/a	n/a	1
564.9070000000	n/a	564907	FrequentFixedSOA	1633	n/a	n/a	1
566.5400000000	n/a	566540	FrequentFixedSOA	1633	n/a	n/a	1
568.1740000000	n/a	568174	FrequentFixedSOA	1633	n/a	n/a	1
569.8070000000	n/a	569807	FrequentFixedSOA	1633	n/a	n/a	1
571.4400000000	n/a	571440	NovelFixedSOA	1633	n/a	n/a	1
573.0740000000	n/a	573074	FrequentFixedSOA	1633	n/a	n/a	1
574.7070000000	n/a	574707	FrequentFixedSOA	1633	n/a	n/a	1
576.3400000000	n/a	576340	GoVariableSOA	379	n/a	n/a	1
578.1070000000	n/a	578107	FrequentVariableSOA	1583	n/a	n/a	1
579.6900000000	n/a	579690	FrequentVariableSOA	1783	n/a	n/a	1
581.4740000000	n/a	581474	FrequentVariableSOA	1666	n/a	n/a	1
583.1400000000	n/a	583140	FrequentVariableSOA	1733	n/a	n/a	1
584.8740000000	n/a	584874	FrequentVariableSOA	1550	n/a	n/a	1
586.4240000000	n/a	586424	FrequentVariableSOA	1766	n/a	n/a	1
588.1900000000	n/a	588190	NovelVariableSOA	1516	n/a	n/a	1
589.7070000000	n/a	589707	FrequentVariableSOA	1683	n/a	n/a	1
591.3900000000	n/a	591390	FrequentVariableSOA	1533	n/a	n/a	1
592.9240000000	n/a	592924	FrequentVariableSOA	1583	n/a	n/a	1
594.5070000000	n/a	594507	NovelVariableSOA	1683	n/a	n/a	1
596.1900000000	n/a	596190	FrequentVariableSOA	1616	n/a	n/a	1
597.8070000000	n/a	597807	GoVariableSOA	462	n/a	n/a	1
599.3900000000	n/a	599390	FrequentVariableSOA	1650	n/a	n/a	1
601.0400000000	n/a	601040	FrequentVariableSOA	1783	n/a	n/a	1
602.8240000000	n/a	602824	GoVariableSOA	643	n/a	n/a	1
604.4900000000	n/a	604490	FrequentVariableSOA	1800	n/a	n/a	1
606.2900000000	n/a	606290	NovelVariableSOA	1733	n/a	n/a	1
608.0240000000	n/a	608024	FrequentVariableSOA	1583	n/a	n/a	1
609.6070000000	n/a	609607	FrequentVariableSOA	1583	n/a	n/a	1
611.1900000000	n/a	611190	FrequentVariableSOA	1683	n/a	n/a	1
612.8740000000	n/a	612874	FrequentVariableSOA	1666	n/a	n/a	1
614.5400000000	n/a	614540	FrequentVariableSOA	1750	n/a	n/a	1
616.2900000000	n/a	616290	GoVariableSOA	389	n/a	n/a	1
618.0070000000	n/a	618007	FrequentVariableSOA	1533	n/a	n/a	1
619.5400000000	n/a	619540	FrequentVariableSOA	1633	n/a	n/a	1
621.1740000000	n/a	621174	NovelVariableSOA	1750	n/a	n/a	1
622.9240000000	n/a	622924	FrequentVariableSOA	1566	n/a	n/a	1
624.4900000000	n/a	624490	FrequentVariableSOA	1550	n/a	n/a	1
626.0400000000	n/a	626040	FrequentVariableSOA	1700	n/a	n/a	1
627.7400000000	n/a	627740	FrequentVariableSOA	1700	n/a	n/a	1
629.4400000000	n/a	629440	FrequentVariableSOA	1783	n/a	n/a	1
631.2240000000	n/a	631224	NovelVariableSOA	1683	n/a	n/a	1
632.9070000000	n/a	632907	FrequentVariableSOA	1683	n/a	n/a	1
634.5900000000	n/a	634590	FrequentVariableSOA	1783	n/a	n/a	1
636.3740000000	n/a	636374	FrequentVariableSOA	1666	n/a	n/a	1
638.0400000000	n/a	638040	FrequentVariableSOA	1750	n/a	n/a	1
639.7900000000	n/a	639790	GoVariableSOA	593	n/a	n/a	1
641.5070000000	n/a	641507	FrequentVariableSOA	1616	n/a	n/a	1
643.1240000000	n/a	643124	FrequentVariableSOA	1500	n/a	n/a	1
644.6240000000	n/a	644624	NovelVariableSOA	1700	n/a	n/a	1
646.3240000000	n/a	646324	FrequentVariableSOA	1716	n/a	n/a	1
648.0400000000	n/a	648040	FrequentVariableSOA	1716	n/a	n/a	1
649.7570000000	n/a	649757	NovelVariableSOA	1500	n/a	n/a	1
651.2570000000	n/a	651257	FrequentVariableSOA	1566	n/a	n/a	1
652.8240000000	n/a	652824	FrequentVariableSOA	1516	n/a	n/a	1
654.3400000000	n/a	654340	FrequentVariableSOA	1600	n/a	n/a	1
655.9400000000	n/a	655940	FrequentVariableSOA	1550	n/a	n/a	1
657.4900000000	n/a	657490	FrequentVariableSOA	1666	n/a	n/a	1
659.1570000000	n/a	659157	GoVariableSOA	592	n/a	n/a	1
660.9070000000	n/a	660907	FrequentVariableSOA	1583	n/a	n/a	1
662.4900000000	n/a	662490	FrequentVariableSOA	1516	n/a	n/a	1
664.0070000000	n/a	664007	FrequentVariableSOA	1583	n/a	n/a	1
665.5900000000	n/a	665590	FrequentVariableSOA	1783	n/a	n/a	1
667.3740000000	n/a	667374	FrequentVariableSOA	1600	n/a	n/a	1
668.9740000000	n/a	668974	NovelVariableSOA	1583	n/a	n/a	1
670.5570000000	n/a	670557	FrequentVariableSOA	1566	n/a	n/a	1
672.1240000000	n/a	672124	GoVariableSOA	454	n/a	n/a	1
673.7070000000	n/a	673707	FrequentVariableSOA	1750	n/a	n/a	1
675.4570000000	n/a	675457	FrequentVariableSOA	1800	n/a	n/a	1
677.2570000000	n/a	677257	FrequentVariableSOA	1516	n/a	n/a	1
678.7740000000	n/a	678774	FrequentVariableSOA	1550	n/a	n/a	1
680.3240000000	n/a	680324	FrequentVariableSOA	1733	n/a	n/a	1
682.0570000000	n/a	682057	FrequentVariableSOA	1750	n/a	n/a	1
683.8070000000	n/a	683807	FrequentVariableSOA	1633	n/a	n/a	1
685.4400000000	n/a	685440	FrequentVariableSOA	1733	n/a	n/a	1
687.1730000000	n/a	687173	NovelVariableSOA	1766	n/a	n/a	1
688.9400000000	n/a	688940	FrequentVariableSOA	1633	n/a	n/a	1
690.5730000000	n/a	690573	FrequentVariableSOA	1516	n/a	n/a	1
692.0900000000	n/a	692090	GoFixedSOA	501	n/a	n/a	1
693.7230000000	n/a	693723	FrequentFixedSOA	1633	n/a	n/a	1
695.3570000000	n/a	695357	FrequentFixedSOA	1633	n/a	n/a	1
696.9900000000	n/a	696990	FrequentFixedSOA	1633	n/a	n/a	1
698.6230000000	n/a	698623	GoFixedSOA	582	n/a	n/a	1
700.2570000000	n/a	700257	FrequentFixedSOA	1633	n/a	n/a	1
701.8900000000	n/a	701890	FrequentFixedSOA	1633	n/a	n/a	1
703.5230000000	n/a	703523	FrequentFixedSOA	1633	n/a	n/a	1
705.1570000000	n/a	705157	FrequentFixedSOA	1633	n/a	n/a	1
706.7900000000	n/a	706790	GoFixedSOA	539	n/a	n/a	1
708.4230000000	n/a	708423	FrequentFixedSOA	1633	n/a	n/a	1
710.0570000000	n/a	710057	FrequentFixedSOA	1633	n/a	n/a	1
711.6900000000	n/a	711690	NovelFixedSOA	1633	n/a	n/a	1
713.3230000000	n/a	713323	FrequentFixedSOA	1633	n/a	n/a	1
714.9570000000	n/a	714957	FrequentFixedSOA	1633	n/a	n/a	1
716.5900000000	n/a	716590	GoFixedSOA	356	n/a	n/a	1
718.2230000000	n/a	718223	FrequentFixedSOA	1633	n/a	n/a	1
719.8570000000	n/a	719857	FrequentFixedSOA	1633	n/a	n/a	1
721.4900000000	n/a	721490	FrequentFixedSOA	1633	n/a	n/a	1
723.1230000000	n/a	723123	NovelFixedSOA	1633	n/a	n/a	1
724.7570000000	n/a	724757	FrequentFixedSOA	1633	n/a	n/a	1
726.3900000000	n/a	726390	NovelFixedSOA	1633	n/a	n/a	1
728.0230000000	n/a	728023	FrequentFixedSOA	1633	n/a	n/a	1
729.6570000000	n/a	729657	FrequentFixedSOA	1633	n/a	n/a	1
731.2900000000	n/a	731290	FrequentFixedSOA	1633	n/a	n/a	1
732.9230000000	n/a	732923	GoFixedSOA	516	n/a	n/a	1
734.5570000000	n/a	734557	FrequentFixedSOA	1633	n/a	n/a	1
736.1900000000	n/a	736190	FrequentFixedSOA	1633	n/a	n/a	1
737.8230000000	n/a	737823	FrequentFixedSOA	1633	n/a	n/a	1
739.4570000000	n/a	739457	GoFixedSOA	598	n/a	n/a	1
741.0900000000	n/a	741090	FrequentFixedSOA	1633	n/a	n/a	1
742.7230000000	n/a	742723	FrequentFixedSOA	1633	n/a	n/a	1
744.3570000000	n/a	744357	NovelFixedSOA	1633	n/a	n/a	1
745.9900000000	n/a	745990	FrequentFixedSOA	1633	n/a	n/a	1
747.6230000000	n/a	747623	GoFixedSOA	463	n/a	n/a	1
749.2570000000	n/a	749257	FrequentFixedSOA	1633	n/a	n/a	1
750.8900000000	n/a	750890	FrequentFixedSOA	1633	n/a	n/a	1
752.5230000000	n/a	752523	FrequentFixedSOA	1633	n/a	n/a	1
754.1570000000	n/a	754157	FrequentFixedSOA	1633	n/a	n/a	1
755.7900000000	n/a	755790	FrequentFixedSOA	1633	n/a	n/a	1
757.4230000000	n/a	757423	FrequentFixedSOA	1633	n/a	n/a	1
759.0570000000	n/a	759057	NovelFixedSOA	1633	n/a	n/a	1
760.6900000000	n/a	760690	FrequentFixedSOA	1633	n/a	n/a	1
762.3230000000	n/a	762323	FrequentFixedSOA	1633	n/a	n/a	1
763.9570000000	n/a	763957	FrequentFixedSOA	1633	n/a	n/a	1
765.5900000000	n/a	765590	GoFixedSOA	466	n/a	n/a	1
767.2230000000	n/a	767223	FrequentFixedSOA	1633	n/a	n/a	1
768.8570000000	n/a	768857	FrequentFixedSOA	1633	n/a	n/a	1
770.4900000000	n/a	770490	FrequentFixedSOA	1633	n/a	n/a	1
772.1230000000	n/a	772123	FrequentFixedSOA	1633	n/a	n/a	1
773.7570000000	n/a	773757	NovelFixedSOA	1633	n/a	n/a	1
775.3900000000	n/a	775390	FrequentFixedSOA	1633	n/a	n/a	1
777.0230000000	n/a	777023	FrequentFixedSOA	1633	n/a	n/a	1
778.6570000000	n/a	778657	NovelFixedSOA	1633	n/a	n/a	1
780.2900000000	n/a	780290	FrequentFixedSOA	1633	n/a	n/a	1
781.9230000000	n/a	781923	NovelFixedSOA	1633	n/a	n/a	1
783.5570000000	n/a	783557	FrequentFixedSOA	1633	n/a	n/a	1
785.1900000000	n/a	785190	FrequentFixedSOA	1633	n/a	n/a	1
786.8230000000	n/a	786823	FrequentFixedSOA	1633	n/a	n/a	1
788.4570000000	n/a	788457	FrequentFixedSOA	1633	n/a	n/a	1
790.0900000000	n/a	790090	FrequentFixedSOA	1633	n/a	n/a	1
791.7230000000	n/a	791723	FrequentFixedSOA	1633	n/a	n/a	1
793.3570000000	n/a	793357	FrequentFixedSOA	1633	n/a	n/a	1
794.9900000000	n/a	794990	GoFixedSOA	518	n/a	n/a	1
796.6230000000	n/a	796623	FrequentFixedSOA	1633	n/a	n/a	1
798.2570000000	n/a	798257	GoFixedSOA	598	n/a	n/a	1
799.8900000000	n/a	799890	FrequentFixedSOA	1633	n/a	n/a	1
801.5230000000	n/a	801523	FrequentFixedSOA	1633	n/a	n/a	1
803.1570000000	n/a	803157	NovelFixedSOA	1633	n/a	n/a	1
804.7900000000	n/a	804790	FrequentFixedSOA	1633	n/a	n/a	1
806.4230000000	n/a	806423	GoVariableSOA	599	n/a	n/a	1
808.1230000000	n/a	808123	FrequentVariableSOA	1716	n/a	n/a	1
809.8400000000	n/a	809840	FrequentVariableSOA	1583	n/a	n/a	1
811.4230000000	n/a	811423	FrequentVariableSOA	1733	n/a	n/a	1
813.1570000000	n/a	813157	GoVariableSOA	559	n/a	n/a	1
814.7230000000	n/a	814723	FrequentVariableSOA	1616	n/a	n/a	1
816.3400000000	n/a	816340	FrequentVariableSOA	1783	n/a	n/a	1
818.1230000000	n/a	818123	FrequentVariableSOA	1533	n/a	n/a	1
819.6570000000	n/a	819657	FrequentVariableSOA	1600	n/a	n/a	1
821.2570000000	n/a	821257	GoVariableSOA	483	n/a	n/a	1
822.8230000000	n/a	822823	FrequentVariableSOA	1566	n/a	n/a	1
824.3900000000	n/a	824390	FrequentVariableSOA	1783	n/a	n/a	1
826.1730000000	n/a	826173	NovelVariableSOA	1783	n/a	n/a	1
827.9570000000	n/a	827957	FrequentVariableSOA	1533	n/a	n/a	1
829.4900000000	n/a	829490	FrequentVariableSOA	1666	n/a	n/a	1
831.1570000000	n/a	831157	GoVariableSOA	580	n/a	n/a	1
832.8730000000	n/a	832873	FrequentVariableSOA	1533	n/a	n/a	1
834.4070000000	n/a	834407	FrequentVariableSOA	1766	n/a	n/a	1
836.1730000000	n/a	836173	FrequentVariableSOA	1516	n/a	n/a	1
837.6900000000	n/a	837690	NovelVariableSOA	1733	n/a	n/a	1
839.4230000000	n/a	839423	FrequentVariableSOA	1783	n/a	n/a	1
841.2070000000	n/a	841207	NovelVariableSOA	1533	n/a	n/a	1
842.7400000000	n/a	842740	FrequentVariableSOA	1650	n/a	n/a	1
844.3900000000	n/a	844390	FrequentVariableSOA	1666	n/a	n/a	1
846.0570000000	n/a	846057	FrequentVariableSOA	1750	n/a	n/a	1
847.8070000000	n/a	847807	GoVariableSOA	463	n/a	n/a	1
849.3400000000	n/a	849340	FrequentVariableSOA	1633	n/a	n/a	1
850.9730000000	n/a	850973	FrequentVariableSOA	1583	n/a	n/a	1
852.5570000000	n/a	852557	FrequentVariableSOA	1550	n/a	n/a	1
854.1070000000	n/a	854107	GoVariableSOA	510	n/a	n/a	1
855.7400000000	n/a	855740	FrequentVariableSOA	1650	n/a	n/a	1
857.3900000000	n/a	857390	FrequentVariableSOA	1750	n/a	n/a	1
859.1400000000	n/a	859140	NovelVariableSOA	1700	n/a	n/a	1
860.8400000000	n/a	860840	FrequentVariableSOA	1533	n/a	n/a	1
862.3730000000	n/a	862373	GoVariableSOA	488	n/a	n/a	1
863.9070000000	n/a	863907	FrequentVariableSOA	1633	n/a	n/a	1
865.5400000000	n/a	865540	FrequentVariableSOA	1550	n/a	n/a	1
867.0900000000	n/a	867090	FrequentVariableSOA	1716	n/a	n/a	1
868.8070000000	n/a	868807	FrequentVariableSOA	1566	n/a	n/a	1
870.3730000000	n/a	870373	FrequentVariableSOA	1800	n/a	n/a	1
872.1730000000	n/a	872173	FrequentVariableSOA	1533	n/a	n/a	1
873.7070000000	n/a	873707	NovelVariableSOA	1633	n/a	n/a	1
875.3400000000	n/a	875340	FrequentVariableSOA	1666	n/a	n/a	1
877.0070000000	n/a	877007	FrequentVariableSOA	1750	n/a	n/a	1
878.7570000000	n/a	878757	FrequentVariableSOA	1666	n/a	n/a	1
880.4230000000	n/a	880423	GoVariableSOA	418	n/a	n/a	1
881.9730000000	n/a	881973	FrequentVariableSOA	1783	n/a	n/a	1
883.7570000000	n/a	883757	FrequentVariableSOA	1650	n/a	n/a	1
885.4070000000	n/a	885407	FrequentVariableSOA	1750	n/a	n/a	1
887.1570000000	n/a	887157	FrequentVariableSOA	1533	n/a	n/a	1
888.6900000000	n/a	888690	NovelVariableSOA	1583	n/a	n/a	1
890.2730000000	n/a	890273	FrequentVariableSOA	1650	n/a	n/a	1
891.9230000000	n/a	891923	FrequentVariableSOA	1783	n/a	n/a	1
893.7070000000	n/a	893707	NovelVariableSOA	1666	n/a	n/a	1
895.3730000000	n/a	895373	FrequentVariableSOA	1666	n/a	n/a	1
897.0400000000	n/a	897040	NovelVariableSOA	1733	n/a	n/a	1
898.7730000000	n/a	898773	FrequentVariableSOA	1750	n/a	n/a	1
900.5230000000	n/a	900523	FrequentVariableSOA	1666	n/a	n/a	1
902.1900000000	n/a	902190	FrequentVariableSOA	1683	n/a	n/a	1
903.8730000000	n/a	903873	FrequentVariableSOA	1750	n/a	n/a	1
905.6230000000	n/a	905623	FrequentVariableSOA	1716	n/a	n/a	1
907.3400000000	n/a	907340	FrequentVariableSOA	1550	n/a	n/a	1
908.8900000000	n/a	908890	FrequentVariableSOA	1550	n/a	n/a	1
910.4400000000	n/a	910440	GoVariableSOA	571	n/a	n/a	1
911.9560000000	n/a	911956	FrequentVariableSOA	1633	n/a	n/a	1
913.5900000000	n/a	913590	GoVariableSOA	824	n/a	n/a	1
915.3230000000	n/a	915323	FrequentVariableSOA	1550	n/a	n/a	1
916.8730000000	n/a	916873	FrequentVariableSOA	1766	n/a	n/a	1
918.6400000000	n/a	918640	NovelVariableSOA	1516	n/a	n/a	1
920.1560000000	n/a	920156	FrequentVariableSOA	1583	n/a	n/a	1
