onset	duration	sample	trial_type	response_time	stim_file	value	correct
9.1340000000	n/a	9134	ignore	n/a	n/a	n/a	n/a
12.2340000000	n/a	12234	ignore	n/a	n/a	n/a	n/a
15.2470000000	n/a	15247	ignore	n/a	n/a	n/a	n/a
31.1000000000	n/a	31100	ignore	n/a	n/a	n/a	n/a
34.2000000000	n/a	34200	ignore	n/a	n/a	n/a	n/a
37.1870000000	n/a	37187	ignore	n/a	n/a	n/a	n/a
54.9840000000	n/a	54984	PosStim	n/a	n/a	n/a	n/a
58.0170000000	n/a	58017	PosNonAlcStimWithoutStartle	n/a	n/a	n/a	n/a
71.3340000000	n/a	71334	NegStim	n/a	n/a	n/a	n/a
74.3670000000	n/a	74367	NegNonAlcStimWithoutStartle	n/a	n/a	n/a	n/a
91.2000000000	n/a	91200	NeuStim	n/a	n/a	n/a	n/a
94.3000000000	n/a	94300	NeuNonAlcP2000	n/a	n/a	n/a	n/a
98.2870000000	n/a	98287	NeuNonAlcP2000	n/a	n/a	n/a	n/a
110.2670000000	n/a	110267	NegStim	n/a	n/a	n/a	n/a
113.3670000000	n/a	113367	NegAlcP2000	n/a	n/a	n/a	n/a
117.3540000000	n/a	117354	NegAlcP2000	n/a	n/a	n/a	n/a
127.5670000000	n/a	127567	NeuStim	n/a	n/a	n/a	n/a
130.6000000000	n/a	130600	NeuAlcStimWithoutStartle	n/a	n/a	n/a	n/a
147.4840000000	n/a	147484	PosStim	n/a	n/a	n/a	n/a
150.5840000000	n/a	150584	PosAlcP1000	n/a	n/a	n/a	n/a
155.5710000000	n/a	155571	PosAlcP1000	n/a	n/a	n/a	n/a
164.4170000000	n/a	164417	NeuStim	n/a	n/a	n/a	n/a
167.5170000000	n/a	167517	NeuAlcP2000	n/a	n/a	n/a	n/a
171.5040000000	n/a	171504	NeuAlcP2000	n/a	n/a	n/a	n/a
181.4840000000	n/a	181484	NegStim	n/a	n/a	n/a	n/a
184.5840000000	n/a	184584	NegAlcP3000	n/a	n/a	n/a	n/a
187.5710000000	n/a	187571	NegAlcP3000	n/a	n/a	n/a	n/a
201.2330000000	n/a	201233	PosStim	n/a	n/a	n/a	n/a
204.2670000000	n/a	204267	PosNonAlcStimWithoutStartle	n/a	n/a	n/a	n/a
217.8170000000	n/a	217817	NeuStim	n/a	n/a	n/a	n/a
220.9170000000	n/a	220917	NeuAlcP1000	n/a	n/a	n/a	n/a
225.9040000000	n/a	225904	NeuAlcP1000	n/a	n/a	n/a	n/a
236.2500000000	n/a	236250	NegStim	n/a	n/a	n/a	n/a
239.3500000000	n/a	239350	NegNonAlcP3000	n/a	n/a	n/a	n/a
242.3370000000	n/a	242337	NegNonAlcP3000	n/a	n/a	n/a	n/a
255.6170000000	n/a	255617	PosStim	n/a	n/a	n/a	n/a
258.7170000000	n/a	258717	PosAlcP2000	n/a	n/a	n/a	n/a
262.7040000000	n/a	262704	PosAlcP2000	n/a	n/a	n/a	n/a
272.2830000000	n/a	272283	NegStim	n/a	n/a	n/a	n/a
275.3170000000	n/a	275317	NegNonAlcStimWithoutStartle	n/a	n/a	n/a	n/a
290.3500000000	n/a	290350	PosStim	n/a	n/a	n/a	n/a
293.3830000000	n/a	293383	PosAlcStimWithoutStartle	n/a	n/a	n/a	n/a
308.8000000000	n/a	308800	NeuStim	n/a	n/a	n/a	n/a
311.9000000000	n/a	311900	NeuNonAlcP3000	n/a	n/a	n/a	n/a
314.8870000000	n/a	314887	NeuNonAlcP3000	n/a	n/a	n/a	n/a
326.7170000000	n/a	326717	NegStim	n/a	n/a	n/a	n/a
329.8170000000	n/a	329817	NegAlcP1000	n/a	n/a	n/a	n/a
334.8040000000	n/a	334804	NegAlcP1000	n/a	n/a	n/a	n/a
346.0330000000	n/a	346033	NeuStim	n/a	n/a	n/a	n/a
349.1330000000	n/a	349133	NeuAlcP3000	n/a	n/a	n/a	n/a
352.1200000000	n/a	352120	NeuAlcP3000	n/a	n/a	n/a	n/a
365.0830000000	n/a	365083	PosStim	n/a	n/a	n/a	n/a
368.1830000000	n/a	368183	PosAlcP3000	n/a	n/a	n/a	n/a
371.1700000000	n/a	371170	PosAlcP3000	n/a	n/a	n/a	n/a
383.2330000000	n/a	383233	NeuStim	n/a	n/a	n/a	n/a
386.2670000000	n/a	386267	NeuAlcStimWithoutStartle	n/a	n/a	n/a	n/a
400.7330000000	n/a	400733	NegStim	n/a	n/a	n/a	n/a
403.8330000000	n/a	403833	NegAlcP1000	n/a	n/a	n/a	n/a
408.8200000000	n/a	408820	NegAlcP1000	n/a	n/a	n/a	n/a
420.8500000000	n/a	420850	NeuStim	n/a	n/a	n/a	n/a
423.9500000000	n/a	423950	NeuNonAlcP3000	n/a	n/a	n/a	n/a
426.9370000000	n/a	426937	NeuNonAlcP3000	n/a	n/a	n/a	n/a
440.0000000000	n/a	440000	NegStim	n/a	n/a	n/a	n/a
443.1000000000	n/a	443100	NegNonAlcP2000	n/a	n/a	n/a	n/a
447.0870000000	n/a	447087	NegNonAlcP2000	n/a	n/a	n/a	n/a
456.7830000000	n/a	456783	PosStim	n/a	n/a	n/a	n/a
459.8160000000	n/a	459816	PosNonAlcStimWithoutStartle	n/a	n/a	n/a	n/a
474.1830000000	n/a	474183	NeuStim	n/a	n/a	n/a	n/a
477.2160000000	n/a	477216	NeuNonAlcStimWithoutStartle	n/a	n/a	n/a	n/a
493.0160000000	n/a	493016	PosStim	n/a	n/a	n/a	n/a
496.1160000000	n/a	496116	PosNonAlcP1000	n/a	n/a	n/a	n/a
501.1030000000	n/a	501103	PosNonAlcP1000	n/a	n/a	n/a	n/a
510.1160000000	n/a	510116	NegStim	n/a	n/a	n/a	n/a
513.1500000000	n/a	513150	NegAlcStimWithoutStartle	n/a	n/a	n/a	n/a
527.8660000000	n/a	527866	NeuStim	n/a	n/a	n/a	n/a
530.9660000000	n/a	530966	NeuAlcP2000	n/a	n/a	n/a	n/a
534.9530000000	n/a	534953	NeuAlcP2000	n/a	n/a	n/a	n/a
547.3330000000	n/a	547333	PosStim	n/a	n/a	n/a	n/a
550.4330000000	n/a	550433	PosNonAlcP1000	n/a	n/a	n/a	n/a
555.4200000000	n/a	555420	PosNonAlcP1000	n/a	n/a	n/a	n/a
563.6000000000	n/a	563600	NeuStim	n/a	n/a	n/a	n/a
566.7000000000	n/a	566700	NeuNonAlcP1000	n/a	n/a	n/a	n/a
571.6870000000	n/a	571687	NeuNonAlcP1000	n/a	n/a	n/a	n/a
582.8160000000	n/a	582816	PosStim	n/a	n/a	n/a	n/a
585.8500000000	n/a	585850	PosNonAlcStimWithoutStartle	n/a	n/a	n/a	n/a
599.4330000000	n/a	599433	NegStim	n/a	n/a	n/a	n/a
602.5330000000	n/a	602533	NegAlcP2000	n/a	n/a	n/a	n/a
606.5200000000	n/a	606520	NegAlcP2000	n/a	n/a	n/a	n/a
619.5660000000	n/a	619566	NeuStim	n/a	n/a	n/a	n/a
622.6660000000	n/a	622666	NeuAlcP3000	n/a	n/a	n/a	n/a
625.6530000000	n/a	625653	NeuAlcP3000	n/a	n/a	n/a	n/a
639.2490000000	n/a	639249	NegStim	n/a	n/a	n/a	n/a
642.2830000000	n/a	642283	NegAlcStimWithoutStartle	n/a	n/a	n/a	n/a
656.1160000000	n/a	656116	NeuStim	n/a	n/a	n/a	n/a
659.2160000000	n/a	659216	NeuNonAlcP2000	n/a	n/a	n/a	n/a
663.2030000000	n/a	663203	NeuNonAlcP2000	n/a	n/a	n/a	n/a
675.0660000000	n/a	675066	PosStim	n/a	n/a	n/a	n/a
678.1660000000	n/a	678166	PosNonAlcP3000	n/a	n/a	n/a	n/a
681.1530000000	n/a	681153	PosNonAlcP3000	n/a	n/a	n/a	n/a
692.2330000000	n/a	692233	NegStim	n/a	n/a	n/a	n/a
695.3330000000	n/a	695333	NegAlcP3000	n/a	n/a	n/a	n/a
698.3200000000	n/a	698320	NegAlcP3000	n/a	n/a	n/a	n/a
711.4990000000	n/a	711499	PosStim	n/a	n/a	n/a	n/a
714.5330000000	n/a	714533	PosAlcStimWithoutStartle	n/a	n/a	n/a	n/a
728.0990000000	n/a	728099	NegStim	n/a	n/a	n/a	n/a
731.1990000000	n/a	731199	NegAlcP1000	n/a	n/a	n/a	n/a
736.1860000000	n/a	736186	NegAlcP1000	n/a	n/a	n/a	n/a
745.4160000000	n/a	745416	PosStim	n/a	n/a	n/a	n/a
748.4490000000	n/a	748449	PosAlcStimWithoutStartle	n/a	n/a	n/a	n/a
763.7990000000	n/a	763799	NegStim	n/a	n/a	n/a	n/a
766.8990000000	n/a	766899	NegNonAlcP2000	n/a	n/a	n/a	n/a
770.8860000000	n/a	770886	NegNonAlcP2000	n/a	n/a	n/a	n/a
782.3830000000	n/a	782383	PosStim	n/a	n/a	n/a	n/a
785.4830000000	n/a	785483	PosAlcP2000	n/a	n/a	n/a	n/a
789.4700000000	n/a	789470	PosAlcP2000	n/a	n/a	n/a	n/a
801.8830000000	n/a	801883	NeuStim	n/a	n/a	n/a	n/a
804.9160000000	n/a	804916	NeuNonAlcStimWithoutStartle	n/a	n/a	n/a	n/a
820.8660000000	n/a	820866	PosStim	n/a	n/a	n/a	n/a
823.9660000000	n/a	823966	PosNonAlcP2000	n/a	n/a	n/a	n/a
827.9530000000	n/a	827953	PosNonAlcP2000	n/a	n/a	n/a	n/a
837.7990000000	n/a	837799	NegStim	n/a	n/a	n/a	n/a
840.8320000000	n/a	840832	NegAlcStimWithoutStartle	n/a	n/a	n/a	n/a
854.8490000000	n/a	854849	PosStim	n/a	n/a	n/a	n/a
857.9490000000	n/a	857949	PosAlcP3000	n/a	n/a	n/a	n/a
860.9360000000	n/a	860936	PosAlcP3000	n/a	n/a	n/a	n/a
873.3160000000	n/a	873316	PosStim	n/a	n/a	n/a	n/a
876.4160000000	n/a	876416	PosNonAlcP3000	n/a	n/a	n/a	n/a
879.4030000000	n/a	879403	PosNonAlcP3000	n/a	n/a	n/a	n/a
889.7660000000	n/a	889766	NeuStim	n/a	n/a	n/a	n/a
892.7990000000	n/a	892799	NeuNonAlcStimWithoutStartle	n/a	n/a	n/a	n/a
908.9820000000	n/a	908982	NeuStim	n/a	n/a	n/a	n/a
912.0820000000	n/a	912082	NeuNonAlcP3000	n/a	n/a	n/a	n/a
915.0690000000	n/a	915069	NeuNonAlcP3000	n/a	n/a	n/a	n/a
927.2660000000	n/a	927266	PosStim	n/a	n/a	n/a	n/a
930.3660000000	n/a	930366	PosAlcP2000	n/a	n/a	n/a	n/a
934.3530000000	n/a	934353	PosAlcP2000	n/a	n/a	n/a	n/a
946.4490000000	n/a	946449	NegStim	n/a	n/a	n/a	n/a
949.5490000000	n/a	949549	NegAlcP1000	n/a	n/a	n/a	n/a
954.5360000000	n/a	954536	NegAlcP1000	n/a	n/a	n/a	n/a
966.2160000000	n/a	966216	PosStim	n/a	n/a	n/a	n/a
969.3160000000	n/a	969316	PosNonAlcP2000	n/a	n/a	n/a	n/a
973.3030000000	n/a	973303	PosNonAlcP2000	n/a	n/a	n/a	n/a
985.8160000000	n/a	985816	NeuStim	n/a	n/a	n/a	n/a
988.8490000000	n/a	988849	NeuNonAlcStimWithoutStartle	n/a	n/a	n/a	n/a
1004.6990000000	n/a	1004699	NegStim	n/a	n/a	n/a	n/a
1007.7990000000	n/a	1007799	NegAlcP2000	n/a	n/a	n/a	n/a
1011.7860000000	n/a	1011786	NegAlcP2000	n/a	n/a	n/a	n/a
1023.7320000000	n/a	1023732	PosStim	n/a	n/a	n/a	n/a
1026.8320000000	n/a	1026832	PosAlcP3000	n/a	n/a	n/a	n/a
1029.8190000000	n/a	1029819	PosAlcP3000	n/a	n/a	n/a	n/a
1041.5150000000	n/a	1041515	NeuStim	n/a	n/a	n/a	n/a
1044.5490000000	n/a	1044549	NeuAlcStimWithoutStartle	n/a	n/a	n/a	n/a
1059.7650000000	n/a	1059765	NegStim	n/a	n/a	n/a	n/a
1062.8650000000	n/a	1062865	NegNonAlcP3000	n/a	n/a	n/a	n/a
1065.8520000000	n/a	1065852	NegNonAlcP3000	n/a	n/a	n/a	n/a
