onset	duration	sample	trial_type	response_time	stim_file	value	correct
3.3820000000	n/a	3382	ignore	n/a	n/a	n/a	n/a
6.4820000000	n/a	6482	ignore	n/a	n/a	n/a	n/a
9.4910000000	n/a	9491	ignore	n/a	n/a	n/a	n/a
25.3490000000	n/a	25349	ignore	n/a	n/a	n/a	n/a
28.4490000000	n/a	28449	ignore	n/a	n/a	n/a	n/a
31.4360000000	n/a	31436	ignore	n/a	n/a	n/a	n/a
47.7990000000	n/a	47799	NeuStim	n/a	n/a	n/a	n/a
50.8990000000	n/a	50899	NeuNonAlcP1000	n/a	n/a	n/a	n/a
55.8860000000	n/a	55886	NeuNonAlcP1000	n/a	n/a	n/a	n/a
64.3990000000	n/a	64399	PosStim	n/a	n/a	n/a	n/a
67.4320000000	n/a	67432	PosAlcStimWithoutStartle	n/a	n/a	n/a	n/a
80.5320000000	n/a	80532	NeuStim	n/a	n/a	n/a	n/a
83.6320000000	n/a	83632	NeuAlcP2000	n/a	n/a	n/a	n/a
87.6190000000	n/a	87619	NeuAlcP2000	n/a	n/a	n/a	n/a
98.3820000000	n/a	98382	NegStim	n/a	n/a	n/a	n/a
101.4820000000	n/a	101482	NegNonAlcP2000	n/a	n/a	n/a	n/a
105.4690000000	n/a	105469	NegNonAlcP2000	n/a	n/a	n/a	n/a
116.2150000000	n/a	116215	NeuStim	n/a	n/a	n/a	n/a
119.2490000000	n/a	119249	NeuNonAlcStimWithoutStartle	n/a	n/a	n/a	n/a
134.4150000000	n/a	134415	PosStim	n/a	n/a	n/a	n/a
137.5150000000	n/a	137515	PosNonAlcP1000	n/a	n/a	n/a	n/a
142.5020000000	n/a	142502	PosNonAlcP1000	n/a	n/a	n/a	n/a
151.1490000000	n/a	151149	NeuStim	n/a	n/a	n/a	n/a
154.2490000000	n/a	154249	NeuAlcP1000	n/a	n/a	n/a	n/a
159.2360000000	n/a	159236	NeuAlcP1000	n/a	n/a	n/a	n/a
168.2150000000	n/a	168215	NegStim	n/a	n/a	n/a	n/a
171.2490000000	n/a	171249	NegNonAlcStimWithoutStartle	n/a	n/a	n/a	n/a
186.2480000000	n/a	186248	NeuStim	n/a	n/a	n/a	n/a
189.3480000000	n/a	189348	NeuNonAlcP1000	n/a	n/a	n/a	n/a
194.3360000000	n/a	194336	NeuNonAlcP1000	n/a	n/a	n/a	n/a
205.8980000000	n/a	205898	NegStim	n/a	n/a	n/a	n/a
208.9980000000	n/a	208998	NegNonAlcP3000	n/a	n/a	n/a	n/a
211.9850000000	n/a	211985	NegNonAlcP3000	n/a	n/a	n/a	n/a
224.3320000000	n/a	224332	PosStim	n/a	n/a	n/a	n/a
227.4320000000	n/a	227432	PosNonAlcP3000	n/a	n/a	n/a	n/a
230.4190000000	n/a	230419	PosNonAlcP3000	n/a	n/a	n/a	n/a
241.7820000000	n/a	241782	NeuStim	n/a	n/a	n/a	n/a
244.8820000000	n/a	244882	NeuAlcP1000	n/a	n/a	n/a	n/a
249.8690000000	n/a	249869	NeuAlcP1000	n/a	n/a	n/a	n/a
261.3150000000	n/a	261315	NegStim	n/a	n/a	n/a	n/a
264.3480000000	n/a	264348	NegAlcStimWithoutStartle	n/a	n/a	n/a	n/a
279.2820000000	n/a	279282	PosStim	n/a	n/a	n/a	n/a
282.3150000000	n/a	282315	PosNonAlcStimWithoutStartle	n/a	n/a	n/a	n/a
298.8480000000	n/a	298848	NegStim	n/a	n/a	n/a	n/a
301.9480000000	n/a	301948	NegAlcP3000	n/a	n/a	n/a	n/a
304.9350000000	n/a	304935	NegAlcP3000	n/a	n/a	n/a	n/a
317.9320000000	n/a	317932	NeuStim	n/a	n/a	n/a	n/a
320.9650000000	n/a	320965	NeuAlcStimWithoutStartle	n/a	n/a	n/a	n/a
336.9480000000	n/a	336948	PosStim	n/a	n/a	n/a	n/a
340.0480000000	n/a	340048	PosNonAlcP1000	n/a	n/a	n/a	n/a
345.0350000000	n/a	345035	PosNonAlcP1000	n/a	n/a	n/a	n/a
354.1820000000	n/a	354182	NegStim	n/a	n/a	n/a	n/a
357.2820000000	n/a	357282	NegAlcP3000	n/a	n/a	n/a	n/a
360.2690000000	n/a	360269	NegAlcP3000	n/a	n/a	n/a	n/a
373.3480000000	n/a	373348	NegStim	n/a	n/a	n/a	n/a
376.3820000000	n/a	376382	NegNonAlcStimWithoutStartle	n/a	n/a	n/a	n/a
390.8480000000	n/a	390848	PosStim	n/a	n/a	n/a	n/a
393.9480000000	n/a	393948	PosAlcP1000	n/a	n/a	n/a	n/a
398.9350000000	n/a	398935	PosAlcP1000	n/a	n/a	n/a	n/a
410.6980000000	n/a	410698	NeuStim	n/a	n/a	n/a	n/a
413.7310000000	n/a	413731	NeuAlcStimWithoutStartle	n/a	n/a	n/a	n/a
430.5480000000	n/a	430548	NegStim	n/a	n/a	n/a	n/a
433.6480000000	n/a	433648	NegNonAlcP1000	n/a	n/a	n/a	n/a
438.6350000000	n/a	438635	NegNonAlcP1000	n/a	n/a	n/a	n/a
449.4150000000	n/a	449415	PosStim	n/a	n/a	n/a	n/a
452.5150000000	n/a	452515	PosAlcP3000	n/a	n/a	n/a	n/a
455.5020000000	n/a	455502	PosAlcP3000	n/a	n/a	n/a	n/a
468.2310000000	n/a	468231	NeuStim	n/a	n/a	n/a	n/a
471.3310000000	n/a	471331	NeuAlcP3000	n/a	n/a	n/a	n/a
474.3180000000	n/a	474318	NeuAlcP3000	n/a	n/a	n/a	n/a
487.8980000000	n/a	487898	NegStim	n/a	n/a	n/a	n/a
490.9310000000	n/a	490931	NegAlcStimWithoutStartle	n/a	n/a	n/a	n/a
504.1150000000	n/a	504115	PosStim	n/a	n/a	n/a	n/a
507.2150000000	n/a	507215	PosNonAlcP2000	n/a	n/a	n/a	n/a
511.2020000000	n/a	511202	PosNonAlcP2000	n/a	n/a	n/a	n/a
523.3310000000	n/a	523331	NegStim	n/a	n/a	n/a	n/a
526.4310000000	n/a	526431	NegAlcP2000	n/a	n/a	n/a	n/a
530.4180000000	n/a	530418	NegAlcP2000	n/a	n/a	n/a	n/a
542.2980000000	n/a	542298	PosStim	n/a	n/a	n/a	n/a
545.3980000000	n/a	545398	PosAlcP2000	n/a	n/a	n/a	n/a
549.3850000000	n/a	549385	PosAlcP2000	n/a	n/a	n/a	n/a
561.6150000000	n/a	561615	NeuStim	n/a	n/a	n/a	n/a
564.6480000000	n/a	564648	NeuAlcStimWithoutStartle	n/a	n/a	n/a	n/a
579.5150000000	n/a	579515	NegStim	n/a	n/a	n/a	n/a
582.6150000000	n/a	582615	NegNonAlcP1000	n/a	n/a	n/a	n/a
587.6020000000	n/a	587602	NegNonAlcP1000	n/a	n/a	n/a	n/a
596.6480000000	n/a	596648	NeuStim	n/a	n/a	n/a	n/a
599.7480000000	n/a	599748	NeuNonAlcP1000	n/a	n/a	n/a	n/a
604.7350000000	n/a	604735	NeuNonAlcP1000	n/a	n/a	n/a	n/a
613.9980000000	n/a	613998	PosStim	n/a	n/a	n/a	n/a
617.0980000000	n/a	617098	PosNonAlcP3000	n/a	n/a	n/a	n/a
620.0850000000	n/a	620085	PosNonAlcP3000	n/a	n/a	n/a	n/a
630.6150000000	n/a	630615	NeuStim	n/a	n/a	n/a	n/a
633.6480000000	n/a	633648	NeuNonAlcStimWithoutStartle	n/a	n/a	n/a	n/a
648.9640000000	n/a	648964	NegStim	n/a	n/a	n/a	n/a
651.9980000000	n/a	651998	NegNonAlcStimWithoutStartle	n/a	n/a	n/a	n/a
666.8480000000	n/a	666848	NeuStim	n/a	n/a	n/a	n/a
669.9480000000	n/a	669948	NeuNonAlcP3000	n/a	n/a	n/a	n/a
672.9350000000	n/a	672935	NeuNonAlcP3000	n/a	n/a	n/a	n/a
685.8480000000	n/a	685848	PosStim	n/a	n/a	n/a	n/a
688.9480000000	n/a	688948	PosAlcP1000	n/a	n/a	n/a	n/a
693.9350000000	n/a	693935	PosAlcP1000	n/a	n/a	n/a	n/a
704.9140000000	n/a	704914	NegStim	n/a	n/a	n/a	n/a
708.0140000000	n/a	708014	NegNonAlcP1000	n/a	n/a	n/a	n/a
713.0010000000	n/a	713001	NegNonAlcP1000	n/a	n/a	n/a	n/a
721.9810000000	n/a	721981	PosStim	n/a	n/a	n/a	n/a
725.0140000000	n/a	725014	PosNonAlcStimWithoutStartle	n/a	n/a	n/a	n/a
741.0980000000	n/a	741098	NeuStim	n/a	n/a	n/a	n/a
744.1980000000	n/a	744198	NeuAlcP2000	n/a	n/a	n/a	n/a
748.1850000000	n/a	748185	NeuAlcP2000	n/a	n/a	n/a	n/a
759.2640000000	n/a	759264	PosStim	n/a	n/a	n/a	n/a
762.3640000000	n/a	762364	PosAlcP1000	n/a	n/a	n/a	n/a
767.3510000000	n/a	767351	PosAlcP1000	n/a	n/a	n/a	n/a
777.2640000000	n/a	777264	NegStim	n/a	n/a	n/a	n/a
780.2980000000	n/a	780298	NegNonAlcStimWithoutStartle	n/a	n/a	n/a	n/a
797.0480000000	n/a	797048	PosStim	n/a	n/a	n/a	n/a
800.1480000000	n/a	800148	PosNonAlcP2000	n/a	n/a	n/a	n/a
804.1350000000	n/a	804135	PosNonAlcP2000	n/a	n/a	n/a	n/a
814.4310000000	n/a	814431	NegStim	n/a	n/a	n/a	n/a
817.5310000000	n/a	817531	NegNonAlcP3000	n/a	n/a	n/a	n/a
820.5180000000	n/a	820518	NegNonAlcP3000	n/a	n/a	n/a	n/a
834.2810000000	n/a	834281	NeuStim	n/a	n/a	n/a	n/a
837.3810000000	n/a	837381	NeuNonAlcP2000	n/a	n/a	n/a	n/a
841.3680000000	n/a	841368	NeuNonAlcP2000	n/a	n/a	n/a	n/a
850.6310000000	n/a	850631	NegStim	n/a	n/a	n/a	n/a
853.6640000000	n/a	853664	NegAlcStimWithoutStartle	n/a	n/a	n/a	n/a
868.6970000000	n/a	868697	PosStim	n/a	n/a	n/a	n/a
871.7310000000	n/a	871731	PosAlcStimWithoutStartle	n/a	n/a	n/a	n/a
888.7310000000	n/a	888731	NeuStim	n/a	n/a	n/a	n/a
891.8310000000	n/a	891831	NeuAlcP3000	n/a	n/a	n/a	n/a
894.8180000000	n/a	894818	NeuAlcP3000	n/a	n/a	n/a	n/a
907.2640000000	n/a	907264	NegStim	n/a	n/a	n/a	n/a
910.3640000000	n/a	910364	NegNonAlcP1000	n/a	n/a	n/a	n/a
915.3510000000	n/a	915351	NegNonAlcP1000	n/a	n/a	n/a	n/a
924.3140000000	n/a	924314	NeuStim	n/a	n/a	n/a	n/a
927.4140000000	n/a	927414	NeuNonAlcP2000	n/a	n/a	n/a	n/a
931.4010000000	n/a	931401	NeuNonAlcP2000	n/a	n/a	n/a	n/a
942.2810000000	n/a	942281	PosStim	n/a	n/a	n/a	n/a
945.3140000000	n/a	945314	PosAlcStimWithoutStartle	n/a	n/a	n/a	n/a
960.6810000000	n/a	960681	NegStim	n/a	n/a	n/a	n/a
963.7810000000	n/a	963781	NegNonAlcP2000	n/a	n/a	n/a	n/a
967.7680000000	n/a	967768	NegNonAlcP2000	n/a	n/a	n/a	n/a
979.7970000000	n/a	979797	NeuStim	n/a	n/a	n/a	n/a
982.8970000000	n/a	982897	NeuAlcP1000	n/a	n/a	n/a	n/a
987.8840000000	n/a	987884	NeuAlcP1000	n/a	n/a	n/a	n/a
