onset	duration	sample	trial_type	response_time	stim_file	value	correct
6.7540000000	n/a	6754	ignore	4562	n/a	n/a	1
12.3870000000	n/a	12387	ignore	1000	n/a	n/a	1
14.3870000000	n/a	14387	ignore	1700	n/a	n/a	1
16.0870000000	n/a	16087	ignore	3447	n/a	n/a	1
20.6040000000	n/a	20604	ignore	1000	n/a	n/a	1
22.6040000000	n/a	22604	ignore	1700	n/a	n/a	1
24.3040000000	n/a	24304	ignore	4497	n/a	n/a	1
29.8710000000	n/a	29871	ignore	1000	n/a	n/a	1
31.8710000000	n/a	31871	ignore	1700	n/a	n/a	1
33.5710000000	n/a	33571	ignore	3977	n/a	n/a	1
38.6210000000	n/a	38621	ignore	1000	n/a	n/a	1
40.6210000000	n/a	40621	ignore	1700	n/a	n/a	1
42.3210000000	n/a	42321	ignore	1353	n/a	n/a	0
44.7370000000	n/a	44737	ignore	1000	n/a	n/a	1
46.7370000000	n/a	46737	ignore	1700	n/a	n/a	1
48.4370000000	n/a	48437	ignore	4303	n/a	n/a	0
53.8040000000	n/a	53804	ignore	1000	n/a	n/a	1
55.8040000000	n/a	55804	ignore	1700	n/a	n/a	1
57.5040000000	n/a	57504	ignore	5482	n/a	n/a	1
64.0540000000	n/a	64054	ignore	1000	n/a	n/a	1
66.0540000000	n/a	66054	ignore	1700	n/a	n/a	1
67.7540000000	n/a	67754	ignore	7632	n/a	n/a	1
76.4540000000	n/a	76454	ignore	1000	n/a	n/a	1
78.4540000000	n/a	78454	ignore	1700	n/a	n/a	1
80.1540000000	n/a	80154	ignore	8311	n/a	n/a	1
88.5370000000	n/a	88537	ignore 	2000	n/a	n/a	1
98.7870000000	n/a	98787	ignore	1000	n/a	n/a	1
100.7870000000	n/a	100787	ignore	1700	n/a	n/a	1
102.4870000000	n/a	102487	ignore	3805	n/a	n/a	1
107.3710000000	n/a	107371	ignore	1000	n/a	n/a	1
109.3710000000	n/a	109371	ignore	1700	n/a	n/a	1
111.0710000000	n/a	111071	ignore	2589	n/a	n/a	1
114.7370000000	n/a	114737	ignore	1000	n/a	n/a	1
116.7370000000	n/a	116737	ignore	1700	n/a	n/a	1
118.4370000000	n/a	118437	ignore	1560	n/a	n/a	0
121.0710000000	n/a	121071	ignore	1000	n/a	n/a	1
123.0710000000	n/a	123071	ignore	1700	n/a	n/a	1
124.7700000000	n/a	124770	ignore	1224	n/a	n/a	0
127.0700000000	n/a	127070	ignore	1000	n/a	n/a	1
129.0710000000	n/a	129071	ignore	1700	n/a	n/a	1
130.7700000000	n/a	130770	ignore	5567	n/a	n/a	1
137.4040000000	n/a	137404	ignore	1000	n/a	n/a	1
139.4040000000	n/a	139404	ignore	1700	n/a	n/a	1
141.1040000000	n/a	141104	ignore	4317	n/a	n/a	1
146.4870000000	n/a	146487	ignore	1000	n/a	n/a	1
148.4870000000	n/a	148487	ignore	1700	n/a	n/a	1
150.1870000000	n/a	150187	ignore	2035	n/a	n/a	1
153.2870000000	n/a	153287	ignore	1000	n/a	n/a	1
155.2870000000	n/a	155287	ignore	1700	n/a	n/a	1
156.9870000000	n/a	156987	ignore	3651	n/a	n/a	0
160.7040000000	n/a	160704	STATUS	2000	n/a	n/a	1
172.4040000000	n/a	172404	PenaltyB1	4827	n/a	n/a	1
178.3040000000	n/a	178304	NeuCorrB1	1000	n/a	n/a	1
180.3040000000	n/a	180304	ignore	1700	n/a	n/a	1
182.0040000000	n/a	182004	PenaltyB1	3485	n/a	n/a	1
186.5540000000	n/a	186554	NeuCorrB1	1000	n/a	n/a	1
188.5540000000	n/a	188554	ignore	1700	n/a	n/a	1
190.2540000000	n/a	190254	PenaltyB1	1552	n/a	n/a	0
192.8700000000	n/a	192870	PunIncorrB1	1000	n/a	n/a	1
194.8700000000	n/a	194870	ignore	1700	n/a	n/a	1
196.5700000000	n/a	196570	RewardB1	2144	n/a	n/a	1
199.7870000000	n/a	199787	RewardCorrB1	1000	n/a	n/a	1
201.7870000000	n/a	201787	ignore	1700	n/a	n/a	1
203.4870000000	n/a	203487	RewardB1	1760	n/a	n/a	1
206.3200000000	n/a	206320	RewardCorrB1	1000	n/a	n/a	1
208.3200000000	n/a	208320	ignore	1700	n/a	n/a	1
210.0200000000	n/a	210020	PenaltyB1	3192	n/a	n/a	1
214.2870000000	n/a	214287	NeuCorrB1	1000	n/a	n/a	1
216.2870000000	n/a	216287	ignore	1700	n/a	n/a	1
217.9870000000	n/a	217987	PenaltyB1	2071	n/a	n/a	0
221.1200000000	n/a	221120	PunIncorrB1	1000	n/a	n/a	1
223.1200000000	n/a	223120	ignore	1700	n/a	n/a	1
224.8200000000	n/a	224820	PenaltyB1	948	n/a	n/a	1
226.8370000000	n/a	226837	NeuCorrB1	1000	n/a	n/a	1
228.8370000000	n/a	228837	ignore	1700	n/a	n/a	1
230.5370000000	n/a	230537	PenaltyB1	4142	n/a	n/a	0
235.7540000000	n/a	235754	NeuIncorrB1	1000	n/a	n/a	1
237.7540000000	n/a	237754	ignore	1700	n/a	n/a	1
239.4540000000	n/a	239454	RewardB1	1471	n/a	n/a	1
242.0040000000	n/a	242004	RewardCorrB1	1000	n/a	n/a	1
244.0040000000	n/a	244004	ignore	1700	n/a	n/a	1
245.7040000000	n/a	245704	PenaltyB1	5498	n/a	n/a	0
252.2700000000	n/a	252270	PunIncorrB1	1000	n/a	n/a	1
254.2700000000	n/a	254270	ignore	1700	n/a	n/a	1
255.9700000000	n/a	255970	RewardB1	1954	n/a	n/a	1
258.9870000000	n/a	258987	NeuCorrB1	1000	n/a	n/a	1
260.9870000000	n/a	260987	ignore	1700	n/a	n/a	1
262.6870000000	n/a	262687	PenaltyB1	2117	n/a	n/a	0
265.8700000000	n/a	265870	PunIncorrB1	1000	n/a	n/a	1
267.8700000000	n/a	267870	ignore	1700	n/a	n/a	1
269.5700000000	n/a	269570	RewardB1	1115	n/a	n/a	1
271.7540000000	n/a	271754	RewardCorrB1	1000	n/a	n/a	1
273.7540000000	n/a	273754	ignore	1700	n/a	n/a	1
275.4540000000	n/a	275454	PenaltyB1	938	n/a	n/a	1
277.4700000000	n/a	277470	NeuCorrB1	1000	n/a	n/a	1
279.4700000000	n/a	279470	ignore	1700	n/a	n/a	1
281.1700000000	n/a	281170	PenaltyB1	5854	n/a	n/a	0
288.0870000000	n/a	288087	PunIncorrB1	1000	n/a	n/a	1
290.0870000000	n/a	290087	ignore	1700	n/a	n/a	1
291.7870000000	n/a	291787	RewardB1	696	n/a	n/a	1
293.5540000000	n/a	293554	NeuCorrB1	1000	n/a	n/a	1
295.5540000000	n/a	295554	ignore	1700	n/a	n/a	1
297.2540000000	n/a	297254	PenaltyB1	716	n/a	n/a	1
299.0370000000	n/a	299037	NeuCorrB1	1000	n/a	n/a	1
301.0370000000	n/a	301037	ignore	1700	n/a	n/a	1
302.7370000000	n/a	302737	RewardB1	806	n/a	n/a	1
304.6200000000	n/a	304620	RewardCorrB1	1000	n/a	n/a	1
306.6200000000	n/a	306620	ignore	1700	n/a	n/a	1
308.3200000000	n/a	308320	RewardB1	592	n/a	n/a	1
309.9870000000	n/a	309987	RewardCorrB1	1000	n/a	n/a	1
311.9870000000	n/a	311987	ignore	1700	n/a	n/a	1
313.6870000000	n/a	313687	RewardB1	923	n/a	n/a	1
315.6870000000	n/a	315687	NeuCorrB1	1000	n/a	n/a	1
317.6870000000	n/a	317687	ignore	1700	n/a	n/a	1
319.3870000000	n/a	319387	RewardB1	777	n/a	n/a	1
321.2370000000	n/a	321237	RewardCorrB1	1000	n/a	n/a	1
323.2370000000	n/a	323237	ignore	1700	n/a	n/a	1
324.9370000000	n/a	324937	RewardB1	703	n/a	n/a	1
326.7030000000	n/a	326703	RewardCorrB1	1000	n/a	n/a	1
328.7040000000	n/a	328704	ignore	1700	n/a	n/a	1
330.4030000000	n/a	330403	PenaltyB1	1124	n/a	n/a	1
332.6030000000	n/a	332603	NeuCorrB1	1000	n/a	n/a	1
334.6040000000	n/a	334604	ignore	1700	n/a	n/a	1
336.3030000000	n/a	336303	RewardB1	1309	n/a	n/a	1
338.6870000000	n/a	338687	RewardCorrB1	1000	n/a	n/a	1
340.6870000000	n/a	340687	ignore	1700	n/a	n/a	1
342.3870000000	n/a	342387	PenaltyB1	1332	n/a	n/a	1
344.7870000000	n/a	344787	PunCorrB1	1000	n/a	n/a	1
346.7870000000	n/a	346787	ignore	1700	n/a	n/a	1
348.4870000000	n/a	348487	RewardB1	1274	n/a	n/a	1
350.8370000000	n/a	350837	RewardCorrB1	1000	n/a	n/a	1
352.8370000000	n/a	352837	ignore	1700	n/a	n/a	1
354.5370000000	n/a	354537	RewardB1	770	n/a	n/a	1
356.3700000000	n/a	356370	RewardCorrB1	1000	n/a	n/a	1
358.3700000000	n/a	358370	ignore	1700	n/a	n/a	1
360.0700000000	n/a	360070	RewardB1	643	n/a	n/a	1
361.7870000000	n/a	361787	RewardCorrB1	1000	n/a	n/a	1
363.7870000000	n/a	363787	ignore	1700	n/a	n/a	1
365.4870000000	n/a	365487	PenaltyB1	1619	n/a	n/a	0
368.1700000000	n/a	368170	PunIncorrB1	1000	n/a	n/a	1
370.1700000000	n/a	370170	ignore	1700	n/a	n/a	1
371.8700000000	n/a	371870	RewardB1	1659	n/a	n/a	1
374.6030000000	n/a	374603	NeuCorrB1	1000	n/a	n/a	1
376.6030000000	n/a	376603	ignore	1700	n/a	n/a	1
378.3030000000	n/a	378303	PenaltyB1	3424	n/a	n/a	1
382.8030000000	n/a	382803	NeuCorrB1	1000	n/a	n/a	1
384.8030000000	n/a	384803	ignore	1700	n/a	n/a	1
386.5030000000	n/a	386503	RewardB1	882	n/a	n/a	1
388.4530000000	n/a	388453	RewardCorrB1	1000	n/a	n/a	1
390.4530000000	n/a	390453	ignore	1700	n/a	n/a	1
392.1530000000	n/a	392153	PenaltyB1	3430	n/a	n/a	0
396.6530000000	n/a	396653	NeuIncorrB1	1000	n/a	n/a	1
398.6530000000	n/a	398653	ignore	1700	n/a	n/a	1
400.3530000000	n/a	400353	RewardB1	945	n/a	n/a	1
402.3700000000	n/a	402370	RewardCorrB1	1000	n/a	n/a	1
404.3700000000	n/a	404370	ignore	1700	n/a	n/a	1
406.0700000000	n/a	406070	PenaltyB1	824	n/a	n/a	1
407.9700000000	n/a	407970	NeuCorrB1	1000	n/a	n/a	1
409.9700000000	n/a	409970	ignore	1700	n/a	n/a	1
411.6700000000	n/a	411670	PenaltyB1	2937	n/a	n/a	1
415.6700000000	n/a	415670	NeuCorrB1	1000	n/a	n/a	1
417.6700000000	n/a	417670	ignore	1700	n/a	n/a	1
419.3700000000	n/a	419370	RewardB1	838	n/a	n/a	1
421.2870000000	n/a	421287	RewardCorrB1	1000	n/a	n/a	1
423.2870000000	n/a	423287	STATUS	1700	n/a	n/a	1
424.9870000000	n/a	424987	PenaltyB1	3647	n/a	n/a	1
429.7030000000	n/a	429703	PunCorrB1	1000	n/a	n/a	1
431.7030000000	n/a	431703	ignore	1700	n/a	n/a	1
433.4030000000	n/a	433403	RewardB1	822	n/a	n/a	1
435.3030000000	n/a	435303	RewardCorrB1	1000	n/a	n/a	1
437.3030000000	n/a	437303	STATUS	1700	n/a	n/a	1
448.4370000000	n/a	448437	RewardB2	1041	n/a	n/a	1
450.5530000000	n/a	450553	RewardCorrB2	1000	n/a	n/a	1
452.5530000000	n/a	452553	STATUS	1700	n/a	n/a	1
454.2530000000	n/a	454253	PenaltyB2	5467	n/a	n/a	1
460.7870000000	n/a	460787	NeuCorrB2	1000	n/a	n/a	1
462.7870000000	n/a	462787	STATUS	1700	n/a	n/a	1
464.4870000000	n/a	464487	RewardB2	1279	n/a	n/a	1
466.8370000000	n/a	466837	RewardCorrB2	1000	n/a	n/a	1
468.8370000000	n/a	468837	STATUS	1700	n/a	n/a	1
470.5370000000	n/a	470537	RewardB2	874	n/a	n/a	1
472.4870000000	n/a	472487	NeuCorrB2	1000	n/a	n/a	1
474.4870000000	n/a	474487	STATUS	1700	n/a	n/a	1
476.1870000000	n/a	476187	PenaltyB2	2492	n/a	n/a	0
479.7530000000	n/a	479753	PunIncorrB2	1000	n/a	n/a	1
481.7530000000	n/a	481753	STATUS	1700	n/a	n/a	1
483.4530000000	n/a	483453	RewardB2	1174	n/a	n/a	1
485.7030000000	n/a	485703	RewardCorrB2	1000	n/a	n/a	1
487.7030000000	n/a	487703	STATUS	1700	n/a	n/a	1
489.4030000000	n/a	489403	PenaltyB2	2641	n/a	n/a	1
493.1200000000	n/a	493120	NeuCorrB2	1000	n/a	n/a	1
495.1200000000	n/a	495120	STATUS	1700	n/a	n/a	1
496.8200000000	n/a	496820	RewardB2	1224	n/a	n/a	1
499.1200000000	n/a	499120	RewardCorrB2	1000	n/a	n/a	1
501.1200000000	n/a	501120	STATUS	1700	n/a	n/a	1
502.8200000000	n/a	502820	PenaltyB2	4916	n/a	n/a	1
508.8030000000	n/a	508803	NeuCorrB2	1000	n/a	n/a	1
510.8030000000	n/a	510803	STATUS	1700	n/a	n/a	1
512.5030000000	n/a	512503	RewardB2	504	n/a	n/a	1
514.0700000000	n/a	514070	RewardCorrB2	1000	n/a	n/a	1
516.0700000000	n/a	516070	STATUS	1700	n/a	n/a	1
517.7700000000	n/a	517770	PenaltyB2	1887	n/a	n/a	0
520.7200000000	n/a	520720	NeuIncorrB2	1000	n/a	n/a	1
522.7200000000	n/a	522720	STATUS	1700	n/a	n/a	1
524.4200000000	n/a	524420	RewardB2	671	n/a	n/a	1
526.1530000000	n/a	526153	RewardCorrB2	1000	n/a	n/a	1
528.1530000000	n/a	528153	STATUS	1700	n/a	n/a	1
529.8530000000	n/a	529853	PenaltyB2	1290	n/a	n/a	1
532.2200000000	n/a	532220	NeuCorrB2	1000	n/a	n/a	1
534.2200000000	n/a	534220	STATUS	1700	n/a	n/a	1
535.9200000000	n/a	535920	RewardB2	774	n/a	n/a	1
537.7700000000	n/a	537770	RewardCorrB2	1000	n/a	n/a	1
539.7700000000	n/a	539770	STATUS	1700	n/a	n/a	1
541.4700000000	n/a	541470	PenaltyB2	2476	n/a	n/a	0
545.0200000000	n/a	545020	PunIncorrB2	1000	n/a	n/a	1
547.0200000000	n/a	547020	STATUS	1700	n/a	n/a	1
548.7200000000	n/a	548720	RewardB2	1194	n/a	n/a	1
550.9860000000	n/a	550986	NeuCorrB2	1000	n/a	n/a	1
552.9870000000	n/a	552987	STATUS	1700	n/a	n/a	1
554.6860000000	n/a	554686	PenaltyB2	1010	n/a	n/a	0
556.7700000000	n/a	556770	PunIncorrB2	1000	n/a	n/a	1
558.7700000000	n/a	558770	STATUS	1700	n/a	n/a	1
560.4700000000	n/a	560470	RewardB2	766	n/a	n/a	1
562.3030000000	n/a	562303	RewardCorrB2	1000	n/a	n/a	1
564.3030000000	n/a	564303	STATUS	1700	n/a	n/a	1
566.0030000000	n/a	566003	PenaltyB2	1045	n/a	n/a	0
568.1200000000	n/a	568120	PunIncorrB2	1000	n/a	n/a	1
570.1200000000	n/a	570120	STATUS	1700	n/a	n/a	1
571.8200000000	n/a	571820	RewardB2	677	n/a	n/a	1
573.5700000000	n/a	573570	RewardCorrB2	1000	n/a	n/a	1
575.5700000000	n/a	575570	STATUS	1700	n/a	n/a	1
577.2700000000	n/a	577270	PenaltyB2	2571	n/a	n/a	0
580.9030000000	n/a	580903	NeuIncorrB2	1000	n/a	n/a	1
582.9030000000	n/a	582903	STATUS	1700	n/a	n/a	1
584.6030000000	n/a	584603	PenaltyB2	2163	n/a	n/a	0
587.8360000000	n/a	587836	PunIncorrB2	1000	n/a	n/a	1
589.8360000000	n/a	589836	STATUS	1700	n/a	n/a	1
591.5360000000	n/a	591536	PenaltyB2	1156	n/a	n/a	1
593.7700000000	n/a	593770	NeuCorrB2	1000	n/a	n/a	1
595.7700000000	n/a	595770	STATUS	1700	n/a	n/a	1
597.4700000000	n/a	597470	RewardB2	779	n/a	n/a	1
599.3200000000	n/a	599320	RewardCorrB2	1000	n/a	n/a	1
601.3200000000	n/a	601320	STATUS	1700	n/a	n/a	1
603.0200000000	n/a	603020	RewardB2	932	n/a	n/a	1
605.0200000000	n/a	605020	NeuCorrB2	1000	n/a	n/a	1
607.0200000000	n/a	607020	STATUS	1700	n/a	n/a	1
608.7200000000	n/a	608720	RewardB2	440	n/a	n/a	1
610.2360000000	n/a	610236	RewardCorrB2	1000	n/a	n/a	1
612.2360000000	n/a	612236	STATUS	1700	n/a	n/a	1
613.9360000000	n/a	613936	PenaltyB2	2535	n/a	n/a	0
617.5360000000	n/a	617536	PunIncorrB2	1000	n/a	n/a	1
619.5360000000	n/a	619536	STATUS	1700	n/a	n/a	1
621.2360000000	n/a	621236	PenaltyB2	4464	n/a	n/a	1
626.7700000000	n/a	626770	NeuCorrB2	1000	n/a	n/a	1
628.7700000000	n/a	628770	STATUS	1700	n/a	n/a	1
630.4700000000	n/a	630470	RewardB2	690	n/a	n/a	1
632.2360000000	n/a	632236	RewardCorrB2	1000	n/a	n/a	1
634.2360000000	n/a	634236	STATUS	1700	n/a	n/a	1
635.9360000000	n/a	635936	PenaltyB2	2391	n/a	n/a	0
639.4030000000	n/a	639403	PunIncorrB2	1000	n/a	n/a	1
641.4030000000	n/a	641403	STATUS	1700	n/a	n/a	1
643.1030000000	n/a	643103	RewardB2	751	n/a	n/a	1
644.9200000000	n/a	644920	NeuCorrB2	1000	n/a	n/a	1
646.9200000000	n/a	646920	STATUS	1700	n/a	n/a	1
648.6200000000	n/a	648620	PenaltyB2	2623	n/a	n/a	0
652.3200000000	n/a	652320	PunIncorrB2	1000	n/a	n/a	1
654.3200000000	n/a	654320	STATUS	1700	n/a	n/a	1
656.0200000000	n/a	656020	RewardB2	571	n/a	n/a	1
657.6530000000	n/a	657653	RewardCorrB2	1000	n/a	n/a	1
659.6530000000	n/a	659653	STATUS	1700	n/a	n/a	1
661.3530000000	n/a	661353	PenaltyB2	2512	n/a	n/a	0
664.9360000000	n/a	664936	PunIncorrB2	1000	n/a	n/a	1
666.9360000000	n/a	666936	STATUS	1700	n/a	n/a	1
668.6360000000	n/a	668636	PenaltyB2	4687	n/a	n/a	1
674.3860000000	n/a	674386	PunCorrB2	1000	n/a	n/a	1
676.3860000000	n/a	676386	STATUS	1700	n/a	n/a	1
678.0860000000	n/a	678086	RewardB2	458	n/a	n/a	1
679.6200000000	n/a	679620	RewardCorrB2	1000	n/a	n/a	1
681.6200000000	n/a	681620	STATUS	1700	n/a	n/a	1
683.3200000000	n/a	683320	PenaltyB2	2072	n/a	n/a	0
686.4700000000	n/a	686470	PunIncorrB2	1000	n/a	n/a	1
688.4700000000	n/a	688470	STATUS	1700	n/a	n/a	1
690.1700000000	n/a	690170	RewardB2	671	n/a	n/a	1
691.9030000000	n/a	691903	RewardCorrB2	1000	n/a	n/a	1
693.9030000000	n/a	693903	STATUS	1700	n/a	n/a	1
695.6030000000	n/a	695603	PenaltyB2	1267	n/a	n/a	1
697.9360000000	n/a	697936	PunCorrB2	1000	n/a	n/a	1
699.9360000000	n/a	699936	STATUS	1700	n/a	n/a	1
701.6360000000	n/a	701636	RewardB2	847	n/a	n/a	1
703.5530000000	n/a	703553	RewardCorrB2	1000	n/a	n/a	1
705.5530000000	n/a	705553	STATUS	1700	n/a	n/a	1
720.3360000000	n/a	720336	RewardB3	757	n/a	n/a	1
722.1700000000	n/a	722170	RewardCorrB3	1000	n/a	n/a	1
724.1700000000	n/a	724170	STATUS	1700	n/a	n/a	1
725.8700000000	n/a	725870	PenaltyB3	2154	n/a	n/a	1
729.0860000000	n/a	729086	PunCorrB3	1000	n/a	n/a	1
731.0860000000	n/a	731086	STATUS	1700	n/a	n/a	1
732.7860000000	n/a	732786	RewardB3	919	n/a	n/a	1
734.7690000000	n/a	734769	RewardCorrB3	1000	n/a	n/a	1
736.7700000000	n/a	736770	STATUS	1700	n/a	n/a	1
738.4690000000	n/a	738469	PenaltyB3	5623	n/a	n/a	0
745.1690000000	n/a	745169	PunIncorrB3	1000	n/a	n/a	1
747.1700000000	n/a	747170	STATUS	1700	n/a	n/a	1
748.8690000000	n/a	748869	PenaltyB3	1420	n/a	n/a	0
751.3530000000	n/a	751353	PunIncorrB3	1000	n/a	n/a	1
753.3530000000	n/a	753353	STATUS	1700	n/a	n/a	1
755.0530000000	n/a	755053	RewardB3	1088	n/a	n/a	1
757.2190000000	n/a	757219	RewardCorrB3	1000	n/a	n/a	1
759.2200000000	n/a	759220	STATUS	1700	n/a	n/a	1
760.9190000000	n/a	760919	PenaltyB3	1219	n/a	n/a	1
763.2030000000	n/a	763203	PunCorrB3	1000	n/a	n/a	1
765.2030000000	n/a	765203	STATUS	1700	n/a	n/a	1
766.9030000000	n/a	766903	RewardB3	721	n/a	n/a	1
768.6860000000	n/a	768686	RewardCorrB3	1000	n/a	n/a	1
770.6860000000	n/a	770686	STATUS	1700	n/a	n/a	1
772.3860000000	n/a	772386	PenaltyB3	2544	n/a	n/a	0
776.0030000000	n/a	776003	PunIncorrB3	1000	n/a	n/a	1
778.0030000000	n/a	778003	STATUS	1700	n/a	n/a	1
779.7030000000	n/a	779703	RewardB3	1047	n/a	n/a	1
781.8190000000	n/a	781819	NeuCorrB3	1000	n/a	n/a	1
783.8190000000	n/a	783819	STATUS	1700	n/a	n/a	1
785.5190000000	n/a	785519	PenaltyB3	742	n/a	n/a	0
787.3360000000	n/a	787336	PunIncorrB3	1000	n/a	n/a	1
789.3360000000	n/a	789336	STATUS	1700	n/a	n/a	1
791.0360000000	n/a	791036	RewardB3	804	n/a	n/a	1
792.9030000000	n/a	792903	RewardCorrB3	1000	n/a	n/a	1
794.9030000000	n/a	794903	STATUS	1700	n/a	n/a	1
796.6030000000	n/a	796603	RewardB3	790	n/a	n/a	1
798.4690000000	n/a	798469	RewardCorrB3	1000	n/a	n/a	1
800.4690000000	n/a	800469	STATUS	1700	n/a	n/a	1
802.1690000000	n/a	802169	RewardB3	674	n/a	n/a	1
803.9190000000	n/a	803919	RewardCorrB3	1000	n/a	n/a	1
805.9190000000	n/a	805919	STATUS	1700	n/a	n/a	1
807.6190000000	n/a	807619	PenaltyB3	3760	n/a	n/a	1
812.4530000000	n/a	812453	PunCorrB3	1000	n/a	n/a	1
814.4530000000	n/a	814453	STATUS	1700	n/a	n/a	1
816.1530000000	n/a	816153	RewardB3	839	n/a	n/a	1
818.0690000000	n/a	818069	RewardCorrB3	1000	n/a	n/a	1
820.0690000000	n/a	820069	STATUS	1700	n/a	n/a	1
821.7690000000	n/a	821769	PenaltyB3	4366	n/a	n/a	1
827.2030000000	n/a	827203	NeuCorrB3	1000	n/a	n/a	1
829.2030000000	n/a	829203	STATUS	1700	n/a	n/a	1
830.9030000000	n/a	830903	RewardB3	827	n/a	n/a	1
832.8030000000	n/a	832803	RewardCorrB3	1000	n/a	n/a	1
834.8030000000	n/a	834803	STATUS	1700	n/a	n/a	1
836.5030000000	n/a	836503	RewardB3	886	n/a	n/a	1
838.4530000000	n/a	838453	RewardCorrB3	1000	n/a	n/a	1
840.4530000000	n/a	840453	STATUS	1700	n/a	n/a	1
842.1530000000	n/a	842153	RewardB3	1162	n/a	n/a	1
844.3860000000	n/a	844386	NeuCorrB3	1000	n/a	n/a	1
846.3860000000	n/a	846386	STATUS	1700	n/a	n/a	1
848.0860000000	n/a	848086	RewardB3	607	n/a	n/a	1
849.7690000000	n/a	849769	RewardCorrB3	1000	n/a	n/a	1
851.7690000000	n/a	851769	STATUS	1700	n/a	n/a	1
853.4690000000	n/a	853469	RewardB3	606	n/a	n/a	1
855.1530000000	n/a	855153	RewardCorrB3	1000	n/a	n/a	1
857.1530000000	n/a	857153	STATUS	1700	n/a	n/a	1
858.8530000000	n/a	858853	PenaltyB3	1285	n/a	n/a	1
861.2030000000	n/a	861203	NeuCorrB3	1000	n/a	n/a	1
863.2030000000	n/a	863203	STATUS	1700	n/a	n/a	1
864.9030000000	n/a	864903	RewardB3	1472	n/a	n/a	1
867.4530000000	n/a	867453	NeuCorrB3	1000	n/a	n/a	1
869.4530000000	n/a	869453	STATUS	1700	n/a	n/a	1
871.1530000000	n/a	871153	PenaltyB3	1879	n/a	n/a	0
874.1030000000	n/a	874103	PunIncorrB3	1000	n/a	n/a	1
876.1030000000	n/a	876103	STATUS	1700	n/a	n/a	1
877.8030000000	n/a	877803	PenaltyB3	989	n/a	n/a	0
879.8690000000	n/a	879869	PunIncorrB3	1000	n/a	n/a	1
881.8690000000	n/a	881869	STATUS	1700	n/a	n/a	1
883.5690000000	n/a	883569	RewardB3	719	n/a	n/a	1
885.3530000000	n/a	885353	RewardCorrB3	1000	n/a	n/a	1
887.3530000000	n/a	887353	STATUS	1700	n/a	n/a	1
889.0530000000	n/a	889053	PenaltyB3	3611	n/a	n/a	1
893.7360000000	n/a	893736	NeuCorrB3	1000	n/a	n/a	1
895.7360000000	n/a	895736	STATUS	1700	n/a	n/a	1
897.4360000000	n/a	897436	RewardB3	898	n/a	n/a	1
899.4030000000	n/a	899403	NeuCorrB3	1000	n/a	n/a	1
901.4030000000	n/a	901403	STATUS	1700	n/a	n/a	1
903.1030000000	n/a	903103	PenaltyB3	760	n/a	n/a	1
904.9360000000	n/a	904936	NeuCorrB3	1000	n/a	n/a	1
906.9360000000	n/a	906936	STATUS	1700	n/a	n/a	1
908.6360000000	n/a	908636	RewardB3	814	n/a	n/a	1
910.5190000000	n/a	910519	RewardCorrB3	1000	n/a	n/a	1
912.5190000000	n/a	912519	STATUS	1700	n/a	n/a	1
914.2190000000	n/a	914219	PenaltyB3	1501	n/a	n/a	0
916.7860000000	n/a	916786	NeuIncorrB3	1000	n/a	n/a	1
918.7860000000	n/a	918786	STATUS	1700	n/a	n/a	1
920.4860000000	n/a	920486	PenaltyB3	1961	n/a	n/a	0
923.5190000000	n/a	923519	PunIncorrB3	1000	n/a	n/a	1
925.5190000000	n/a	925519	STATUS	1700	n/a	n/a	1
927.2190000000	n/a	927219	PenaltyB3	4141	n/a	n/a	0
932.4360000000	n/a	932436	PunIncorrB3	1000	n/a	n/a	1
934.4360000000	n/a	934436	STATUS	1700	n/a	n/a	1
936.1360000000	n/a	936136	PenaltyB3	1258	n/a	n/a	1
938.4690000000	n/a	938469	NeuCorrB3	1000	n/a	n/a	1
940.4690000000	n/a	940469	STATUS	1700	n/a	n/a	1
942.1690000000	n/a	942169	RewardB3	3036	n/a	n/a	1
946.2690000000	n/a	946269	RewardCorrB3	1000	n/a	n/a	1
948.2690000000	n/a	948269	STATUS	1700	n/a	n/a	1
949.9690000000	n/a	949969	RewardB3	545	n/a	n/a	1
951.5860000000	n/a	951586	RewardCorrB3	1000	n/a	n/a	1
953.5860000000	n/a	953586	STATUS	1700	n/a	n/a	1
955.2860000000	n/a	955286	PenaltyB3	1073	n/a	n/a	0
957.4360000000	n/a	957436	PunIncorrB3	1000	n/a	n/a	1
959.4360000000	n/a	959436	STATUS	1700	n/a	n/a	1
961.1360000000	n/a	961136	PenaltyB3	1055	n/a	n/a	1
963.2520000000	n/a	963252	NeuCorrB3	1000	n/a	n/a	1
965.2530000000	n/a	965253	STATUS	1700	n/a	n/a	1
966.9520000000	n/a	966952	PenaltyB3	1682	n/a	n/a	1
969.7020000000	n/a	969702	NeuCorrB3	1000	n/a	n/a	1
971.7030000000	n/a	971703	STATUS	1700	n/a	n/a	1
984.5190000000	n/a	984519	RewardB4	641	n/a	n/a	1
986.2360000000	n/a	986236	RewardCorrB4	1000	n/a	n/a	1
988.2360000000	n/a	988236	STATUS	1700	n/a	n/a	1
989.9360000000	n/a	989936	PenaltyB4	1258	n/a	n/a	1
992.2690000000	n/a	992269	PunCorrB4	1000	n/a	n/a	1
994.2690000000	n/a	994269	STATUS	1700	n/a	n/a	1
995.9690000000	n/a	995969	RewardB4	1730	n/a	n/a	1
998.7690000000	n/a	998769	RewardCorrB4	1000	n/a	n/a	1
1000.7690000000	n/a	1000769	STATUS	1700	n/a	n/a	1
1002.4690000000	n/a	1002469	PenaltyB4	4095	n/a	n/a	1
1007.6360000000	n/a	1007636	NeuCorrB4	1000	n/a	n/a	1
1009.6360000000	n/a	1009636	STATUS	1700	n/a	n/a	1
1011.3360000000	n/a	1011336	RewardB4	1424	n/a	n/a	1
1013.8360000000	n/a	1013836	RewardCorrB4	1000	n/a	n/a	1
1015.8360000000	n/a	1015836	STATUS	1700	n/a	n/a	1
1017.5360000000	n/a	1017536	PenaltyB4	1802	n/a	n/a	0
1020.4020000000	n/a	1020402	NeuIncorrB4	1000	n/a	n/a	1
1022.4020000000	n/a	1022402	STATUS	1700	n/a	n/a	1
1024.1020000000	n/a	1024102	PenaltyB4	981	n/a	n/a	0
1026.1520000000	n/a	1026152	PunIncorrB4	1000	n/a	n/a	1
1028.1520000000	n/a	1028152	STATUS	1700	n/a	n/a	1
1029.8520000000	n/a	1029852	RewardB4	1062	n/a	n/a	1
1031.9860000000	n/a	1031986	RewardCorrB4	1000	n/a	n/a	1
1033.9860000000	n/a	1033986	STATUS	1700	n/a	n/a	1
1035.6860000000	n/a	1035686	PenaltyB4	881	n/a	n/a	1
1037.6360000000	n/a	1037636	NeuCorrB4	1000	n/a	n/a	1
1039.6360000000	n/a	1039636	STATUS	1700	n/a	n/a	1
1041.3360000000	n/a	1041336	RewardB4	654	n/a	n/a	1
1043.0520000000	n/a	1043052	NeuCorrB4	1000	n/a	n/a	1
1045.0520000000	n/a	1045052	STATUS	1700	n/a	n/a	1
1046.7520000000	n/a	1046752	PenaltyB4	796	n/a	n/a	0
1048.6190000000	n/a	1048619	PunIncorrB4	1000	n/a	n/a	1
1050.6190000000	n/a	1050619	STATUS	1700	n/a	n/a	1
1052.3190000000	n/a	1052319	RewardB4	874	n/a	n/a	1
1054.2690000000	n/a	1054269	RewardCorrB4	1000	n/a	n/a	1
1056.2690000000	n/a	1056269	STATUS	1700	n/a	n/a	1
1057.9690000000	n/a	1057969	PenaltyB4	2450	n/a	n/a	1
1061.4860000000	n/a	1061486	NeuCorrB4	1000	n/a	n/a	1
1063.4860000000	n/a	1063486	STATUS	1700	n/a	n/a	1
1065.1860000000	n/a	1065186	PenaltyB4	1493	n/a	n/a	0
1067.7520000000	n/a	1067752	PunIncorrB4	1000	n/a	n/a	1
1069.7520000000	n/a	1069752	STATUS	1700	n/a	n/a	1
1071.4520000000	n/a	1071452	RewardB4	911	n/a	n/a	1
1073.4360000000	n/a	1073436	RewardCorrB4	1000	n/a	n/a	1
1075.4360000000	n/a	1075436	STATUS	1700	n/a	n/a	1
1077.1360000000	n/a	1077136	RewardB4	673	n/a	n/a	1
1078.8860000000	n/a	1078886	NeuCorrB4	1000	n/a	n/a	1
1080.8860000000	n/a	1080886	STATUS	1700	n/a	n/a	1
1082.5860000000	n/a	1082586	RewardB4	786	n/a	n/a	1
1084.4360000000	n/a	1084436	RewardCorrB4	1000	n/a	n/a	1
1086.4360000000	n/a	1086436	STATUS	1700	n/a	n/a	1
1088.1360000000	n/a	1088136	PenaltyB4	7655	n/a	n/a	1
1096.8690000000	n/a	1096869	NeuCorrB4	1000	n/a	n/a	1
1098.8690000000	n/a	1098869	STATUS	1700	n/a	n/a	1
1100.5690000000	n/a	1100569	PenaltyB4	1417	n/a	n/a	0
1103.0520000000	n/a	1103052	PunIncorrB4	1000	n/a	n/a	1
1105.0520000000	n/a	1105052	STATUS	1700	n/a	n/a	1
1106.7520000000	n/a	1106752	PenaltyB4	1210	n/a	n/a	1
1109.0360000000	n/a	1109036	PunCorrB4	1000	n/a	n/a	1
1111.0360000000	n/a	1111036	STATUS	1700	n/a	n/a	1
1112.7360000000	n/a	1112736	RewardB4	870	n/a	n/a	1
1114.6690000000	n/a	1114669	RewardCorrB4	1000	n/a	n/a	1
1116.6690000000	n/a	1116669	STATUS	1700	n/a	n/a	1
1118.3690000000	n/a	1118369	PenaltyB4	2452	n/a	n/a	0
1121.8860000000	n/a	1121886	PunIncorrB4	1000	n/a	n/a	1
1123.8860000000	n/a	1123886	STATUS	1700	n/a	n/a	1
1125.5860000000	n/a	1125586	RewardB4	658	n/a	n/a	1
1127.3190000000	n/a	1127319	RewardCorrB4	1000	n/a	n/a	1
1129.3190000000	n/a	1129319	STATUS	1700	n/a	n/a	1
1131.0190000000	n/a	1131019	PenaltyB4	1495	n/a	n/a	1
1133.5860000000	n/a	1133586	NeuCorrB4	1000	n/a	n/a	1
1135.5860000000	n/a	1135586	STATUS	1700	n/a	n/a	1
1137.2860000000	n/a	1137286	RewardB4	1075	n/a	n/a	1
1139.4360000000	n/a	1139436	NeuCorrB4	1000	n/a	n/a	1
1141.4360000000	n/a	1141436	STATUS	1700	n/a	n/a	1
1143.1360000000	n/a	1143136	PenaltyB4	3760	n/a	n/a	1
1147.9690000000	n/a	1147969	NeuCorrB4	1000	n/a	n/a	1
1149.9690000000	n/a	1149969	STATUS	1700	n/a	n/a	1
1151.6690000000	n/a	1151669	RewardB4	3259	n/a	n/a	1
1156.0020000000	n/a	1156002	RewardCorrB4	1000	n/a	n/a	1
1158.0020000000	n/a	1158002	STATUS	1700	n/a	n/a	1
1159.7020000000	n/a	1159702	PenaltyB4	2353	n/a	n/a	1
1163.1190000000	n/a	1163119	NeuCorrB4	1000	n/a	n/a	1
1165.1190000000	n/a	1165119	STATUS	1700	n/a	n/a	1
1166.8190000000	n/a	1166819	RewardB4	992	n/a	n/a	1
1168.8850000000	n/a	1168885	RewardCorrB4	1000	n/a	n/a	1
1170.8860000000	n/a	1170886	STATUS	1700	n/a	n/a	1
1172.5850000000	n/a	1172585	PenaltyB4	2324	n/a	n/a	0
1175.9850000000	n/a	1175985	NeuIncorrB4	1000	n/a	n/a	1
1177.9860000000	n/a	1177986	STATUS	1700	n/a	n/a	1
1179.6850000000	n/a	1179685	RewardB4	724	n/a	n/a	1
1181.4850000000	n/a	1181485	RewardCorrB4	1000	n/a	n/a	1
1183.4860000000	n/a	1183486	STATUS	1700	n/a	n/a	1
1185.1850000000	n/a	1185185	PenaltyB4	1031	n/a	n/a	0
1187.2850000000	n/a	1187285	PunIncorrB4	1000	n/a	n/a	1
1189.2850000000	n/a	1189285	STATUS	1700	n/a	n/a	1
1190.9850000000	n/a	1190985	RewardB4	1116	n/a	n/a	1
1193.1690000000	n/a	1193169	RewardCorrB4	1000	n/a	n/a	1
1195.1690000000	n/a	1195169	STATUS	1700	n/a	n/a	1
1196.8690000000	n/a	1196869	PenaltyB4	1079	n/a	n/a	0
1199.0190000000	n/a	1199019	PunIncorrB4	1000	n/a	n/a	1
1201.0190000000	n/a	1201019	STATUS	1700	n/a	n/a	1
1202.7190000000	n/a	1202719	RewardB4	2311	n/a	n/a	1
1206.1020000000	n/a	1206102	RewardCorrB4	1000	n/a	n/a	1
1208.1020000000	n/a	1208102	STATUS	1700	n/a	n/a	1
1209.8020000000	n/a	1209802	PenaltyB4	2441	n/a	n/a	1
1213.3190000000	n/a	1213319	NeuCorrB4	1000	n/a	n/a	1
1215.3190000000	n/a	1215319	STATUS	1700	n/a	n/a	1
1217.0190000000	n/a	1217019	RewardB4	1071	n/a	n/a	1
1219.1520000000	n/a	1219152	NeuCorrB4	1000	n/a	n/a	1
1221.1520000000	n/a	1221152	STATUS	1700	n/a	n/a	1
1222.8520000000	n/a	1222852	RewardB4	471	n/a	n/a	1
1224.3850000000	n/a	1224385	RewardCorrB4	1000	n/a	n/a	1
1226.3850000000	n/a	1226385	STATUS	1700	n/a	n/a	1
1228.0850000000	n/a	1228085	PenaltyB4	2754	n/a	n/a	0
1231.9020000000	n/a	1231902	PunIncorrB4	1000	n/a	n/a	1
1233.9020000000	n/a	1233902	STATUS	1700	n/a	n/a	1
1235.6020000000	n/a	1235602	RewardB4	481	n/a	n/a	1
1237.1520000000	n/a	1237152	RewardCorrB4	1000	n/a	n/a	1
1239.1520000000	n/a	1239152	STATUS	1700	n/a	n/a	1
1247.8850000000	n/a	1247885	STATUS	1700	n/a	n/a	1
