onset	duration	sample	trial_type	response_time	stim_file	value	correct
3.3470000000	n/a	3347	FrequentFixedSOA	1633	n/a	n/a	1
4.9800000000	n/a	4980	FrequentFixedSOA	1633	n/a	n/a	1
6.6130000000	n/a	6613	FrequentFixedSOA	1633	n/a	n/a	1
8.2460000000	n/a	8246	FrequentFixedSOA	1633	n/a	n/a	1
9.8800000000	n/a	9880	FrequentFixedSOA	1633	n/a	n/a	1
11.5130000000	n/a	11513	FrequentFixedSOA	1633	n/a	n/a	1
13.1460000000	n/a	13146	FrequentFixedSOA	1633	n/a	n/a	1
14.7800000000	n/a	14780	FrequentFixedSOA	1633	n/a	n/a	1
16.4130000000	n/a	16413	FrequentFixedSOA	1633	n/a	n/a	1
18.0460000000	n/a	18046	FrequentFixedSOA	1633	n/a	n/a	1
19.6800000000	n/a	19680	NovelFixedSOA	1633	n/a	n/a	1
21.3130000000	n/a	21313	FrequentFixedSOA	1633	n/a	n/a	1
22.9460000000	n/a	22946	GoFixedSOA	452	n/a	n/a	1
24.5800000000	n/a	24580	FrequentFixedSOA	1633	n/a	n/a	1
26.2130000000	n/a	26213	FrequentFixedSOA	1633	n/a	n/a	1
27.8460000000	n/a	27846	FrequentFixedSOA	1633	n/a	n/a	1
29.4800000000	n/a	29480	GoFixedSOA	434	n/a	n/a	1
31.1130000000	n/a	31113	FrequentFixedSOA	1633	n/a	n/a	1
32.7460000000	n/a	32746	FrequentFixedSOA	1633	n/a	n/a	1
34.3800000000	n/a	34380	FrequentFixedSOA	1633	n/a	n/a	1
36.0130000000	n/a	36013	NovelFixedSOA	1633	n/a	n/a	1
37.6460000000	n/a	37646	FrequentFixedSOA	1633	n/a	n/a	1
39.2800000000	n/a	39280	FrequentFixedSOA	1633	n/a	n/a	1
40.9130000000	n/a	40913	FrequentFixedSOA	1633	n/a	n/a	1
42.5460000000	n/a	42546	GoFixedSOA	325	n/a	n/a	1
44.1800000000	n/a	44180	FrequentFixedSOA	1633	n/a	n/a	1
45.8130000000	n/a	45813	NovelFixedSOA	1633	n/a	n/a	1
47.4460000000	n/a	47446	FrequentFixedSOA	1633	n/a	n/a	1
49.0800000000	n/a	49080	FrequentFixedSOA	1633	n/a	n/a	1
50.7130000000	n/a	50713	FrequentFixedSOA	1633	n/a	n/a	1
52.3460000000	n/a	52346	GoFixedSOA	399	n/a	n/a	1
53.9800000000	n/a	53980	FrequentFixedSOA	1633	n/a	n/a	1
55.6130000000	n/a	55613	GoFixedSOA	423	n/a	n/a	1
57.2460000000	n/a	57246	FrequentFixedSOA	1633	n/a	n/a	1
58.8800000000	n/a	58880	FrequentFixedSOA	1633	n/a	n/a	1
60.5130000000	n/a	60513	GoFixedSOA	451	n/a	n/a	1
62.1460000000	n/a	62146	FrequentFixedSOA	1633	n/a	n/a	1
63.7800000000	n/a	63780	FrequentFixedSOA	1633	n/a	n/a	1
65.4130000000	n/a	65413	FrequentFixedSOA	1633	n/a	n/a	1
67.0460000000	n/a	67046	FrequentFixedSOA	1633	n/a	n/a	1
68.6800000000	n/a	68680	NovelFixedSOA	1633	n/a	n/a	1
70.3130000000	n/a	70313	FrequentFixedSOA	1633	n/a	n/a	1
71.9460000000	n/a	71946	NovelFixedSOA	1633	n/a	n/a	1
73.5800000000	n/a	73580	FrequentFixedSOA	1633	n/a	n/a	1
75.2130000000	n/a	75213	FrequentFixedSOA	1633	n/a	n/a	1
76.8460000000	n/a	76846	GoFixedSOA	439	n/a	n/a	1
78.4800000000	n/a	78480	FrequentFixedSOA	1633	n/a	n/a	1
80.1130000000	n/a	80113	FrequentFixedSOA	1633	n/a	n/a	1
81.7460000000	n/a	81746	FrequentFixedSOA	1633	n/a	n/a	1
83.3800000000	n/a	83380	FrequentFixedSOA	1633	n/a	n/a	1
85.0130000000	n/a	85013	NovelFixedSOA	1633	n/a	n/a	1
86.6460000000	n/a	86646	FrequentFixedSOA	1633	n/a	n/a	1
88.2800000000	n/a	88280	FrequentFixedSOA	1633	n/a	n/a	1
89.9130000000	n/a	89913	FrequentFixedSOA	1633	n/a	n/a	1
91.5460000000	n/a	91546	FrequentFixedSOA	1633	n/a	n/a	1
93.1800000000	n/a	93180	GoFixedSOA	385	n/a	n/a	1
94.8130000000	n/a	94813	FrequentFixedSOA	1633	n/a	n/a	1
96.4460000000	n/a	96446	FrequentFixedSOA	1633	n/a	n/a	1
98.0800000000	n/a	98080	NovelFixedSOA	1633	n/a	n/a	1
99.7130000000	n/a	99713	FrequentFixedSOA	1633	n/a	n/a	1
101.3460000000	n/a	101346	FrequentFixedSOA	1633	n/a	n/a	1
102.9800000000	n/a	102980	GoFixedSOA	380	n/a	n/a	1
104.6130000000	n/a	104613	FrequentFixedSOA	1633	n/a	n/a	1
106.2460000000	n/a	106246	FrequentFixedSOA	1633	n/a	n/a	1
107.8800000000	n/a	107880	FrequentFixedSOA	1633	n/a	n/a	1
109.5130000000	n/a	109513	FrequentFixedSOA	1633	n/a	n/a	1
111.1460000000	n/a	111146	NovelFixedSOA	1633	n/a	n/a	1
112.7800000000	n/a	112780	FrequentFixedSOA	1633	n/a	n/a	1
114.4130000000	n/a	114413	FrequentFixedSOA	1633	n/a	n/a	1
116.0460000000	n/a	116046	GoFixedSOA	433	n/a	n/a	1
117.6800000000	n/a	117680	FrequentVariableSOA	1616	n/a	n/a	1
119.2960000000	n/a	119296	FrequentVariableSOA	1650	n/a	n/a	1
120.9460000000	n/a	120946	FrequentVariableSOA	1666	n/a	n/a	1
122.6130000000	n/a	122613	FrequentVariableSOA	1666	n/a	n/a	1
124.2800000000	n/a	124280	FrequentVariableSOA	1600	n/a	n/a	1
125.8800000000	n/a	125880	FrequentVariableSOA	1616	n/a	n/a	1
127.4960000000	n/a	127496	FrequentVariableSOA	1766	n/a	n/a	1
129.2630000000	n/a	129263	FrequentVariableSOA	1583	n/a	n/a	1
130.8460000000	n/a	130846	FrequentVariableSOA	1650	n/a	n/a	1
132.4960000000	n/a	132496	FrequentVariableSOA	1616	n/a	n/a	1
134.1130000000	n/a	134113	NovelVariableSOA	1583	n/a	n/a	1
135.6960000000	n/a	135696	FrequentVariableSOA	1766	n/a	n/a	1
137.4630000000	n/a	137463	GoVariableSOA	436	n/a	n/a	1
139.0130000000	n/a	139013	FrequentVariableSOA	1616	n/a	n/a	1
140.6300000000	n/a	140630	FrequentVariableSOA	1616	n/a	n/a	1
142.2460000000	n/a	142246	FrequentVariableSOA	1716	n/a	n/a	1
143.9630000000	n/a	143963	GoVariableSOA	437	n/a	n/a	1
145.6460000000	n/a	145646	FrequentVariableSOA	1566	n/a	n/a	1
147.2130000000	n/a	147213	FrequentVariableSOA	1700	n/a	n/a	1
148.9130000000	n/a	148913	FrequentVariableSOA	1533	n/a	n/a	1
150.4460000000	n/a	150446	NovelVariableSOA	1766	n/a	n/a	1
152.2130000000	n/a	152213	FrequentVariableSOA	1533	n/a	n/a	1
153.7460000000	n/a	153746	FrequentVariableSOA	1550	n/a	n/a	1
155.2960000000	n/a	155296	FrequentVariableSOA	1700	n/a	n/a	1
156.9960000000	n/a	156996	GoVariableSOA	441	n/a	n/a	1
158.6460000000	n/a	158646	FrequentVariableSOA	1550	n/a	n/a	1
160.1960000000	n/a	160196	NovelVariableSOA	1616	n/a	n/a	1
161.8130000000	n/a	161813	FrequentVariableSOA	1650	n/a	n/a	1
163.4630000000	n/a	163463	FrequentVariableSOA	1716	n/a	n/a	1
165.1790000000	n/a	165179	FrequentVariableSOA	1716	n/a	n/a	1
166.8960000000	n/a	166896	GoVariableSOA	386	n/a	n/a	1
168.4290000000	n/a	168429	FrequentVariableSOA	1600	n/a	n/a	1
170.0290000000	n/a	170029	GoVariableSOA	592	n/a	n/a	1
171.8130000000	n/a	171813	FrequentVariableSOA	1633	n/a	n/a	1
173.4460000000	n/a	173446	FrequentVariableSOA	1566	n/a	n/a	1
175.0130000000	n/a	175013	GoVariableSOA	365	n/a	n/a	1
176.5960000000	n/a	176596	FrequentVariableSOA	1600	n/a	n/a	1
178.1960000000	n/a	178196	FrequentVariableSOA	1733	n/a	n/a	1
179.9290000000	n/a	179929	FrequentVariableSOA	1616	n/a	n/a	1
181.5460000000	n/a	181546	FrequentVariableSOA	1566	n/a	n/a	1
183.1130000000	n/a	183113	NovelVariableSOA	1766	n/a	n/a	1
184.8790000000	n/a	184879	FrequentVariableSOA	1533	n/a	n/a	1
186.4130000000	n/a	186413	NovelVariableSOA	1683	n/a	n/a	1
188.0960000000	n/a	188096	FrequentVariableSOA	1766	n/a	n/a	1
189.8630000000	n/a	189863	FrequentVariableSOA	1633	n/a	n/a	1
191.4960000000	n/a	191496	GoVariableSOA	291	n/a	n/a	1
193.2630000000	n/a	193263	FrequentVariableSOA	1500	n/a	n/a	1
194.7630000000	n/a	194763	FrequentVariableSOA	1650	n/a	n/a	1
196.4130000000	n/a	196413	FrequentVariableSOA	1583	n/a	n/a	1
197.9960000000	n/a	197996	FrequentVariableSOA	1516	n/a	n/a	1
199.5130000000	n/a	199513	NovelVariableSOA	1566	n/a	n/a	1
201.0790000000	n/a	201079	FrequentVariableSOA	1716	n/a	n/a	1
202.7960000000	n/a	202796	FrequentVariableSOA	1666	n/a	n/a	1
204.4630000000	n/a	204463	FrequentVariableSOA	1650	n/a	n/a	1
206.1130000000	n/a	206113	FrequentVariableSOA	1716	n/a	n/a	1
207.8290000000	n/a	207829	GoVariableSOA	1633	n/a	n/a	0
209.4630000000	n/a	209463	FrequentVariableSOA	1650	n/a	n/a	1
211.1130000000	n/a	211113	FrequentVariableSOA	1583	n/a	n/a	1
212.6960000000	n/a	212696	NovelVariableSOA	1566	n/a	n/a	1
214.2630000000	n/a	214263	FrequentVariableSOA	1666	n/a	n/a	1
215.9290000000	n/a	215929	FrequentVariableSOA	1700	n/a	n/a	1
217.6290000000	n/a	217629	GoVariableSOA	376	n/a	n/a	1
219.3630000000	n/a	219363	FrequentVariableSOA	1733	n/a	n/a	1
221.0960000000	n/a	221096	FrequentVariableSOA	1666	n/a	n/a	1
222.7630000000	n/a	222763	FrequentVariableSOA	1633	n/a	n/a	1
224.3960000000	n/a	224396	FrequentVariableSOA	1783	n/a	n/a	1
226.1790000000	n/a	226179	NovelVariableSOA	1750	n/a	n/a	1
227.9290000000	n/a	227929	FrequentVariableSOA	1683	n/a	n/a	1
229.6130000000	n/a	229613	FrequentVariableSOA	1500	n/a	n/a	1
231.1130000000	n/a	231113	GoVariableSOA	381	n/a	n/a	1
232.8960000000	n/a	232896	FrequentFixedSOA	1633	n/a	n/a	1
234.5290000000	n/a	234529	FrequentFixedSOA	1633	n/a	n/a	1
236.1630000000	n/a	236163	FrequentFixedSOA	1633	n/a	n/a	1
237.7960000000	n/a	237796	GoFixedSOA	407	n/a	n/a	1
239.4290000000	n/a	239429	FrequentFixedSOA	1633	n/a	n/a	1
241.0630000000	n/a	241063	FrequentFixedSOA	1633	n/a	n/a	1
242.6960000000	n/a	242696	FrequentFixedSOA	1633	n/a	n/a	1
244.3290000000	n/a	244329	GoFixedSOA	336	n/a	n/a	1
245.9630000000	n/a	245963	FrequentFixedSOA	1633	n/a	n/a	1
247.5960000000	n/a	247596	FrequentFixedSOA	1633	n/a	n/a	1
249.2290000000	n/a	249229	FrequentFixedSOA	1633	n/a	n/a	1
250.8630000000	n/a	250863	NovelFixedSOA	1633	n/a	n/a	1
252.4960000000	n/a	252496	FrequentFixedSOA	1633	n/a	n/a	1
254.1290000000	n/a	254129	NovelFixedSOA	1633	n/a	n/a	1
255.7630000000	n/a	255763	FrequentFixedSOA	1633	n/a	n/a	1
257.3960000000	n/a	257396	FrequentFixedSOA	1633	n/a	n/a	1
259.0290000000	n/a	259029	NovelFixedSOA	1633	n/a	n/a	1
260.6630000000	n/a	260663	FrequentFixedSOA	1633	n/a	n/a	1
262.2960000000	n/a	262296	FrequentFixedSOA	1633	n/a	n/a	1
263.9290000000	n/a	263929	FrequentFixedSOA	1633	n/a	n/a	1
265.5630000000	n/a	265563	FrequentFixedSOA	1633	n/a	n/a	1
267.1960000000	n/a	267196	FrequentFixedSOA	1633	n/a	n/a	1
268.8290000000	n/a	268829	NovelFixedSOA	1633	n/a	n/a	1
270.4630000000	n/a	270463	FrequentFixedSOA	1633	n/a	n/a	1
272.0960000000	n/a	272096	FrequentFixedSOA	1633	n/a	n/a	1
273.7290000000	n/a	273729	FrequentFixedSOA	1633	n/a	n/a	1
275.3630000000	n/a	275363	FrequentFixedSOA	1633	n/a	n/a	1
276.9960000000	n/a	276996	FrequentFixedSOA	1633	n/a	n/a	1
278.6290000000	n/a	278629	GoFixedSOA	300	n/a	n/a	1
280.2630000000	n/a	280263	FrequentFixedSOA	1633	n/a	n/a	1
281.8960000000	n/a	281896	FrequentFixedSOA	1633	n/a	n/a	1
283.5290000000	n/a	283529	GoFixedSOA	529	n/a	n/a	1
285.1630000000	n/a	285163	FrequentFixedSOA	1633	n/a	n/a	1
286.7960000000	n/a	286796	NovelFixedSOA	1633	n/a	n/a	1
288.4290000000	n/a	288429	FrequentFixedSOA	1633	n/a	n/a	1
290.0630000000	n/a	290063	GoFixedSOA	1633	n/a	n/a	0
291.6960000000	n/a	291696	FrequentFixedSOA	1633	n/a	n/a	1
293.3290000000	n/a	293329	GoFixedSOA	632	n/a	n/a	1
294.9630000000	n/a	294963	FrequentFixedSOA	1633	n/a	n/a	1
296.5960000000	n/a	296596	FrequentFixedSOA	1633	n/a	n/a	1
298.2290000000	n/a	298229	FrequentFixedSOA	1633	n/a	n/a	1
299.8630000000	n/a	299863	FrequentFixedSOA	1633	n/a	n/a	1
301.4960000000	n/a	301496	GoFixedSOA	473	n/a	n/a	1
303.1290000000	n/a	303129	FrequentFixedSOA	1633	n/a	n/a	1
304.7630000000	n/a	304763	FrequentFixedSOA	1633	n/a	n/a	1
306.3960000000	n/a	306396	FrequentFixedSOA	1633	n/a	n/a	1
308.0290000000	n/a	308029	NovelFixedSOA	1633	n/a	n/a	1
309.6630000000	n/a	309663	FrequentFixedSOA	1633	n/a	n/a	1
311.2960000000	n/a	311296	FrequentFixedSOA	1633	n/a	n/a	1
312.9290000000	n/a	312929	FrequentFixedSOA	1633	n/a	n/a	1
314.5630000000	n/a	314563	FrequentFixedSOA	1633	n/a	n/a	1
316.1960000000	n/a	316196	NovelFixedSOA	1633	n/a	n/a	1
317.8290000000	n/a	317829	FrequentFixedSOA	1633	n/a	n/a	1
319.4630000000	n/a	319463	FrequentFixedSOA	1633	n/a	n/a	1
321.0960000000	n/a	321096	FrequentFixedSOA	1633	n/a	n/a	1
322.7290000000	n/a	322729	FrequentFixedSOA	1633	n/a	n/a	1
324.3630000000	n/a	324363	NovelFixedSOA	1633	n/a	n/a	1
325.9960000000	n/a	325996	FrequentFixedSOA	1633	n/a	n/a	1
327.6290000000	n/a	327629	FrequentFixedSOA	1633	n/a	n/a	1
329.2630000000	n/a	329263	GoFixedSOA	491	n/a	n/a	1
330.8960000000	n/a	330896	FrequentFixedSOA	1633	n/a	n/a	1
332.5290000000	n/a	332529	FrequentFixedSOA	1633	n/a	n/a	1
334.1630000000	n/a	334163	FrequentFixedSOA	1633	n/a	n/a	1
335.7960000000	n/a	335796	FrequentFixedSOA	1633	n/a	n/a	1
337.4290000000	n/a	337429	NovelFixedSOA	1633	n/a	n/a	1
339.0630000000	n/a	339063	FrequentFixedSOA	1633	n/a	n/a	1
340.6960000000	n/a	340696	FrequentFixedSOA	1633	n/a	n/a	1
342.3290000000	n/a	342329	FrequentFixedSOA	1633	n/a	n/a	1
343.9630000000	n/a	343963	FrequentFixedSOA	1633	n/a	n/a	1
345.5960000000	n/a	345596	FrequentFixedSOA	1633	n/a	n/a	1
347.2290000000	n/a	347229	FrequentVariableSOA	1566	n/a	n/a	1
348.7960000000	n/a	348796	FrequentVariableSOA	1650	n/a	n/a	1
350.4460000000	n/a	350446	FrequentVariableSOA	1583	n/a	n/a	1
352.0290000000	n/a	352029	GoVariableSOA	469	n/a	n/a	1
353.7960000000	n/a	353796	FrequentVariableSOA	1700	n/a	n/a	1
355.4960000000	n/a	355496	FrequentVariableSOA	1566	n/a	n/a	1
357.0630000000	n/a	357063	FrequentVariableSOA	1633	n/a	n/a	1
358.6960000000	n/a	358696	GoVariableSOA	1533	n/a	n/a	0
360.2290000000	n/a	360229	FrequentVariableSOA	1716	n/a	n/a	1
361.9460000000	n/a	361946	FrequentVariableSOA	1716	n/a	n/a	1
363.6630000000	n/a	363663	FrequentVariableSOA	1766	n/a	n/a	1
365.4290000000	n/a	365429	NovelVariableSOA	1516	n/a	n/a	1
366.9460000000	n/a	366946	FrequentVariableSOA	1783	n/a	n/a	1
368.7290000000	n/a	368729	NovelVariableSOA	1783	n/a	n/a	1
370.5120000000	n/a	370512	FrequentVariableSOA	1533	n/a	n/a	1
372.0460000000	n/a	372046	FrequentVariableSOA	1750	n/a	n/a	1
373.7960000000	n/a	373796	NovelVariableSOA	1583	n/a	n/a	1
375.3790000000	n/a	375379	FrequentVariableSOA	1583	n/a	n/a	1
376.9620000000	n/a	376962	FrequentVariableSOA	1616	n/a	n/a	1
378.5790000000	n/a	378579	FrequentVariableSOA	1550	n/a	n/a	1
380.1290000000	n/a	380129	FrequentVariableSOA	1750	n/a	n/a	1
381.8790000000	n/a	381879	FrequentVariableSOA	1716	n/a	n/a	1
383.5960000000	n/a	383596	NovelVariableSOA	1550	n/a	n/a	1
385.1460000000	n/a	385146	FrequentVariableSOA	1616	n/a	n/a	1
386.7620000000	n/a	386762	FrequentVariableSOA	1583	n/a	n/a	1
388.3460000000	n/a	388346	FrequentVariableSOA	1700	n/a	n/a	1
390.0460000000	n/a	390046	FrequentVariableSOA	1600	n/a	n/a	1
391.6460000000	n/a	391646	FrequentVariableSOA	1650	n/a	n/a	1
393.2960000000	n/a	393296	GoVariableSOA	389	n/a	n/a	1
395.0790000000	n/a	395079	FrequentVariableSOA	1583	n/a	n/a	1
396.6620000000	n/a	396662	FrequentVariableSOA	1766	n/a	n/a	1
398.4290000000	n/a	398429	GoVariableSOA	447	n/a	n/a	1
400.1120000000	n/a	400112	FrequentVariableSOA	1616	n/a	n/a	1
401.7290000000	n/a	401729	NovelVariableSOA	1600	n/a	n/a	1
403.3290000000	n/a	403329	FrequentVariableSOA	1616	n/a	n/a	1
404.9460000000	n/a	404946	GoVariableSOA	380	n/a	n/a	1
406.6620000000	n/a	406662	FrequentVariableSOA	1766	n/a	n/a	1
408.4290000000	n/a	408429	GoVariableSOA	343	n/a	n/a	1
410.0120000000	n/a	410012	FrequentVariableSOA	1600	n/a	n/a	1
411.6120000000	n/a	411612	FrequentVariableSOA	1583	n/a	n/a	1
413.1960000000	n/a	413196	FrequentVariableSOA	1766	n/a	n/a	1
414.9620000000	n/a	414962	FrequentVariableSOA	1616	n/a	n/a	1
416.5790000000	n/a	416579	GoVariableSOA	370	n/a	n/a	1
418.2290000000	n/a	418229	FrequentVariableSOA	1750	n/a	n/a	1
419.9790000000	n/a	419979	FrequentVariableSOA	1533	n/a	n/a	1
421.5120000000	n/a	421512	FrequentVariableSOA	1550	n/a	n/a	1
423.0620000000	n/a	423062	NovelVariableSOA	1766	n/a	n/a	1
424.8290000000	n/a	424829	FrequentVariableSOA	1533	n/a	n/a	1
426.3620000000	n/a	426362	FrequentVariableSOA	1733	n/a	n/a	1
428.0960000000	n/a	428096	FrequentVariableSOA	1583	n/a	n/a	1
429.6790000000	n/a	429679	FrequentVariableSOA	1533	n/a	n/a	1
431.2120000000	n/a	431212	NovelVariableSOA	1650	n/a	n/a	1
432.8620000000	n/a	432862	FrequentVariableSOA	1733	n/a	n/a	1
434.5960000000	n/a	434596	FrequentVariableSOA	1650	n/a	n/a	1
436.2460000000	n/a	436246	FrequentVariableSOA	1800	n/a	n/a	1
438.0460000000	n/a	438046	FrequentVariableSOA	1666	n/a	n/a	1
439.7120000000	n/a	439712	NovelVariableSOA	1650	n/a	n/a	1
441.3620000000	n/a	441362	FrequentVariableSOA	1566	n/a	n/a	1
442.9290000000	n/a	442929	FrequentVariableSOA	1666	n/a	n/a	1
444.5960000000	n/a	444596	GoVariableSOA	436	n/a	n/a	1
446.3790000000	n/a	446379	FrequentVariableSOA	1683	n/a	n/a	1
448.0620000000	n/a	448062	FrequentVariableSOA	1550	n/a	n/a	1
449.6120000000	n/a	449612	FrequentVariableSOA	1583	n/a	n/a	1
451.1960000000	n/a	451196	FrequentVariableSOA	1550	n/a	n/a	1
452.7460000000	n/a	452746	NovelVariableSOA	1800	n/a	n/a	1
454.5460000000	n/a	454546	FrequentVariableSOA	1733	n/a	n/a	1
456.2790000000	n/a	456279	FrequentVariableSOA	1583	n/a	n/a	1
457.8620000000	n/a	457862	FrequentVariableSOA	1750	n/a	n/a	1
459.6120000000	n/a	459612	FrequentVariableSOA	1500	n/a	n/a	1
461.1120000000	n/a	461112	FrequentVariableSOA	1716	n/a	n/a	1
462.8290000000	n/a	462829	GoFixedSOA	473	n/a	n/a	1
464.4620000000	n/a	464462	FrequentFixedSOA	1633	n/a	n/a	1
466.0960000000	n/a	466096	FrequentFixedSOA	1633	n/a	n/a	1
467.7290000000	n/a	467729	FrequentFixedSOA	1633	n/a	n/a	1
469.3620000000	n/a	469362	FrequentFixedSOA	1633	n/a	n/a	1
470.9960000000	n/a	470996	FrequentFixedSOA	1633	n/a	n/a	1
472.6290000000	n/a	472629	FrequentFixedSOA	1633	n/a	n/a	1
474.2620000000	n/a	474262	NovelFixedSOA	1633	n/a	n/a	1
475.8960000000	n/a	475896	FrequentFixedSOA	1633	n/a	n/a	1
477.5290000000	n/a	477529	FrequentFixedSOA	1633	n/a	n/a	1
479.1620000000	n/a	479162	FrequentFixedSOA	1633	n/a	n/a	1
480.7960000000	n/a	480796	NovelFixedSOA	1633	n/a	n/a	1
482.4290000000	n/a	482429	FrequentFixedSOA	1633	n/a	n/a	1
484.0620000000	n/a	484062	GoFixedSOA	463	n/a	n/a	1
485.6960000000	n/a	485696	FrequentFixedSOA	1633	n/a	n/a	1
487.3290000000	n/a	487329	FrequentFixedSOA	1633	n/a	n/a	1
488.9620000000	n/a	488962	GoFixedSOA	1633	n/a	n/a	0
490.5960000000	n/a	490596	FrequentFixedSOA	1633	n/a	n/a	1
492.2290000000	n/a	492229	NovelFixedSOA	1633	n/a	n/a	1
493.8620000000	n/a	493862	FrequentFixedSOA	1633	n/a	n/a	1
495.4960000000	n/a	495496	FrequentFixedSOA	1633	n/a	n/a	1
497.1290000000	n/a	497129	FrequentFixedSOA	1633	n/a	n/a	1
498.7620000000	n/a	498762	FrequentFixedSOA	1633	n/a	n/a	1
500.3960000000	n/a	500396	FrequentFixedSOA	1633	n/a	n/a	1
502.0290000000	n/a	502029	GoFixedSOA	447	n/a	n/a	1
503.6620000000	n/a	503662	FrequentFixedSOA	1633	n/a	n/a	1
505.2960000000	n/a	505296	FrequentFixedSOA	1633	n/a	n/a	1
506.9290000000	n/a	506929	NovelFixedSOA	1633	n/a	n/a	1
508.5620000000	n/a	508562	FrequentFixedSOA	1633	n/a	n/a	1
510.1960000000	n/a	510196	FrequentFixedSOA	1633	n/a	n/a	1
511.8290000000	n/a	511829	FrequentFixedSOA	1633	n/a	n/a	1
513.4620000000	n/a	513462	FrequentFixedSOA	1633	n/a	n/a	1
515.0960000000	n/a	515096	FrequentFixedSOA	1633	n/a	n/a	1
516.7290000000	n/a	516729	NovelFixedSOA	1633	n/a	n/a	1
518.3620000000	n/a	518362	FrequentFixedSOA	1633	n/a	n/a	1
519.9960000000	n/a	519996	FrequentFixedSOA	1633	n/a	n/a	1
521.6290000000	n/a	521629	FrequentFixedSOA	1633	n/a	n/a	1
523.2620000000	n/a	523262	FrequentFixedSOA	1633	n/a	n/a	1
524.8960000000	n/a	524896	GoFixedSOA	660	n/a	n/a	1
526.5290000000	n/a	526529	FrequentFixedSOA	1633	n/a	n/a	1
528.1620000000	n/a	528162	FrequentFixedSOA	1633	n/a	n/a	1
529.7960000000	n/a	529796	NovelFixedSOA	1633	n/a	n/a	1
531.4290000000	n/a	531429	FrequentFixedSOA	1633	n/a	n/a	1
533.0620000000	n/a	533062	FrequentFixedSOA	1633	n/a	n/a	1
534.6960000000	n/a	534696	NovelFixedSOA	1633	n/a	n/a	1
536.3290000000	n/a	536329	FrequentFixedSOA	1633	n/a	n/a	1
537.9620000000	n/a	537962	FrequentFixedSOA	1633	n/a	n/a	1
539.5960000000	n/a	539596	FrequentFixedSOA	1633	n/a	n/a	1
541.2290000000	n/a	541229	FrequentFixedSOA	1633	n/a	n/a	1
542.8620000000	n/a	542862	FrequentFixedSOA	1633	n/a	n/a	1
544.4960000000	n/a	544496	GoFixedSOA	1633	n/a	n/a	0
546.1290000000	n/a	546129	FrequentFixedSOA	1633	n/a	n/a	1
547.7620000000	n/a	547762	FrequentFixedSOA	1633	n/a	n/a	1
549.3960000000	n/a	549396	FrequentFixedSOA	1633	n/a	n/a	1
551.0290000000	n/a	551029	FrequentFixedSOA	1633	n/a	n/a	1
552.6620000000	n/a	552662	FrequentFixedSOA	1633	n/a	n/a	1
554.2960000000	n/a	554296	NovelFixedSOA	1633	n/a	n/a	1
555.9290000000	n/a	555929	FrequentFixedSOA	1633	n/a	n/a	1
557.5620000000	n/a	557562	GoFixedSOA	480	n/a	n/a	1
559.1960000000	n/a	559196	FrequentFixedSOA	1633	n/a	n/a	1
560.8290000000	n/a	560829	FrequentFixedSOA	1633	n/a	n/a	1
562.4620000000	n/a	562462	FrequentFixedSOA	1633	n/a	n/a	1
564.0960000000	n/a	564096	FrequentFixedSOA	1633	n/a	n/a	1
565.7290000000	n/a	565729	FrequentFixedSOA	1633	n/a	n/a	1
567.3620000000	n/a	567362	FrequentFixedSOA	1633	n/a	n/a	1
568.9960000000	n/a	568996	FrequentFixedSOA	1633	n/a	n/a	1
570.6290000000	n/a	570629	FrequentFixedSOA	1633	n/a	n/a	1
572.2620000000	n/a	572262	NovelFixedSOA	1633	n/a	n/a	1
573.8960000000	n/a	573896	FrequentFixedSOA	1633	n/a	n/a	1
575.5290000000	n/a	575529	FrequentFixedSOA	1633	n/a	n/a	1
577.1620000000	n/a	577162	GoVariableSOA	1616	n/a	n/a	0
578.7790000000	n/a	578779	FrequentVariableSOA	1600	n/a	n/a	1
580.3790000000	n/a	580379	FrequentVariableSOA	1516	n/a	n/a	1
581.8950000000	n/a	581895	FrequentVariableSOA	1600	n/a	n/a	1
583.4950000000	n/a	583495	FrequentVariableSOA	1716	n/a	n/a	1
585.2120000000	n/a	585212	FrequentVariableSOA	1583	n/a	n/a	1
586.7950000000	n/a	586795	FrequentVariableSOA	1683	n/a	n/a	1
588.4790000000	n/a	588479	NovelVariableSOA	1800	n/a	n/a	1
590.2790000000	n/a	590279	FrequentVariableSOA	1516	n/a	n/a	1
591.7950000000	n/a	591795	FrequentVariableSOA	1516	n/a	n/a	1
593.3120000000	n/a	593312	FrequentVariableSOA	1633	n/a	n/a	1
594.9450000000	n/a	594945	NovelVariableSOA	1650	n/a	n/a	1
596.5950000000	n/a	596595	FrequentVariableSOA	1766	n/a	n/a	1
598.3620000000	n/a	598362	GoVariableSOA	430	n/a	n/a	1
600.1290000000	n/a	600129	FrequentVariableSOA	1550	n/a	n/a	1
601.6790000000	n/a	601679	FrequentVariableSOA	1750	n/a	n/a	1
603.4290000000	n/a	603429	GoVariableSOA	418	n/a	n/a	1
605.1120000000	n/a	605112	FrequentVariableSOA	1516	n/a	n/a	1
606.6290000000	n/a	606629	NovelVariableSOA	1600	n/a	n/a	1
608.2290000000	n/a	608229	FrequentVariableSOA	1666	n/a	n/a	1
609.8950000000	n/a	609895	FrequentVariableSOA	1533	n/a	n/a	1
611.4290000000	n/a	611429	FrequentVariableSOA	1516	n/a	n/a	1
612.9450000000	n/a	612945	FrequentVariableSOA	1616	n/a	n/a	1
614.5620000000	n/a	614562	FrequentVariableSOA	1700	n/a	n/a	1
616.2620000000	n/a	616262	GoVariableSOA	420	n/a	n/a	1
617.8120000000	n/a	617812	FrequentVariableSOA	1683	n/a	n/a	1
619.4950000000	n/a	619495	FrequentVariableSOA	1533	n/a	n/a	1
621.0290000000	n/a	621029	NovelVariableSOA	1716	n/a	n/a	1
622.7450000000	n/a	622745	FrequentVariableSOA	1550	n/a	n/a	1
624.2950000000	n/a	624295	FrequentVariableSOA	1633	n/a	n/a	1
625.9290000000	n/a	625929	FrequentVariableSOA	1650	n/a	n/a	1
627.5790000000	n/a	627579	FrequentVariableSOA	1700	n/a	n/a	1
629.2790000000	n/a	629279	FrequentVariableSOA	1600	n/a	n/a	1
630.8790000000	n/a	630879	NovelVariableSOA	1766	n/a	n/a	1
632.6450000000	n/a	632645	FrequentVariableSOA	1666	n/a	n/a	1
634.3120000000	n/a	634312	FrequentVariableSOA	1650	n/a	n/a	1
635.9620000000	n/a	635962	FrequentVariableSOA	1566	n/a	n/a	1
637.5290000000	n/a	637529	FrequentVariableSOA	1583	n/a	n/a	1
639.1120000000	n/a	639112	GoVariableSOA	1733	n/a	n/a	0
640.8450000000	n/a	640845	FrequentVariableSOA	1666	n/a	n/a	1
642.5120000000	n/a	642512	FrequentVariableSOA	1683	n/a	n/a	1
644.1950000000	n/a	644195	NovelVariableSOA	1533	n/a	n/a	1
645.7290000000	n/a	645729	FrequentVariableSOA	1566	n/a	n/a	1
647.2950000000	n/a	647295	FrequentVariableSOA	1766	n/a	n/a	1
649.0620000000	n/a	649062	NovelVariableSOA	1516	n/a	n/a	1
650.5790000000	n/a	650579	FrequentVariableSOA	1566	n/a	n/a	1
652.1450000000	n/a	652145	FrequentVariableSOA	1683	n/a	n/a	1
653.8290000000	n/a	653829	FrequentVariableSOA	1500	n/a	n/a	1
655.3290000000	n/a	655329	FrequentVariableSOA	1583	n/a	n/a	1
656.9120000000	n/a	656912	FrequentVariableSOA	1616	n/a	n/a	1
658.5290000000	n/a	658529	GoVariableSOA	366	n/a	n/a	1
660.2950000000	n/a	660295	FrequentVariableSOA	1766	n/a	n/a	1
662.0620000000	n/a	662062	FrequentVariableSOA	1650	n/a	n/a	1
663.7120000000	n/a	663712	FrequentVariableSOA	1766	n/a	n/a	1
665.4790000000	n/a	665479	FrequentVariableSOA	1666	n/a	n/a	1
667.1450000000	n/a	667145	FrequentVariableSOA	1683	n/a	n/a	1
668.8290000000	n/a	668829	NovelVariableSOA	1650	n/a	n/a	1
670.4790000000	n/a	670479	FrequentVariableSOA	1716	n/a	n/a	1
672.1950000000	n/a	672195	GoVariableSOA	553	n/a	n/a	1
673.9450000000	n/a	673945	FrequentVariableSOA	1550	n/a	n/a	1
675.4950000000	n/a	675495	FrequentVariableSOA	1733	n/a	n/a	1
677.2290000000	n/a	677229	FrequentVariableSOA	1783	n/a	n/a	1
679.0120000000	n/a	679012	FrequentVariableSOA	1550	n/a	n/a	1
680.5620000000	n/a	680562	FrequentVariableSOA	1716	n/a	n/a	1
682.2790000000	n/a	682279	FrequentVariableSOA	1783	n/a	n/a	1
684.0620000000	n/a	684062	FrequentVariableSOA	1550	n/a	n/a	1
685.6120000000	n/a	685612	FrequentVariableSOA	1516	n/a	n/a	1
687.1290000000	n/a	687129	NovelVariableSOA	1666	n/a	n/a	1
688.7950000000	n/a	688795	FrequentVariableSOA	1533	n/a	n/a	1
690.3290000000	n/a	690329	FrequentVariableSOA	1783	n/a	n/a	1
692.1120000000	n/a	692112	GoFixedSOA	1633	n/a	n/a	0
693.7450000000	n/a	693745	FrequentFixedSOA	1633	n/a	n/a	1
695.3790000000	n/a	695379	FrequentFixedSOA	1633	n/a	n/a	1
697.0120000000	n/a	697012	FrequentFixedSOA	1633	n/a	n/a	1
698.6450000000	n/a	698645	GoFixedSOA	425	n/a	n/a	1
700.2790000000	n/a	700279	FrequentFixedSOA	1633	n/a	n/a	1
701.9120000000	n/a	701912	FrequentFixedSOA	1633	n/a	n/a	1
703.5450000000	n/a	703545	FrequentFixedSOA	1633	n/a	n/a	1
705.1790000000	n/a	705179	FrequentFixedSOA	1633	n/a	n/a	1
706.8120000000	n/a	706812	GoFixedSOA	448	n/a	n/a	1
708.4450000000	n/a	708445	FrequentFixedSOA	1633	n/a	n/a	1
710.0790000000	n/a	710079	FrequentFixedSOA	1633	n/a	n/a	1
711.7120000000	n/a	711712	NovelFixedSOA	1633	n/a	n/a	1
713.3450000000	n/a	713345	FrequentFixedSOA	1633	n/a	n/a	1
714.9790000000	n/a	714979	FrequentFixedSOA	1633	n/a	n/a	1
716.6120000000	n/a	716612	GoFixedSOA	434	n/a	n/a	1
718.2450000000	n/a	718245	FrequentFixedSOA	1633	n/a	n/a	1
719.8790000000	n/a	719879	FrequentFixedSOA	1633	n/a	n/a	1
721.5120000000	n/a	721512	FrequentFixedSOA	1633	n/a	n/a	1
723.1450000000	n/a	723145	NovelFixedSOA	1633	n/a	n/a	1
724.7790000000	n/a	724779	FrequentFixedSOA	1633	n/a	n/a	1
726.4120000000	n/a	726412	NovelFixedSOA	1633	n/a	n/a	1
728.0450000000	n/a	728045	FrequentFixedSOA	1633	n/a	n/a	1
729.6790000000	n/a	729679	FrequentFixedSOA	1633	n/a	n/a	1
731.3120000000	n/a	731312	FrequentFixedSOA	1633	n/a	n/a	1
732.9450000000	n/a	732945	GoFixedSOA	468	n/a	n/a	1
734.5790000000	n/a	734579	FrequentFixedSOA	1633	n/a	n/a	1
736.2120000000	n/a	736212	FrequentFixedSOA	1633	n/a	n/a	1
737.8450000000	n/a	737845	FrequentFixedSOA	1633	n/a	n/a	1
739.4790000000	n/a	739479	GoFixedSOA	516	n/a	n/a	1
741.1120000000	n/a	741112	FrequentFixedSOA	1633	n/a	n/a	1
742.7450000000	n/a	742745	FrequentFixedSOA	1633	n/a	n/a	1
744.3790000000	n/a	744379	NovelFixedSOA	1633	n/a	n/a	1
746.0120000000	n/a	746012	FrequentFixedSOA	1633	n/a	n/a	1
747.6450000000	n/a	747645	GoFixedSOA	417	n/a	n/a	1
749.2790000000	n/a	749279	FrequentFixedSOA	1633	n/a	n/a	1
750.9120000000	n/a	750912	FrequentFixedSOA	1633	n/a	n/a	1
752.5450000000	n/a	752545	FrequentFixedSOA	1633	n/a	n/a	1
754.1790000000	n/a	754179	FrequentFixedSOA	1633	n/a	n/a	1
755.8120000000	n/a	755812	FrequentFixedSOA	1633	n/a	n/a	1
757.4450000000	n/a	757445	FrequentFixedSOA	1633	n/a	n/a	1
759.0790000000	n/a	759079	NovelFixedSOA	1633	n/a	n/a	1
760.7120000000	n/a	760712	FrequentFixedSOA	1633	n/a	n/a	1
762.3450000000	n/a	762345	FrequentFixedSOA	1633	n/a	n/a	1
763.9790000000	n/a	763979	FrequentFixedSOA	1633	n/a	n/a	1
765.6120000000	n/a	765612	GoFixedSOA	419	n/a	n/a	1
767.2450000000	n/a	767245	FrequentFixedSOA	1633	n/a	n/a	1
768.8790000000	n/a	768879	FrequentFixedSOA	1633	n/a	n/a	1
770.5120000000	n/a	770512	FrequentFixedSOA	1633	n/a	n/a	1
772.1450000000	n/a	772145	FrequentFixedSOA	1633	n/a	n/a	1
773.7790000000	n/a	773779	NovelFixedSOA	1633	n/a	n/a	1
775.4120000000	n/a	775412	FrequentFixedSOA	1633	n/a	n/a	1
777.0450000000	n/a	777045	FrequentFixedSOA	1633	n/a	n/a	1
778.6790000000	n/a	778679	NovelFixedSOA	1633	n/a	n/a	1
780.3120000000	n/a	780312	FrequentFixedSOA	1633	n/a	n/a	1
781.9450000000	n/a	781945	NovelFixedSOA	1633	n/a	n/a	1
783.5790000000	n/a	783579	FrequentFixedSOA	1633	n/a	n/a	1
785.2120000000	n/a	785212	FrequentFixedSOA	1633	n/a	n/a	1
786.8450000000	n/a	786845	FrequentFixedSOA	1633	n/a	n/a	1
788.4790000000	n/a	788479	FrequentFixedSOA	1633	n/a	n/a	1
790.1120000000	n/a	790112	FrequentFixedSOA	1633	n/a	n/a	1
791.7450000000	n/a	791745	FrequentFixedSOA	1633	n/a	n/a	1
793.3780000000	n/a	793378	FrequentFixedSOA	1633	n/a	n/a	1
795.0120000000	n/a	795012	GoFixedSOA	475	n/a	n/a	1
796.6450000000	n/a	796645	FrequentFixedSOA	1633	n/a	n/a	1
798.2780000000	n/a	798278	GoFixedSOA	427	n/a	n/a	1
799.9120000000	n/a	799912	FrequentFixedSOA	1633	n/a	n/a	1
801.5450000000	n/a	801545	FrequentFixedSOA	1633	n/a	n/a	1
803.1780000000	n/a	803178	NovelFixedSOA	1633	n/a	n/a	1
804.8120000000	n/a	804812	FrequentFixedSOA	1633	n/a	n/a	1
806.4450000000	n/a	806445	GoVariableSOA	419	n/a	n/a	1
808.0950000000	n/a	808095	FrequentVariableSOA	1616	n/a	n/a	1
809.7120000000	n/a	809712	FrequentVariableSOA	1566	n/a	n/a	1
811.2780000000	n/a	811278	FrequentVariableSOA	1600	n/a	n/a	1
812.8780000000	n/a	812878	GoVariableSOA	469	n/a	n/a	1
814.4950000000	n/a	814495	FrequentVariableSOA	1566	n/a	n/a	1
816.0620000000	n/a	816062	FrequentVariableSOA	1650	n/a	n/a	1
817.7120000000	n/a	817712	FrequentVariableSOA	1666	n/a	n/a	1
819.3780000000	n/a	819378	FrequentVariableSOA	1600	n/a	n/a	1
820.9780000000	n/a	820978	GoVariableSOA	435	n/a	n/a	1
822.7120000000	n/a	822712	FrequentVariableSOA	1533	n/a	n/a	1
824.2450000000	n/a	824245	FrequentVariableSOA	1666	n/a	n/a	1
825.9120000000	n/a	825912	NovelVariableSOA	1516	n/a	n/a	1
827.4280000000	n/a	827428	FrequentVariableSOA	1650	n/a	n/a	1
829.0780000000	n/a	829078	FrequentVariableSOA	1616	n/a	n/a	1
830.6950000000	n/a	830695	GoVariableSOA	519	n/a	n/a	1
832.3950000000	n/a	832395	FrequentVariableSOA	1716	n/a	n/a	1
834.1120000000	n/a	834112	FrequentVariableSOA	1583	n/a	n/a	1
835.6950000000	n/a	835695	FrequentVariableSOA	1750	n/a	n/a	1
837.4450000000	n/a	837445	NovelVariableSOA	1750	n/a	n/a	1
839.1950000000	n/a	839195	FrequentVariableSOA	1600	n/a	n/a	1
840.7950000000	n/a	840795	NovelVariableSOA	1733	n/a	n/a	1
842.5280000000	n/a	842528	FrequentVariableSOA	1783	n/a	n/a	1
844.3120000000	n/a	844312	FrequentVariableSOA	1516	n/a	n/a	1
845.8280000000	n/a	845828	FrequentVariableSOA	1666	n/a	n/a	1
847.4950000000	n/a	847495	GoVariableSOA	438	n/a	n/a	1
849.2120000000	n/a	849212	FrequentVariableSOA	1683	n/a	n/a	1
850.8950000000	n/a	850895	FrequentVariableSOA	1516	n/a	n/a	1
852.4120000000	n/a	852412	FrequentVariableSOA	1783	n/a	n/a	1
854.1950000000	n/a	854195	GoVariableSOA	378	n/a	n/a	1
855.7280000000	n/a	855728	FrequentVariableSOA	1716	n/a	n/a	1
857.4450000000	n/a	857445	FrequentVariableSOA	1683	n/a	n/a	1
859.1280000000	n/a	859128	NovelVariableSOA	1583	n/a	n/a	1
860.7120000000	n/a	860712	FrequentVariableSOA	1616	n/a	n/a	1
862.3280000000	n/a	862328	GoVariableSOA	465	n/a	n/a	1
863.9780000000	n/a	863978	FrequentVariableSOA	1583	n/a	n/a	1
865.5620000000	n/a	865562	FrequentVariableSOA	1800	n/a	n/a	1
867.3620000000	n/a	867362	FrequentVariableSOA	1600	n/a	n/a	1
868.9620000000	n/a	868962	FrequentVariableSOA	1533	n/a	n/a	1
870.4950000000	n/a	870495	FrequentVariableSOA	1500	n/a	n/a	1
871.9950000000	n/a	871995	FrequentVariableSOA	1500	n/a	n/a	1
873.4950000000	n/a	873495	NovelVariableSOA	1600	n/a	n/a	1
875.0950000000	n/a	875095	FrequentVariableSOA	1766	n/a	n/a	1
876.8620000000	n/a	876862	FrequentVariableSOA	1600	n/a	n/a	1
878.4620000000	n/a	878462	FrequentVariableSOA	1500	n/a	n/a	1
879.9620000000	n/a	879962	GoVariableSOA	442	n/a	n/a	1
881.5780000000	n/a	881578	FrequentVariableSOA	1733	n/a	n/a	1
883.3120000000	n/a	883312	FrequentVariableSOA	1716	n/a	n/a	1
885.0280000000	n/a	885028	FrequentVariableSOA	1533	n/a	n/a	1
886.5620000000	n/a	886562	FrequentVariableSOA	1550	n/a	n/a	1
888.1120000000	n/a	888112	NovelVariableSOA	1666	n/a	n/a	1
889.7780000000	n/a	889778	FrequentVariableSOA	1783	n/a	n/a	1
891.5620000000	n/a	891562	FrequentVariableSOA	1750	n/a	n/a	1
893.3120000000	n/a	893312	NovelVariableSOA	1616	n/a	n/a	1
894.9280000000	n/a	894928	FrequentVariableSOA	1750	n/a	n/a	1
896.6780000000	n/a	896678	NovelVariableSOA	1633	n/a	n/a	1
898.3120000000	n/a	898312	FrequentVariableSOA	1650	n/a	n/a	1
899.9620000000	n/a	899962	FrequentVariableSOA	1516	n/a	n/a	1
901.4780000000	n/a	901478	FrequentVariableSOA	1683	n/a	n/a	1
903.1620000000	n/a	903162	FrequentVariableSOA	1550	n/a	n/a	1
904.7120000000	n/a	904712	FrequentVariableSOA	1750	n/a	n/a	1
906.4620000000	n/a	906462	FrequentVariableSOA	1733	n/a	n/a	1
908.1950000000	n/a	908195	FrequentVariableSOA	1666	n/a	n/a	1
909.8620000000	n/a	909862	GoVariableSOA	429	n/a	n/a	1
911.5450000000	n/a	911545	FrequentVariableSOA	1533	n/a	n/a	1
913.0780000000	n/a	913078	GoVariableSOA	453	n/a	n/a	1
914.8450000000	n/a	914845	FrequentVariableSOA	1716	n/a	n/a	1
916.5620000000	n/a	916562	FrequentVariableSOA	1633	n/a	n/a	1
918.1950000000	n/a	918195	NovelVariableSOA	1600	n/a	n/a	1
919.7950000000	n/a	919795	FrequentVariableSOA	1716	n/a	n/a	1
