onset	duration	sample	trial_type	response_time	stim_file	value	correct
6.0490000000	n/a	6049	ignore	n/a	n/a	n/a	n/a
9.1490000000	n/a	9149	ignore	n/a	n/a	n/a	n/a
12.1600000000	n/a	12160	ignore	n/a	n/a	n/a	n/a
27.5490000000	n/a	27549	ignore	n/a	n/a	n/a	n/a
30.6490000000	n/a	30649	ignore	n/a	n/a	n/a	n/a
33.6360000000	n/a	33636	ignore	n/a	n/a	n/a	n/a
50.7150000000	n/a	50715	NeuStim	n/a	n/a	n/a	n/a
53.8150000000	n/a	53815	NeuNonAlcP1000	n/a	n/a	n/a	n/a
58.8020000000	n/a	58802	NeuNonAlcP1000	n/a	n/a	n/a	n/a
67.3990000000	n/a	67399	PosStim	n/a	n/a	n/a	n/a
70.4320000000	n/a	70432	PosAlcStimWithoutStartle	n/a	n/a	n/a	n/a
83.8820000000	n/a	83882	NeuStim	n/a	n/a	n/a	n/a
86.9820000000	n/a	86982	NeuAlcP2000	n/a	n/a	n/a	n/a
90.9690000000	n/a	90969	NeuAlcP2000	n/a	n/a	n/a	n/a
100.5990000000	n/a	100599	NegStim	n/a	n/a	n/a	n/a
103.6990000000	n/a	103699	NegNonAlcP2000	n/a	n/a	n/a	n/a
107.6860000000	n/a	107686	NegNonAlcP2000	n/a	n/a	n/a	n/a
119.2820000000	n/a	119282	NeuStim	n/a	n/a	n/a	n/a
122.3150000000	n/a	122315	NeuNonAlcStimWithoutStartle	n/a	n/a	n/a	n/a
137.2650000000	n/a	137265	PosStim	n/a	n/a	n/a	n/a
140.3650000000	n/a	140365	PosNonAlcP1000	n/a	n/a	n/a	n/a
145.3520000000	n/a	145352	PosNonAlcP1000	n/a	n/a	n/a	n/a
153.5490000000	n/a	153549	NeuStim	n/a	n/a	n/a	n/a
156.6490000000	n/a	156649	NeuAlcP1000	n/a	n/a	n/a	n/a
161.6360000000	n/a	161636	NeuAlcP1000	n/a	n/a	n/a	n/a
171.6150000000	n/a	171615	NegStim	n/a	n/a	n/a	n/a
174.6490000000	n/a	174649	NegNonAlcStimWithoutStartle	n/a	n/a	n/a	n/a
188.3320000000	n/a	188332	NeuStim	n/a	n/a	n/a	n/a
191.4320000000	n/a	191432	NeuNonAlcP1000	n/a	n/a	n/a	n/a
196.4190000000	n/a	196419	NeuNonAlcP1000	n/a	n/a	n/a	n/a
206.4650000000	n/a	206465	NegStim	n/a	n/a	n/a	n/a
209.5650000000	n/a	209565	NegNonAlcP3000	n/a	n/a	n/a	n/a
212.5520000000	n/a	212552	NegNonAlcP3000	n/a	n/a	n/a	n/a
224.5820000000	n/a	224582	PosStim	n/a	n/a	n/a	n/a
227.6820000000	n/a	227682	PosNonAlcP3000	n/a	n/a	n/a	n/a
230.6690000000	n/a	230669	PosNonAlcP3000	n/a	n/a	n/a	n/a
243.2320000000	n/a	243232	NeuStim	n/a	n/a	n/a	n/a
246.3320000000	n/a	246332	NeuAlcP1000	n/a	n/a	n/a	n/a
251.3190000000	n/a	251319	NeuAlcP1000	n/a	n/a	n/a	n/a
263.2320000000	n/a	263232	NegStim	n/a	n/a	n/a	n/a
266.2650000000	n/a	266265	NegAlcStimWithoutStartle	n/a	n/a	n/a	n/a
282.8650000000	n/a	282865	PosStim	n/a	n/a	n/a	n/a
285.8980000000	n/a	285898	PosNonAlcStimWithoutStartle	n/a	n/a	n/a	n/a
300.4480000000	n/a	300448	NegStim	n/a	n/a	n/a	n/a
303.5480000000	n/a	303548	NegAlcP3000	n/a	n/a	n/a	n/a
306.5350000000	n/a	306535	NegAlcP3000	n/a	n/a	n/a	n/a
317.8980000000	n/a	317898	NeuStim	n/a	n/a	n/a	n/a
320.9320000000	n/a	320932	NeuAlcStimWithoutStartle	n/a	n/a	n/a	n/a
334.0820000000	n/a	334082	PosStim	n/a	n/a	n/a	n/a
337.1820000000	n/a	337182	PosNonAlcP1000	n/a	n/a	n/a	n/a
342.1690000000	n/a	342169	PosNonAlcP1000	n/a	n/a	n/a	n/a
352.1650000000	n/a	352165	NegStim	n/a	n/a	n/a	n/a
355.2650000000	n/a	355265	NegAlcP3000	n/a	n/a	n/a	n/a
358.2520000000	n/a	358252	NegAlcP3000	n/a	n/a	n/a	n/a
369.7150000000	n/a	369715	NegStim	n/a	n/a	n/a	n/a
372.7480000000	n/a	372748	NegNonAlcStimWithoutStartle	n/a	n/a	n/a	n/a
389.0320000000	n/a	389032	PosStim	n/a	n/a	n/a	n/a
392.1320000000	n/a	392132	PosAlcP1000	n/a	n/a	n/a	n/a
397.1190000000	n/a	397119	PosAlcP1000	n/a	n/a	n/a	n/a
407.3150000000	n/a	407315	NeuStim	n/a	n/a	n/a	n/a
410.3480000000	n/a	410348	NeuAlcStimWithoutStartle	n/a	n/a	n/a	n/a
426.0480000000	n/a	426048	NegStim	n/a	n/a	n/a	n/a
429.1480000000	n/a	429148	NegNonAlcP1000	n/a	n/a	n/a	n/a
434.1350000000	n/a	434135	NegNonAlcP1000	n/a	n/a	n/a	n/a
446.1650000000	n/a	446165	PosStim	n/a	n/a	n/a	n/a
449.2650000000	n/a	449265	PosAlcP3000	n/a	n/a	n/a	n/a
452.2520000000	n/a	452252	PosAlcP3000	n/a	n/a	n/a	n/a
464.0980000000	n/a	464098	NeuStim	n/a	n/a	n/a	n/a
467.1980000000	n/a	467198	NeuAlcP3000	n/a	n/a	n/a	n/a
470.1850000000	n/a	470185	NeuAlcP3000	n/a	n/a	n/a	n/a
482.2980000000	n/a	482298	NegStim	n/a	n/a	n/a	n/a
485.3310000000	n/a	485331	NegAlcStimWithoutStartle	n/a	n/a	n/a	n/a
500.1980000000	n/a	500198	PosStim	n/a	n/a	n/a	n/a
503.2980000000	n/a	503298	PosNonAlcP2000	n/a	n/a	n/a	n/a
507.2850000000	n/a	507285	PosNonAlcP2000	n/a	n/a	n/a	n/a
517.8810000000	n/a	517881	NegStim	n/a	n/a	n/a	n/a
520.9810000000	n/a	520981	NegAlcP2000	n/a	n/a	n/a	n/a
524.9680000000	n/a	524968	NegAlcP2000	n/a	n/a	n/a	n/a
534.6480000000	n/a	534648	PosStim	n/a	n/a	n/a	n/a
537.7480000000	n/a	537748	PosAlcP2000	n/a	n/a	n/a	n/a
541.7350000000	n/a	541735	PosAlcP2000	n/a	n/a	n/a	n/a
551.5150000000	n/a	551515	NeuStim	n/a	n/a	n/a	n/a
554.5480000000	n/a	554548	NeuAlcStimWithoutStartle	n/a	n/a	n/a	n/a
570.3310000000	n/a	570331	NegStim	n/a	n/a	n/a	n/a
573.4310000000	n/a	573431	NegNonAlcP1000	n/a	n/a	n/a	n/a
578.4180000000	n/a	578418	NegNonAlcP1000	n/a	n/a	n/a	n/a
586.8310000000	n/a	586831	NeuStim	n/a	n/a	n/a	n/a
589.9310000000	n/a	589931	NeuNonAlcP1000	n/a	n/a	n/a	n/a
594.9180000000	n/a	594918	NeuNonAlcP1000	n/a	n/a	n/a	n/a
605.3310000000	n/a	605331	PosStim	n/a	n/a	n/a	n/a
608.4310000000	n/a	608431	PosNonAlcP3000	n/a	n/a	n/a	n/a
611.4180000000	n/a	611418	PosNonAlcP3000	n/a	n/a	n/a	n/a
621.9650000000	n/a	621965	NeuStim	n/a	n/a	n/a	n/a
624.9980000000	n/a	624998	NeuNonAlcStimWithoutStartle	n/a	n/a	n/a	n/a
640.2810000000	n/a	640281	NegStim	n/a	n/a	n/a	n/a
643.3140000000	n/a	643314	NegNonAlcStimWithoutStartle	n/a	n/a	n/a	n/a
656.7480000000	n/a	656748	NeuStim	n/a	n/a	n/a	n/a
659.8480000000	n/a	659848	NeuNonAlcP3000	n/a	n/a	n/a	n/a
662.8350000000	n/a	662835	NeuNonAlcP3000	n/a	n/a	n/a	n/a
674.3140000000	n/a	674314	PosStim	n/a	n/a	n/a	n/a
677.4140000000	n/a	677414	PosAlcP1000	n/a	n/a	n/a	n/a
682.4010000000	n/a	682401	PosAlcP1000	n/a	n/a	n/a	n/a
691.0310000000	n/a	691031	NegStim	n/a	n/a	n/a	n/a
694.1310000000	n/a	694131	NegNonAlcP1000	n/a	n/a	n/a	n/a
699.1180000000	n/a	699118	NegNonAlcP1000	n/a	n/a	n/a	n/a
708.0980000000	n/a	708098	PosStim	n/a	n/a	n/a	n/a
711.1310000000	n/a	711131	PosNonAlcStimWithoutStartle	n/a	n/a	n/a	n/a
727.4480000000	n/a	727448	NeuStim	n/a	n/a	n/a	n/a
730.5480000000	n/a	730548	NeuAlcP2000	n/a	n/a	n/a	n/a
734.5350000000	n/a	734535	NeuAlcP2000	n/a	n/a	n/a	n/a
744.8480000000	n/a	744848	PosStim	n/a	n/a	n/a	n/a
747.9480000000	n/a	747948	PosAlcP1000	n/a	n/a	n/a	n/a
752.9350000000	n/a	752935	PosAlcP1000	n/a	n/a	n/a	n/a
761.2980000000	n/a	761298	NegStim	n/a	n/a	n/a	n/a
764.3310000000	n/a	764331	NegNonAlcStimWithoutStartle	n/a	n/a	n/a	n/a
779.2980000000	n/a	779298	PosStim	n/a	n/a	n/a	n/a
782.3980000000	n/a	782398	PosNonAlcP2000	n/a	n/a	n/a	n/a
786.3850000000	n/a	786385	PosNonAlcP2000	n/a	n/a	n/a	n/a
797.4640000000	n/a	797464	NegStim	n/a	n/a	n/a	n/a
800.5640000000	n/a	800564	NegNonAlcP3000	n/a	n/a	n/a	n/a
803.5510000000	n/a	803551	NegNonAlcP3000	n/a	n/a	n/a	n/a
814.6810000000	n/a	814681	NeuStim	n/a	n/a	n/a	n/a
817.7810000000	n/a	817781	NeuNonAlcP2000	n/a	n/a	n/a	n/a
821.7680000000	n/a	821768	NeuNonAlcP2000	n/a	n/a	n/a	n/a
832.0310000000	n/a	832031	NegStim	n/a	n/a	n/a	n/a
835.0640000000	n/a	835064	NegAlcStimWithoutStartle	n/a	n/a	n/a	n/a
849.2810000000	n/a	849281	PosStim	n/a	n/a	n/a	n/a
852.3140000000	n/a	852314	PosAlcStimWithoutStartle	n/a	n/a	n/a	n/a
866.5480000000	n/a	866548	NeuStim	n/a	n/a	n/a	n/a
869.6480000000	n/a	869648	NeuAlcP3000	n/a	n/a	n/a	n/a
872.6350000000	n/a	872635	NeuAlcP3000	n/a	n/a	n/a	n/a
886.6470000000	n/a	886647	NegStim	n/a	n/a	n/a	n/a
889.7470000000	n/a	889747	NegNonAlcP1000	n/a	n/a	n/a	n/a
894.7350000000	n/a	894735	NegNonAlcP1000	n/a	n/a	n/a	n/a
904.0140000000	n/a	904014	NeuStim	n/a	n/a	n/a	n/a
907.1140000000	n/a	907114	NeuNonAlcP2000	n/a	n/a	n/a	n/a
911.1010000000	n/a	911101	NeuNonAlcP2000	n/a	n/a	n/a	n/a
921.5140000000	n/a	921514	PosStim	n/a	n/a	n/a	n/a
924.5470000000	n/a	924547	PosAlcStimWithoutStartle	n/a	n/a	n/a	n/a
939.1140000000	n/a	939114	NegStim	n/a	n/a	n/a	n/a
942.2140000000	n/a	942214	NegNonAlcP2000	n/a	n/a	n/a	n/a
946.2010000000	n/a	946201	NegNonAlcP2000	n/a	n/a	n/a	n/a
959.1640000000	n/a	959164	NeuStim	n/a	n/a	n/a	n/a
962.2640000000	n/a	962264	NeuAlcP1000	n/a	n/a	n/a	n/a
967.2510000000	n/a	967251	NeuAlcP1000	n/a	n/a	n/a	n/a
