onset	duration	sample	trial_type	response_time	stim_file	value	correct
0.2160000000	n/a	216	FrequentFixedSOA	1633	n/a	n/a	1
1.8490000000	n/a	1849	FrequentFixedSOA	1633	n/a	n/a	1
3.4830000000	n/a	3483	FrequentFixedSOA	1633	n/a	n/a	1
5.1160000000	n/a	5116	FrequentFixedSOA	1633	n/a	n/a	1
6.7490000000	n/a	6749	FrequentFixedSOA	1633	n/a	n/a	1
8.3830000000	n/a	8383	FrequentFixedSOA	1633	n/a	n/a	1
10.0160000000	n/a	10016	FrequentFixedSOA	1633	n/a	n/a	1
11.6490000000	n/a	11649	FrequentFixedSOA	1633	n/a	n/a	1
13.2830000000	n/a	13283	FrequentFixedSOA	1633	n/a	n/a	1
14.9160000000	n/a	14916	NovelFixedSOA	1633	n/a	n/a	1
16.5490000000	n/a	16549	FrequentFixedSOA	1633	n/a	n/a	1
18.1830000000	n/a	18183	GoFixedSOA	508	n/a	n/a	1
19.8160000000	n/a	19816	FrequentFixedSOA	1633	n/a	n/a	1
21.4490000000	n/a	21449	FrequentFixedSOA	1633	n/a	n/a	1
23.0830000000	n/a	23083	FrequentFixedSOA	1633	n/a	n/a	1
24.7160000000	n/a	24716	GoFixedSOA	595	n/a	n/a	1
26.3490000000	n/a	26349	FrequentFixedSOA	1633	n/a	n/a	1
27.9820000000	n/a	27982	FrequentFixedSOA	1633	n/a	n/a	1
29.6160000000	n/a	29616	FrequentFixedSOA	1633	n/a	n/a	1
31.2490000000	n/a	31249	NovelFixedSOA	1633	n/a	n/a	1
32.8820000000	n/a	32882	FrequentFixedSOA	1633	n/a	n/a	1
34.5160000000	n/a	34516	FrequentFixedSOA	1633	n/a	n/a	1
36.1490000000	n/a	36149	FrequentFixedSOA	1633	n/a	n/a	1
37.7820000000	n/a	37782	GoFixedSOA	414	n/a	n/a	1
39.4160000000	n/a	39416	FrequentFixedSOA	1633	n/a	n/a	1
41.0490000000	n/a	41049	NovelFixedSOA	1633	n/a	n/a	1
42.6820000000	n/a	42682	FrequentFixedSOA	1633	n/a	n/a	1
44.3160000000	n/a	44316	FrequentFixedSOA	1633	n/a	n/a	1
45.9490000000	n/a	45949	FrequentFixedSOA	1633	n/a	n/a	1
47.5820000000	n/a	47582	GoFixedSOA	436	n/a	n/a	1
49.2160000000	n/a	49216	FrequentFixedSOA	1633	n/a	n/a	1
50.8490000000	n/a	50849	GoFixedSOA	534	n/a	n/a	1
52.4820000000	n/a	52482	FrequentFixedSOA	1633	n/a	n/a	1
54.1160000000	n/a	54116	FrequentFixedSOA	1633	n/a	n/a	1
55.7490000000	n/a	55749	GoFixedSOA	537	n/a	n/a	1
57.3820000000	n/a	57382	FrequentFixedSOA	1633	n/a	n/a	1
59.0160000000	n/a	59016	FrequentFixedSOA	1633	n/a	n/a	1
60.6490000000	n/a	60649	FrequentFixedSOA	1633	n/a	n/a	1
62.2820000000	n/a	62282	FrequentFixedSOA	1633	n/a	n/a	1
63.9160000000	n/a	63916	NovelFixedSOA	1633	n/a	n/a	1
65.5490000000	n/a	65549	FrequentFixedSOA	1633	n/a	n/a	1
67.1820000000	n/a	67182	NovelFixedSOA	1633	n/a	n/a	1
68.8160000000	n/a	68816	FrequentFixedSOA	1633	n/a	n/a	1
70.4490000000	n/a	70449	FrequentFixedSOA	1633	n/a	n/a	1
72.0820000000	n/a	72082	GoFixedSOA	500	n/a	n/a	1
73.7160000000	n/a	73716	FrequentFixedSOA	1633	n/a	n/a	1
75.3490000000	n/a	75349	FrequentFixedSOA	1633	n/a	n/a	1
76.9820000000	n/a	76982	FrequentFixedSOA	1633	n/a	n/a	1
78.6160000000	n/a	78616	FrequentFixedSOA	1633	n/a	n/a	1
80.2490000000	n/a	80249	NovelFixedSOA	1633	n/a	n/a	1
81.8820000000	n/a	81882	FrequentFixedSOA	1633	n/a	n/a	1
83.5160000000	n/a	83516	FrequentFixedSOA	1633	n/a	n/a	1
85.1490000000	n/a	85149	FrequentFixedSOA	1633	n/a	n/a	1
86.7820000000	n/a	86782	FrequentFixedSOA	1633	n/a	n/a	1
88.4160000000	n/a	88416	GoFixedSOA	498	n/a	n/a	1
90.0490000000	n/a	90049	FrequentFixedSOA	1633	n/a	n/a	1
91.6820000000	n/a	91682	FrequentFixedSOA	1633	n/a	n/a	1
93.3160000000	n/a	93316	NovelFixedSOA	1633	n/a	n/a	1
94.9490000000	n/a	94949	FrequentFixedSOA	1633	n/a	n/a	1
96.5820000000	n/a	96582	FrequentFixedSOA	1633	n/a	n/a	1
98.2160000000	n/a	98216	GoFixedSOA	563	n/a	n/a	1
99.8490000000	n/a	99849	FrequentFixedSOA	1633	n/a	n/a	1
101.4820000000	n/a	101482	FrequentFixedSOA	1633	n/a	n/a	1
103.1160000000	n/a	103116	FrequentFixedSOA	1633	n/a	n/a	1
104.7490000000	n/a	104749	FrequentFixedSOA	1633	n/a	n/a	1
106.3820000000	n/a	106382	NovelFixedSOA	1633	n/a	n/a	1
108.0160000000	n/a	108016	FrequentFixedSOA	1633	n/a	n/a	1
109.6490000000	n/a	109649	FrequentFixedSOA	1633	n/a	n/a	1
111.2820000000	n/a	111282	GoFixedSOA	478	n/a	n/a	1
112.9160000000	n/a	112916	FrequentVariableSOA	1583	n/a	n/a	1
114.4990000000	n/a	114499	FrequentVariableSOA	1666	n/a	n/a	1
116.1660000000	n/a	116166	FrequentVariableSOA	1700	n/a	n/a	1
117.8660000000	n/a	117866	FrequentVariableSOA	1616	n/a	n/a	1
119.4820000000	n/a	119482	FrequentVariableSOA	1650	n/a	n/a	1
121.1320000000	n/a	121132	FrequentVariableSOA	1750	n/a	n/a	1
122.8820000000	n/a	122882	FrequentVariableSOA	1583	n/a	n/a	1
124.4660000000	n/a	124466	FrequentVariableSOA	1650	n/a	n/a	1
126.1160000000	n/a	126116	FrequentVariableSOA	1716	n/a	n/a	1
127.8320000000	n/a	127832	FrequentVariableSOA	1550	n/a	n/a	1
129.3820000000	n/a	129382	NovelVariableSOA	1766	n/a	n/a	1
131.1490000000	n/a	131149	FrequentVariableSOA	1750	n/a	n/a	1
132.8990000000	n/a	132899	GoVariableSOA	490	n/a	n/a	1
134.5490000000	n/a	134549	FrequentVariableSOA	1766	n/a	n/a	1
136.3160000000	n/a	136316	FrequentVariableSOA	1616	n/a	n/a	1
137.9320000000	n/a	137932	FrequentVariableSOA	1533	n/a	n/a	1
139.4660000000	n/a	139466	GoVariableSOA	501	n/a	n/a	1
141.0490000000	n/a	141049	FrequentVariableSOA	1716	n/a	n/a	1
142.7660000000	n/a	142766	FrequentVariableSOA	1633	n/a	n/a	1
144.3990000000	n/a	144399	FrequentVariableSOA	1650	n/a	n/a	1
146.0490000000	n/a	146049	NovelVariableSOA	1616	n/a	n/a	1
147.6660000000	n/a	147666	FrequentVariableSOA	1650	n/a	n/a	1
149.3160000000	n/a	149316	FrequentVariableSOA	1550	n/a	n/a	1
150.8660000000	n/a	150866	FrequentVariableSOA	1800	n/a	n/a	1
152.6660000000	n/a	152666	GoVariableSOA	581	n/a	n/a	1
154.3490000000	n/a	154349	FrequentVariableSOA	1550	n/a	n/a	1
155.8990000000	n/a	155899	NovelVariableSOA	1716	n/a	n/a	1
157.6160000000	n/a	157616	FrequentVariableSOA	1666	n/a	n/a	1
159.2820000000	n/a	159282	FrequentVariableSOA	1566	n/a	n/a	1
160.8490000000	n/a	160849	FrequentVariableSOA	1566	n/a	n/a	1
162.4160000000	n/a	162416	GoVariableSOA	470	n/a	n/a	1
164.1990000000	n/a	164199	FrequentVariableSOA	1800	n/a	n/a	1
165.9990000000	n/a	165999	GoVariableSOA	415	n/a	n/a	1
167.6990000000	n/a	167699	FrequentVariableSOA	1766	n/a	n/a	1
169.4660000000	n/a	169466	FrequentVariableSOA	1566	n/a	n/a	1
171.0320000000	n/a	171032	GoVariableSOA	436	n/a	n/a	1
172.6160000000	n/a	172616	FrequentVariableSOA	1633	n/a	n/a	1
174.2490000000	n/a	174249	FrequentVariableSOA	1633	n/a	n/a	1
175.8820000000	n/a	175882	FrequentVariableSOA	1683	n/a	n/a	1
177.5660000000	n/a	177566	FrequentVariableSOA	1533	n/a	n/a	1
179.0990000000	n/a	179099	NovelVariableSOA	1716	n/a	n/a	1
180.8160000000	n/a	180816	FrequentVariableSOA	1516	n/a	n/a	1
182.3320000000	n/a	182332	NovelVariableSOA	1766	n/a	n/a	1
184.0990000000	n/a	184099	FrequentVariableSOA	1616	n/a	n/a	1
185.7160000000	n/a	185716	FrequentVariableSOA	1683	n/a	n/a	1
187.3990000000	n/a	187399	GoVariableSOA	458	n/a	n/a	1
189.1660000000	n/a	189166	FrequentVariableSOA	1583	n/a	n/a	1
190.7490000000	n/a	190749	FrequentVariableSOA	1566	n/a	n/a	1
192.3160000000	n/a	192316	FrequentVariableSOA	1516	n/a	n/a	1
193.8320000000	n/a	193832	FrequentVariableSOA	1600	n/a	n/a	1
195.4320000000	n/a	195432	NovelVariableSOA	1516	n/a	n/a	1
196.9490000000	n/a	196949	FrequentVariableSOA	1516	n/a	n/a	1
198.4660000000	n/a	198466	FrequentVariableSOA	1750	n/a	n/a	1
200.2160000000	n/a	200216	FrequentVariableSOA	1550	n/a	n/a	1
201.7660000000	n/a	201766	FrequentVariableSOA	1650	n/a	n/a	1
203.4160000000	n/a	203416	GoVariableSOA	464	n/a	n/a	1
205.0990000000	n/a	205099	FrequentVariableSOA	1583	n/a	n/a	1
206.6820000000	n/a	206682	FrequentVariableSOA	1516	n/a	n/a	1
208.1990000000	n/a	208199	NovelVariableSOA	1766	n/a	n/a	1
209.9660000000	n/a	209966	FrequentVariableSOA	1600	n/a	n/a	1
211.5660000000	n/a	211566	FrequentVariableSOA	1733	n/a	n/a	1
213.2990000000	n/a	213299	GoVariableSOA	530	n/a	n/a	1
214.9320000000	n/a	214932	FrequentVariableSOA	1566	n/a	n/a	1
216.4990000000	n/a	216499	FrequentVariableSOA	1533	n/a	n/a	1
218.0320000000	n/a	218032	FrequentVariableSOA	1566	n/a	n/a	1
219.5990000000	n/a	219599	FrequentVariableSOA	1716	n/a	n/a	1
221.3160000000	n/a	221316	NovelVariableSOA	1733	n/a	n/a	1
223.0490000000	n/a	223049	FrequentVariableSOA	1650	n/a	n/a	1
224.6990000000	n/a	224699	FrequentVariableSOA	1700	n/a	n/a	1
226.3990000000	n/a	226399	GoVariableSOA	487	n/a	n/a	1
228.0150000000	n/a	228015	FrequentFixedSOA	1633	n/a	n/a	1
229.6490000000	n/a	229649	FrequentFixedSOA	1633	n/a	n/a	1
231.2820000000	n/a	231282	FrequentFixedSOA	1633	n/a	n/a	1
232.9150000000	n/a	232915	GoFixedSOA	393	n/a	n/a	1
234.5490000000	n/a	234549	FrequentFixedSOA	1633	n/a	n/a	1
236.1820000000	n/a	236182	FrequentFixedSOA	1633	n/a	n/a	1
237.8150000000	n/a	237815	FrequentFixedSOA	1633	n/a	n/a	1
239.4490000000	n/a	239449	GoFixedSOA	422	n/a	n/a	1
241.0820000000	n/a	241082	FrequentFixedSOA	1633	n/a	n/a	1
242.7150000000	n/a	242715	FrequentFixedSOA	1633	n/a	n/a	1
244.3490000000	n/a	244349	FrequentFixedSOA	1633	n/a	n/a	1
245.9820000000	n/a	245982	NovelFixedSOA	1633	n/a	n/a	1
247.6150000000	n/a	247615	FrequentFixedSOA	1633	n/a	n/a	1
249.2490000000	n/a	249249	NovelFixedSOA	1633	n/a	n/a	1
250.8820000000	n/a	250882	FrequentFixedSOA	1633	n/a	n/a	1
252.5150000000	n/a	252515	FrequentFixedSOA	1633	n/a	n/a	1
254.1490000000	n/a	254149	NovelFixedSOA	1633	n/a	n/a	1
255.7820000000	n/a	255782	FrequentFixedSOA	1633	n/a	n/a	1
257.4150000000	n/a	257415	FrequentFixedSOA	1633	n/a	n/a	1
259.0490000000	n/a	259049	FrequentFixedSOA	1633	n/a	n/a	1
260.6820000000	n/a	260682	FrequentFixedSOA	1633	n/a	n/a	1
262.3150000000	n/a	262315	FrequentFixedSOA	1633	n/a	n/a	1
263.9490000000	n/a	263949	NovelFixedSOA	1633	n/a	n/a	1
265.5820000000	n/a	265582	FrequentFixedSOA	1633	n/a	n/a	1
267.2150000000	n/a	267215	FrequentFixedSOA	1633	n/a	n/a	1
268.8490000000	n/a	268849	FrequentFixedSOA	1633	n/a	n/a	1
270.4820000000	n/a	270482	FrequentFixedSOA	1633	n/a	n/a	1
272.1150000000	n/a	272115	FrequentFixedSOA	1633	n/a	n/a	1
273.7490000000	n/a	273749	GoFixedSOA	512	n/a	n/a	1
275.3820000000	n/a	275382	FrequentFixedSOA	1633	n/a	n/a	1
277.0150000000	n/a	277015	FrequentFixedSOA	1633	n/a	n/a	1
278.6490000000	n/a	278649	GoFixedSOA	623	n/a	n/a	1
280.2820000000	n/a	280282	FrequentFixedSOA	1633	n/a	n/a	1
281.9150000000	n/a	281915	NovelFixedSOA	1633	n/a	n/a	1
283.5490000000	n/a	283549	FrequentFixedSOA	1633	n/a	n/a	1
285.1820000000	n/a	285182	GoFixedSOA	427	n/a	n/a	1
286.8150000000	n/a	286815	FrequentFixedSOA	1633	n/a	n/a	1
288.4490000000	n/a	288449	GoFixedSOA	532	n/a	n/a	1
290.0820000000	n/a	290082	FrequentFixedSOA	1633	n/a	n/a	1
291.7150000000	n/a	291715	FrequentFixedSOA	1633	n/a	n/a	1
293.3490000000	n/a	293349	FrequentFixedSOA	1633	n/a	n/a	1
294.9820000000	n/a	294982	FrequentFixedSOA	1633	n/a	n/a	1
296.6150000000	n/a	296615	GoFixedSOA	458	n/a	n/a	1
298.2490000000	n/a	298249	FrequentFixedSOA	1633	n/a	n/a	1
299.8820000000	n/a	299882	FrequentFixedSOA	1633	n/a	n/a	1
301.5150000000	n/a	301515	FrequentFixedSOA	1633	n/a	n/a	1
303.1490000000	n/a	303149	NovelFixedSOA	1633	n/a	n/a	1
304.7820000000	n/a	304782	FrequentFixedSOA	1633	n/a	n/a	1
306.4150000000	n/a	306415	FrequentFixedSOA	1633	n/a	n/a	1
308.0490000000	n/a	308049	FrequentFixedSOA	1633	n/a	n/a	1
309.6820000000	n/a	309682	FrequentFixedSOA	1633	n/a	n/a	1
311.3150000000	n/a	311315	NovelFixedSOA	1633	n/a	n/a	1
312.9490000000	n/a	312949	FrequentFixedSOA	1633	n/a	n/a	1
314.5820000000	n/a	314582	FrequentFixedSOA	1633	n/a	n/a	1
316.2150000000	n/a	316215	FrequentFixedSOA	1633	n/a	n/a	1
317.8490000000	n/a	317849	FrequentFixedSOA	1633	n/a	n/a	1
319.4820000000	n/a	319482	NovelFixedSOA	1633	n/a	n/a	1
321.1150000000	n/a	321115	FrequentFixedSOA	1633	n/a	n/a	1
322.7490000000	n/a	322749	FrequentFixedSOA	1633	n/a	n/a	1
324.3820000000	n/a	324382	GoFixedSOA	503	n/a	n/a	1
326.0150000000	n/a	326015	FrequentFixedSOA	1633	n/a	n/a	1
327.6490000000	n/a	327649	FrequentFixedSOA	1633	n/a	n/a	1
329.2820000000	n/a	329282	FrequentFixedSOA	1633	n/a	n/a	1
330.9150000000	n/a	330915	FrequentFixedSOA	1633	n/a	n/a	1
332.5490000000	n/a	332549	NovelFixedSOA	1633	n/a	n/a	1
334.1820000000	n/a	334182	FrequentFixedSOA	1633	n/a	n/a	1
335.8150000000	n/a	335815	FrequentFixedSOA	1633	n/a	n/a	1
337.4490000000	n/a	337449	FrequentFixedSOA	1633	n/a	n/a	1
339.0820000000	n/a	339082	FrequentFixedSOA	1633	n/a	n/a	1
340.7150000000	n/a	340715	FrequentFixedSOA	1633	n/a	n/a	1
342.3490000000	n/a	342349	FrequentVariableSOA	1550	n/a	n/a	1
343.8990000000	n/a	343899	FrequentVariableSOA	1716	n/a	n/a	1
345.6150000000	n/a	345615	FrequentVariableSOA	1616	n/a	n/a	1
347.2320000000	n/a	347232	GoVariableSOA	444	n/a	n/a	1
348.7320000000	n/a	348732	FrequentVariableSOA	1800	n/a	n/a	1
350.5320000000	n/a	350532	FrequentVariableSOA	1666	n/a	n/a	1
352.1990000000	n/a	352199	FrequentVariableSOA	1633	n/a	n/a	1
353.8320000000	n/a	353832	GoVariableSOA	452	n/a	n/a	1
355.3490000000	n/a	355349	FrequentVariableSOA	1783	n/a	n/a	1
357.1320000000	n/a	357132	FrequentVariableSOA	1550	n/a	n/a	1
358.6820000000	n/a	358682	FrequentVariableSOA	1583	n/a	n/a	1
360.2650000000	n/a	360265	NovelVariableSOA	1700	n/a	n/a	1
361.9650000000	n/a	361965	FrequentVariableSOA	1583	n/a	n/a	1
363.5490000000	n/a	363549	NovelVariableSOA	1516	n/a	n/a	1
365.0650000000	n/a	365065	FrequentVariableSOA	1716	n/a	n/a	1
366.7820000000	n/a	366782	FrequentVariableSOA	1750	n/a	n/a	1
368.5320000000	n/a	368532	NovelVariableSOA	1516	n/a	n/a	1
370.0490000000	n/a	370049	FrequentVariableSOA	1683	n/a	n/a	1
371.7320000000	n/a	371732	FrequentVariableSOA	1800	n/a	n/a	1
373.5320000000	n/a	373532	FrequentVariableSOA	1800	n/a	n/a	1
375.3320000000	n/a	375332	FrequentVariableSOA	1733	n/a	n/a	1
377.0650000000	n/a	377065	FrequentVariableSOA	1750	n/a	n/a	1
378.8150000000	n/a	378815	NovelVariableSOA	1616	n/a	n/a	1
380.4320000000	n/a	380432	FrequentVariableSOA	1766	n/a	n/a	1
382.1990000000	n/a	382199	FrequentVariableSOA	1766	n/a	n/a	1
383.9650000000	n/a	383965	FrequentVariableSOA	1716	n/a	n/a	1
385.6820000000	n/a	385682	FrequentVariableSOA	1733	n/a	n/a	1
387.4150000000	n/a	387415	FrequentVariableSOA	1650	n/a	n/a	1
389.0650000000	n/a	389065	GoVariableSOA	413	n/a	n/a	1
390.7820000000	n/a	390782	FrequentVariableSOA	1750	n/a	n/a	1
392.5320000000	n/a	392532	FrequentVariableSOA	1500	n/a	n/a	1
394.0320000000	n/a	394032	GoVariableSOA	422	n/a	n/a	1
395.6820000000	n/a	395682	FrequentVariableSOA	1533	n/a	n/a	1
397.2150000000	n/a	397215	NovelVariableSOA	1583	n/a	n/a	1
398.7990000000	n/a	398799	FrequentVariableSOA	1516	n/a	n/a	1
400.3150000000	n/a	400315	GoVariableSOA	432	n/a	n/a	1
401.8490000000	n/a	401849	FrequentVariableSOA	1783	n/a	n/a	1
403.6320000000	n/a	403632	GoVariableSOA	505	n/a	n/a	1
405.2150000000	n/a	405215	FrequentVariableSOA	1633	n/a	n/a	1
406.8490000000	n/a	406849	FrequentVariableSOA	1566	n/a	n/a	1
408.4150000000	n/a	408415	FrequentVariableSOA	1800	n/a	n/a	1
410.2150000000	n/a	410215	FrequentVariableSOA	1700	n/a	n/a	1
411.9150000000	n/a	411915	GoVariableSOA	425	n/a	n/a	1
413.7150000000	n/a	413715	FrequentVariableSOA	1716	n/a	n/a	1
415.4320000000	n/a	415432	FrequentVariableSOA	1650	n/a	n/a	1
417.0820000000	n/a	417082	FrequentVariableSOA	1766	n/a	n/a	1
418.8490000000	n/a	418849	NovelVariableSOA	1600	n/a	n/a	1
420.4480000000	n/a	420448	FrequentVariableSOA	1733	n/a	n/a	1
422.1820000000	n/a	422182	FrequentVariableSOA	1766	n/a	n/a	1
423.9480000000	n/a	423948	FrequentVariableSOA	1750	n/a	n/a	1
425.6980000000	n/a	425698	FrequentVariableSOA	1733	n/a	n/a	1
427.4320000000	n/a	427432	NovelVariableSOA	1783	n/a	n/a	1
429.2150000000	n/a	429215	FrequentVariableSOA	1650	n/a	n/a	1
430.8650000000	n/a	430865	FrequentVariableSOA	1800	n/a	n/a	1
432.6650000000	n/a	432665	FrequentVariableSOA	1650	n/a	n/a	1
434.3150000000	n/a	434315	FrequentVariableSOA	1666	n/a	n/a	1
435.9820000000	n/a	435982	NovelVariableSOA	1766	n/a	n/a	1
437.7480000000	n/a	437748	FrequentVariableSOA	1750	n/a	n/a	1
439.4980000000	n/a	439498	FrequentVariableSOA	1716	n/a	n/a	1
441.2150000000	n/a	441215	GoVariableSOA	429	n/a	n/a	1
442.9320000000	n/a	442932	FrequentVariableSOA	1600	n/a	n/a	1
444.5320000000	n/a	444532	FrequentVariableSOA	1550	n/a	n/a	1
446.0820000000	n/a	446082	FrequentVariableSOA	1566	n/a	n/a	1
447.6480000000	n/a	447648	FrequentVariableSOA	1700	n/a	n/a	1
449.3480000000	n/a	449348	NovelVariableSOA	1683	n/a	n/a	1
451.0320000000	n/a	451032	FrequentVariableSOA	1600	n/a	n/a	1
452.6320000000	n/a	452632	FrequentVariableSOA	1666	n/a	n/a	1
454.2980000000	n/a	454298	FrequentVariableSOA	1583	n/a	n/a	1
455.8820000000	n/a	455882	FrequentVariableSOA	1533	n/a	n/a	1
457.4150000000	n/a	457415	FrequentVariableSOA	1666	n/a	n/a	1
459.0820000000	n/a	459082	GoFixedSOA	460	n/a	n/a	1
460.7150000000	n/a	460715	FrequentFixedSOA	1633	n/a	n/a	1
462.3480000000	n/a	462348	FrequentFixedSOA	1633	n/a	n/a	1
463.9820000000	n/a	463982	FrequentFixedSOA	1633	n/a	n/a	1
465.6150000000	n/a	465615	FrequentFixedSOA	1633	n/a	n/a	1
467.2480000000	n/a	467248	FrequentFixedSOA	1633	n/a	n/a	1
468.8820000000	n/a	468882	FrequentFixedSOA	1633	n/a	n/a	1
470.5150000000	n/a	470515	NovelFixedSOA	1633	n/a	n/a	1
472.1480000000	n/a	472148	FrequentFixedSOA	1633	n/a	n/a	1
473.7820000000	n/a	473782	FrequentFixedSOA	1633	n/a	n/a	1
475.4150000000	n/a	475415	FrequentFixedSOA	1633	n/a	n/a	1
477.0480000000	n/a	477048	NovelFixedSOA	1633	n/a	n/a	1
478.6820000000	n/a	478682	FrequentFixedSOA	1633	n/a	n/a	1
480.3150000000	n/a	480315	GoFixedSOA	456	n/a	n/a	1
481.9480000000	n/a	481948	FrequentFixedSOA	1633	n/a	n/a	1
483.5820000000	n/a	483582	FrequentFixedSOA	1633	n/a	n/a	1
485.2150000000	n/a	485215	GoFixedSOA	472	n/a	n/a	1
486.8480000000	n/a	486848	FrequentFixedSOA	1633	n/a	n/a	1
488.4820000000	n/a	488482	NovelFixedSOA	1633	n/a	n/a	1
490.1150000000	n/a	490115	FrequentFixedSOA	1633	n/a	n/a	1
491.7480000000	n/a	491748	FrequentFixedSOA	1633	n/a	n/a	1
493.3820000000	n/a	493382	FrequentFixedSOA	1633	n/a	n/a	1
495.0150000000	n/a	495015	FrequentFixedSOA	1633	n/a	n/a	1
496.6480000000	n/a	496648	FrequentFixedSOA	1633	n/a	n/a	1
498.2820000000	n/a	498282	GoFixedSOA	455	n/a	n/a	1
499.9150000000	n/a	499915	FrequentFixedSOA	1633	n/a	n/a	1
501.5480000000	n/a	501548	FrequentFixedSOA	1633	n/a	n/a	1
503.1820000000	n/a	503182	NovelFixedSOA	1633	n/a	n/a	1
504.8150000000	n/a	504815	FrequentFixedSOA	1633	n/a	n/a	1
506.4480000000	n/a	506448	FrequentFixedSOA	1633	n/a	n/a	1
508.0820000000	n/a	508082	FrequentFixedSOA	1633	n/a	n/a	1
509.7150000000	n/a	509715	FrequentFixedSOA	1633	n/a	n/a	1
511.3480000000	n/a	511348	FrequentFixedSOA	1633	n/a	n/a	1
512.9820000000	n/a	512982	NovelFixedSOA	1633	n/a	n/a	1
514.6150000000	n/a	514615	FrequentFixedSOA	1633	n/a	n/a	1
516.2480000000	n/a	516248	FrequentFixedSOA	1633	n/a	n/a	1
517.8820000000	n/a	517882	FrequentFixedSOA	1633	n/a	n/a	1
519.5150000000	n/a	519515	FrequentFixedSOA	1633	n/a	n/a	1
521.1480000000	n/a	521148	GoFixedSOA	418	n/a	n/a	1
522.7820000000	n/a	522782	FrequentFixedSOA	1633	n/a	n/a	1
524.4150000000	n/a	524415	FrequentFixedSOA	1633	n/a	n/a	1
526.0480000000	n/a	526048	NovelFixedSOA	1633	n/a	n/a	1
527.6820000000	n/a	527682	FrequentFixedSOA	1633	n/a	n/a	1
529.3150000000	n/a	529315	FrequentFixedSOA	1633	n/a	n/a	1
530.9480000000	n/a	530948	NovelFixedSOA	1633	n/a	n/a	1
532.5820000000	n/a	532582	FrequentFixedSOA	1633	n/a	n/a	1
534.2150000000	n/a	534215	FrequentFixedSOA	1633	n/a	n/a	1
535.8480000000	n/a	535848	FrequentFixedSOA	1633	n/a	n/a	1
537.4820000000	n/a	537482	FrequentFixedSOA	1633	n/a	n/a	1
539.1150000000	n/a	539115	FrequentFixedSOA	1633	n/a	n/a	1
540.7480000000	n/a	540748	GoFixedSOA	426	n/a	n/a	1
542.3820000000	n/a	542382	FrequentFixedSOA	1633	n/a	n/a	1
544.0150000000	n/a	544015	FrequentFixedSOA	1633	n/a	n/a	1
545.6480000000	n/a	545648	FrequentFixedSOA	1633	n/a	n/a	1
547.2820000000	n/a	547282	FrequentFixedSOA	1633	n/a	n/a	1
548.9150000000	n/a	548915	FrequentFixedSOA	1633	n/a	n/a	1
550.5480000000	n/a	550548	NovelFixedSOA	1633	n/a	n/a	1
552.1820000000	n/a	552182	FrequentFixedSOA	1633	n/a	n/a	1
553.8150000000	n/a	553815	GoFixedSOA	382	n/a	n/a	1
555.4480000000	n/a	555448	FrequentFixedSOA	1633	n/a	n/a	1
557.0820000000	n/a	557082	FrequentFixedSOA	1633	n/a	n/a	1
558.7150000000	n/a	558715	FrequentFixedSOA	1633	n/a	n/a	1
560.3480000000	n/a	560348	FrequentFixedSOA	1633	n/a	n/a	1
561.9820000000	n/a	561982	FrequentFixedSOA	1633	n/a	n/a	1
563.6150000000	n/a	563615	FrequentFixedSOA	1633	n/a	n/a	1
565.2480000000	n/a	565248	FrequentFixedSOA	1633	n/a	n/a	1
566.8820000000	n/a	566882	FrequentFixedSOA	1633	n/a	n/a	1
568.5150000000	n/a	568515	NovelFixedSOA	1633	n/a	n/a	1
570.1480000000	n/a	570148	FrequentFixedSOA	1633	n/a	n/a	1
571.7820000000	n/a	571782	FrequentFixedSOA	1633	n/a	n/a	1
573.4150000000	n/a	573415	GoVariableSOA	455	n/a	n/a	1
575.1820000000	n/a	575182	FrequentVariableSOA	1683	n/a	n/a	1
576.8650000000	n/a	576865	FrequentVariableSOA	1500	n/a	n/a	1
578.3650000000	n/a	578365	FrequentVariableSOA	1800	n/a	n/a	1
580.1650000000	n/a	580165	FrequentVariableSOA	1716	n/a	n/a	1
581.8820000000	n/a	581882	FrequentVariableSOA	1583	n/a	n/a	1
583.4650000000	n/a	583465	FrequentVariableSOA	1666	n/a	n/a	1
585.1320000000	n/a	585132	NovelVariableSOA	1750	n/a	n/a	1
586.8820000000	n/a	586882	FrequentVariableSOA	1783	n/a	n/a	1
588.6650000000	n/a	588665	FrequentVariableSOA	1700	n/a	n/a	1
590.3650000000	n/a	590365	FrequentVariableSOA	1616	n/a	n/a	1
591.9820000000	n/a	591982	NovelVariableSOA	1616	n/a	n/a	1
593.5980000000	n/a	593598	FrequentVariableSOA	1550	n/a	n/a	1
595.1480000000	n/a	595148	GoVariableSOA	435	n/a	n/a	1
596.8650000000	n/a	596865	FrequentVariableSOA	1750	n/a	n/a	1
598.6150000000	n/a	598615	FrequentVariableSOA	1733	n/a	n/a	1
600.3480000000	n/a	600348	GoVariableSOA	689	n/a	n/a	1
601.9650000000	n/a	601965	FrequentVariableSOA	1733	n/a	n/a	1
603.6980000000	n/a	603698	NovelVariableSOA	1683	n/a	n/a	1
605.3820000000	n/a	605382	FrequentVariableSOA	1500	n/a	n/a	1
606.8820000000	n/a	606882	FrequentVariableSOA	1700	n/a	n/a	1
608.5820000000	n/a	608582	FrequentVariableSOA	1633	n/a	n/a	1
610.2150000000	n/a	610215	FrequentVariableSOA	1583	n/a	n/a	1
611.7980000000	n/a	611798	FrequentVariableSOA	1583	n/a	n/a	1
613.3820000000	n/a	613382	GoVariableSOA	483	n/a	n/a	1
615.1650000000	n/a	615165	FrequentVariableSOA	1566	n/a	n/a	1
616.7320000000	n/a	616732	FrequentVariableSOA	1550	n/a	n/a	1
618.2820000000	n/a	618282	NovelVariableSOA	1750	n/a	n/a	1
620.0310000000	n/a	620031	FrequentVariableSOA	1800	n/a	n/a	1
621.8310000000	n/a	621831	FrequentVariableSOA	1583	n/a	n/a	1
623.4150000000	n/a	623415	FrequentVariableSOA	1700	n/a	n/a	1
625.1150000000	n/a	625115	FrequentVariableSOA	1600	n/a	n/a	1
626.7150000000	n/a	626715	FrequentVariableSOA	1550	n/a	n/a	1
628.2650000000	n/a	628265	NovelVariableSOA	1733	n/a	n/a	1
629.9980000000	n/a	629998	FrequentVariableSOA	1766	n/a	n/a	1
631.7650000000	n/a	631765	FrequentVariableSOA	1766	n/a	n/a	1
633.5310000000	n/a	633531	FrequentVariableSOA	1616	n/a	n/a	1
635.1480000000	n/a	635148	FrequentVariableSOA	1766	n/a	n/a	1
636.9150000000	n/a	636915	GoVariableSOA	467	n/a	n/a	1
638.4810000000	n/a	638481	FrequentVariableSOA	1600	n/a	n/a	1
640.0810000000	n/a	640081	FrequentVariableSOA	1683	n/a	n/a	1
641.7650000000	n/a	641765	NovelVariableSOA	1633	n/a	n/a	1
643.3980000000	n/a	643398	FrequentVariableSOA	1516	n/a	n/a	1
644.9150000000	n/a	644915	FrequentVariableSOA	1566	n/a	n/a	1
646.4810000000	n/a	646481	NovelVariableSOA	1500	n/a	n/a	1
647.9810000000	n/a	647981	FrequentVariableSOA	1500	n/a	n/a	1
649.4810000000	n/a	649481	FrequentVariableSOA	1566	n/a	n/a	1
651.0480000000	n/a	651048	FrequentVariableSOA	1583	n/a	n/a	1
652.6310000000	n/a	652631	FrequentVariableSOA	1566	n/a	n/a	1
654.1980000000	n/a	654198	FrequentVariableSOA	1566	n/a	n/a	1
655.7650000000	n/a	655765	GoVariableSOA	479	n/a	n/a	1
657.3650000000	n/a	657365	FrequentVariableSOA	1566	n/a	n/a	1
658.9310000000	n/a	658931	FrequentVariableSOA	1750	n/a	n/a	1
660.6810000000	n/a	660681	FrequentVariableSOA	1700	n/a	n/a	1
662.3810000000	n/a	662381	FrequentVariableSOA	1516	n/a	n/a	1
663.8980000000	n/a	663898	FrequentVariableSOA	1550	n/a	n/a	1
665.4480000000	n/a	665448	NovelVariableSOA	1716	n/a	n/a	1
667.1650000000	n/a	667165	FrequentVariableSOA	1716	n/a	n/a	1
668.8810000000	n/a	668881	GoVariableSOA	448	n/a	n/a	1
670.4650000000	n/a	670465	FrequentVariableSOA	1633	n/a	n/a	1
672.0980000000	n/a	672098	FrequentVariableSOA	1800	n/a	n/a	1
673.8980000000	n/a	673898	FrequentVariableSOA	1683	n/a	n/a	1
675.5810000000	n/a	675581	FrequentVariableSOA	1583	n/a	n/a	1
677.1650000000	n/a	677165	FrequentVariableSOA	1700	n/a	n/a	1
678.8650000000	n/a	678865	FrequentVariableSOA	1600	n/a	n/a	1
680.4650000000	n/a	680465	FrequentVariableSOA	1616	n/a	n/a	1
682.0810000000	n/a	682081	FrequentVariableSOA	1666	n/a	n/a	1
683.7480000000	n/a	683748	NovelVariableSOA	1733	n/a	n/a	1
685.4810000000	n/a	685481	FrequentVariableSOA	1583	n/a	n/a	1
687.0650000000	n/a	687065	FrequentVariableSOA	1750	n/a	n/a	1
688.8150000000	n/a	688815	GoFixedSOA	630	n/a	n/a	1
690.4480000000	n/a	690448	FrequentFixedSOA	1633	n/a	n/a	1
692.0810000000	n/a	692081	FrequentFixedSOA	1633	n/a	n/a	1
693.7150000000	n/a	693715	FrequentFixedSOA	1633	n/a	n/a	1
695.3480000000	n/a	695348	GoFixedSOA	635	n/a	n/a	1
696.9810000000	n/a	696981	FrequentFixedSOA	1633	n/a	n/a	1
698.6150000000	n/a	698615	FrequentFixedSOA	1633	n/a	n/a	1
700.2480000000	n/a	700248	FrequentFixedSOA	1633	n/a	n/a	1
701.8810000000	n/a	701881	FrequentFixedSOA	1633	n/a	n/a	1
703.5150000000	n/a	703515	GoFixedSOA	411	n/a	n/a	1
705.1480000000	n/a	705148	FrequentFixedSOA	1633	n/a	n/a	1
706.7810000000	n/a	706781	FrequentFixedSOA	1633	n/a	n/a	1
708.4150000000	n/a	708415	NovelFixedSOA	1633	n/a	n/a	1
710.0480000000	n/a	710048	FrequentFixedSOA	1633	n/a	n/a	1
711.6810000000	n/a	711681	FrequentFixedSOA	1633	n/a	n/a	1
713.3150000000	n/a	713315	GoFixedSOA	478	n/a	n/a	1
714.9480000000	n/a	714948	FrequentFixedSOA	1633	n/a	n/a	1
716.5810000000	n/a	716581	FrequentFixedSOA	1633	n/a	n/a	1
718.2150000000	n/a	718215	FrequentFixedSOA	1633	n/a	n/a	1
719.8480000000	n/a	719848	NovelFixedSOA	1633	n/a	n/a	1
721.4810000000	n/a	721481	FrequentFixedSOA	1633	n/a	n/a	1
723.1150000000	n/a	723115	NovelFixedSOA	1633	n/a	n/a	1
724.7480000000	n/a	724748	FrequentFixedSOA	1633	n/a	n/a	1
726.3810000000	n/a	726381	FrequentFixedSOA	1633	n/a	n/a	1
728.0150000000	n/a	728015	FrequentFixedSOA	1633	n/a	n/a	1
729.6480000000	n/a	729648	GoFixedSOA	417	n/a	n/a	1
731.2810000000	n/a	731281	FrequentFixedSOA	1633	n/a	n/a	1
732.9150000000	n/a	732915	FrequentFixedSOA	1633	n/a	n/a	1
734.5480000000	n/a	734548	FrequentFixedSOA	1633	n/a	n/a	1
736.1810000000	n/a	736181	GoFixedSOA	398	n/a	n/a	1
737.8150000000	n/a	737815	FrequentFixedSOA	1633	n/a	n/a	1
739.4480000000	n/a	739448	FrequentFixedSOA	1633	n/a	n/a	1
741.0810000000	n/a	741081	NovelFixedSOA	1633	n/a	n/a	1
742.7150000000	n/a	742715	FrequentFixedSOA	1633	n/a	n/a	1
744.3480000000	n/a	744348	GoFixedSOA	391	n/a	n/a	1
745.9810000000	n/a	745981	FrequentFixedSOA	1633	n/a	n/a	1
747.6150000000	n/a	747615	FrequentFixedSOA	1633	n/a	n/a	1
749.2480000000	n/a	749248	FrequentFixedSOA	1633	n/a	n/a	1
750.8810000000	n/a	750881	FrequentFixedSOA	1633	n/a	n/a	1
752.5150000000	n/a	752515	FrequentFixedSOA	1633	n/a	n/a	1
754.1480000000	n/a	754148	FrequentFixedSOA	1633	n/a	n/a	1
755.7810000000	n/a	755781	NovelFixedSOA	1633	n/a	n/a	1
757.4150000000	n/a	757415	FrequentFixedSOA	1633	n/a	n/a	1
759.0480000000	n/a	759048	FrequentFixedSOA	1633	n/a	n/a	1
760.6810000000	n/a	760681	FrequentFixedSOA	1633	n/a	n/a	1
762.3150000000	n/a	762315	GoFixedSOA	394	n/a	n/a	1
763.9480000000	n/a	763948	FrequentFixedSOA	1633	n/a	n/a	1
765.5810000000	n/a	765581	FrequentFixedSOA	1633	n/a	n/a	1
767.2150000000	n/a	767215	FrequentFixedSOA	1633	n/a	n/a	1
768.8480000000	n/a	768848	FrequentFixedSOA	1633	n/a	n/a	1
770.4810000000	n/a	770481	NovelFixedSOA	1633	n/a	n/a	1
772.1150000000	n/a	772115	FrequentFixedSOA	1633	n/a	n/a	1
773.7480000000	n/a	773748	FrequentFixedSOA	1633	n/a	n/a	1
775.3810000000	n/a	775381	NovelFixedSOA	1633	n/a	n/a	1
777.0150000000	n/a	777015	FrequentFixedSOA	1633	n/a	n/a	1
778.6480000000	n/a	778648	NovelFixedSOA	1633	n/a	n/a	1
780.2810000000	n/a	780281	FrequentFixedSOA	1633	n/a	n/a	1
781.9150000000	n/a	781915	FrequentFixedSOA	1633	n/a	n/a	1
783.5480000000	n/a	783548	FrequentFixedSOA	1633	n/a	n/a	1
785.1810000000	n/a	785181	FrequentFixedSOA	1633	n/a	n/a	1
786.8150000000	n/a	786815	FrequentFixedSOA	1633	n/a	n/a	1
788.4480000000	n/a	788448	FrequentFixedSOA	1633	n/a	n/a	1
790.0810000000	n/a	790081	FrequentFixedSOA	1633	n/a	n/a	1
791.7150000000	n/a	791715	GoFixedSOA	445	n/a	n/a	1
793.3480000000	n/a	793348	FrequentFixedSOA	1633	n/a	n/a	1
794.9810000000	n/a	794981	GoFixedSOA	548	n/a	n/a	1
796.6150000000	n/a	796615	FrequentFixedSOA	1633	n/a	n/a	1
798.2480000000	n/a	798248	FrequentFixedSOA	1633	n/a	n/a	1
799.8810000000	n/a	799881	NovelFixedSOA	1633	n/a	n/a	1
801.5150000000	n/a	801515	FrequentFixedSOA	1633	n/a	n/a	1
803.1480000000	n/a	803148	GoVariableSOA	465	n/a	n/a	1
804.8480000000	n/a	804848	FrequentVariableSOA	1733	n/a	n/a	1
806.5810000000	n/a	806581	FrequentVariableSOA	1616	n/a	n/a	1
808.1980000000	n/a	808198	FrequentVariableSOA	1600	n/a	n/a	1
809.7980000000	n/a	809798	GoVariableSOA	511	n/a	n/a	1
811.4480000000	n/a	811448	FrequentVariableSOA	1650	n/a	n/a	1
813.0980000000	n/a	813098	FrequentVariableSOA	1683	n/a	n/a	1
814.7810000000	n/a	814781	FrequentVariableSOA	1550	n/a	n/a	1
816.3310000000	n/a	816331	FrequentVariableSOA	1683	n/a	n/a	1
818.0150000000	n/a	818015	GoVariableSOA	379	n/a	n/a	1
819.6480000000	n/a	819648	FrequentVariableSOA	1550	n/a	n/a	1
821.1980000000	n/a	821198	FrequentVariableSOA	1716	n/a	n/a	1
822.9150000000	n/a	822915	NovelVariableSOA	1700	n/a	n/a	1
824.6140000000	n/a	824614	FrequentVariableSOA	1533	n/a	n/a	1
826.1480000000	n/a	826148	FrequentVariableSOA	1683	n/a	n/a	1
827.8310000000	n/a	827831	GoVariableSOA	439	n/a	n/a	1
829.3480000000	n/a	829348	FrequentVariableSOA	1750	n/a	n/a	1
831.0980000000	n/a	831098	FrequentVariableSOA	1700	n/a	n/a	1
832.7980000000	n/a	832798	FrequentVariableSOA	1533	n/a	n/a	1
834.3310000000	n/a	834331	NovelVariableSOA	1500	n/a	n/a	1
835.8310000000	n/a	835831	FrequentVariableSOA	1716	n/a	n/a	1
837.5480000000	n/a	837548	NovelVariableSOA	1533	n/a	n/a	1
839.0810000000	n/a	839081	FrequentVariableSOA	1666	n/a	n/a	1
840.7480000000	n/a	840748	FrequentVariableSOA	1666	n/a	n/a	1
842.4140000000	n/a	842414	FrequentVariableSOA	1600	n/a	n/a	1
844.0140000000	n/a	844014	GoVariableSOA	436	n/a	n/a	1
845.6980000000	n/a	845698	FrequentVariableSOA	1650	n/a	n/a	1
847.3480000000	n/a	847348	FrequentVariableSOA	1650	n/a	n/a	1
848.9980000000	n/a	848998	FrequentVariableSOA	1550	n/a	n/a	1
850.5480000000	n/a	850548	GoVariableSOA	491	n/a	n/a	1
852.1640000000	n/a	852164	FrequentVariableSOA	1533	n/a	n/a	1
853.6980000000	n/a	853698	FrequentVariableSOA	1566	n/a	n/a	1
855.2640000000	n/a	855264	NovelVariableSOA	1750	n/a	n/a	1
857.0140000000	n/a	857014	FrequentVariableSOA	1666	n/a	n/a	1
858.6810000000	n/a	858681	GoVariableSOA	528	n/a	n/a	1
860.2140000000	n/a	860214	FrequentVariableSOA	1733	n/a	n/a	1
861.9480000000	n/a	861948	FrequentVariableSOA	1666	n/a	n/a	1
863.6140000000	n/a	863614	FrequentVariableSOA	1550	n/a	n/a	1
865.1640000000	n/a	865164	FrequentVariableSOA	1683	n/a	n/a	1
866.8480000000	n/a	866848	FrequentVariableSOA	1600	n/a	n/a	1
868.4480000000	n/a	868448	FrequentVariableSOA	1750	n/a	n/a	1
870.1980000000	n/a	870198	NovelVariableSOA	1616	n/a	n/a	1
871.8140000000	n/a	871814	FrequentVariableSOA	1566	n/a	n/a	1
873.3810000000	n/a	873381	FrequentVariableSOA	1633	n/a	n/a	1
875.0140000000	n/a	875014	FrequentVariableSOA	1583	n/a	n/a	1
876.5980000000	n/a	876598	GoVariableSOA	401	n/a	n/a	1
878.3140000000	n/a	878314	FrequentVariableSOA	1783	n/a	n/a	1
880.0980000000	n/a	880098	FrequentVariableSOA	1550	n/a	n/a	1
881.6480000000	n/a	881648	FrequentVariableSOA	1583	n/a	n/a	1
883.2310000000	n/a	883231	FrequentVariableSOA	1750	n/a	n/a	1
884.9810000000	n/a	884981	NovelVariableSOA	1616	n/a	n/a	1
886.5980000000	n/a	886598	FrequentVariableSOA	1566	n/a	n/a	1
888.1640000000	n/a	888164	FrequentVariableSOA	1600	n/a	n/a	1
889.7640000000	n/a	889764	NovelVariableSOA	1666	n/a	n/a	1
891.4310000000	n/a	891431	FrequentVariableSOA	1500	n/a	n/a	1
892.9310000000	n/a	892931	NovelVariableSOA	1566	n/a	n/a	1
894.4980000000	n/a	894498	FrequentVariableSOA	1800	n/a	n/a	1
896.2980000000	n/a	896298	FrequentVariableSOA	1583	n/a	n/a	1
897.8810000000	n/a	897881	FrequentVariableSOA	1700	n/a	n/a	1
899.5810000000	n/a	899581	FrequentVariableSOA	1633	n/a	n/a	1
901.2140000000	n/a	901214	FrequentVariableSOA	1500	n/a	n/a	1
902.7140000000	n/a	902714	FrequentVariableSOA	1533	n/a	n/a	1
904.2480000000	n/a	904248	FrequentVariableSOA	1500	n/a	n/a	1
905.7480000000	n/a	905748	GoVariableSOA	512	n/a	n/a	1
907.5480000000	n/a	907548	FrequentVariableSOA	1600	n/a	n/a	1
909.1480000000	n/a	909148	GoVariableSOA	434	n/a	n/a	1
910.7140000000	n/a	910714	FrequentVariableSOA	1716	n/a	n/a	1
912.4310000000	n/a	912431	FrequentVariableSOA	1650	n/a	n/a	1
914.0810000000	n/a	914081	NovelVariableSOA	1533	n/a	n/a	1
915.6140000000	n/a	915614	FrequentVariableSOA	1683	n/a	n/a	1
