onset	duration	sample	trial_type	response_time	stim_file	value	correct
9.2910000000	n/a	9291	ignore	n/a	n/a	n/a	n/a
12.3900000000	n/a	12390	ignore	n/a	n/a	n/a	n/a
15.4060000000	n/a	15406	ignore	n/a	n/a	n/a	n/a
31.4400000000	n/a	31440	ignore	n/a	n/a	n/a	n/a
34.5400000000	n/a	34540	ignore	n/a	n/a	n/a	n/a
37.5270000000	n/a	37527	ignore	n/a	n/a	n/a	n/a
55.1740000000	n/a	55174	PosStim	n/a	n/a	n/a	n/a
58.2070000000	n/a	58207	PosNonAlcStimWithoutStartle	n/a	n/a	n/a	n/a
72.5070000000	n/a	72507	NegStim	n/a	n/a	n/a	n/a
75.5400000000	n/a	75540	NegNonAlcStimWithoutStartle	n/a	n/a	n/a	n/a
90.4240000000	n/a	90424	NeuStim	n/a	n/a	n/a	n/a
93.5240000000	n/a	93524	NeuNonAlcP2000	n/a	n/a	n/a	n/a
97.5110000000	n/a	97511	NeuNonAlcP2000	n/a	n/a	n/a	n/a
109.9240000000	n/a	109924	NegStim	n/a	n/a	n/a	n/a
113.0240000000	n/a	113024	NegAlcP2000	n/a	n/a	n/a	n/a
117.0110000000	n/a	117011	NegAlcP2000	n/a	n/a	n/a	n/a
129.1900000000	n/a	129190	NeuStim	n/a	n/a	n/a	n/a
132.2240000000	n/a	132224	NeuAlcStimWithoutStartle	n/a	n/a	n/a	n/a
148.3070000000	n/a	148307	PosStim	n/a	n/a	n/a	n/a
151.4070000000	n/a	151407	PosAlcP1000	n/a	n/a	n/a	n/a
156.3940000000	n/a	156394	PosAlcP1000	n/a	n/a	n/a	n/a
167.9400000000	n/a	167940	NeuStim	n/a	n/a	n/a	n/a
171.0400000000	n/a	171040	NeuAlcP2000	n/a	n/a	n/a	n/a
175.0270000000	n/a	175027	NeuAlcP2000	n/a	n/a	n/a	n/a
185.5900000000	n/a	185590	NegStim	n/a	n/a	n/a	n/a
188.6900000000	n/a	188690	NegAlcP3000	n/a	n/a	n/a	n/a
191.6770000000	n/a	191677	NegAlcP3000	n/a	n/a	n/a	n/a
205.1070000000	n/a	205107	PosStim	n/a	n/a	n/a	n/a
208.1400000000	n/a	208140	PosNonAlcStimWithoutStartle	n/a	n/a	n/a	n/a
223.5570000000	n/a	223557	NeuStim	n/a	n/a	n/a	n/a
226.6570000000	n/a	226657	NeuAlcP1000	n/a	n/a	n/a	n/a
231.6440000000	n/a	231644	NeuAlcP1000	n/a	n/a	n/a	n/a
239.8230000000	n/a	239823	NegStim	n/a	n/a	n/a	n/a
242.9230000000	n/a	242923	NegNonAlcP3000	n/a	n/a	n/a	n/a
245.9100000000	n/a	245910	NegNonAlcP3000	n/a	n/a	n/a	n/a
258.8570000000	n/a	258857	PosStim	n/a	n/a	n/a	n/a
261.9570000000	n/a	261957	PosAlcP2000	n/a	n/a	n/a	n/a
265.9440000000	n/a	265944	PosAlcP2000	n/a	n/a	n/a	n/a
278.8070000000	n/a	278807	NegStim	n/a	n/a	n/a	n/a
281.8400000000	n/a	281840	NegNonAlcStimWithoutStartle	n/a	n/a	n/a	n/a
298.7400000000	n/a	298740	PosStim	n/a	n/a	n/a	n/a
301.7730000000	n/a	301773	PosAlcStimWithoutStartle	n/a	n/a	n/a	n/a
316.6570000000	n/a	316657	NeuStim	n/a	n/a	n/a	n/a
319.7570000000	n/a	319757	NeuNonAlcP3000	n/a	n/a	n/a	n/a
322.7440000000	n/a	322744	NeuNonAlcP3000	n/a	n/a	n/a	n/a
336.2230000000	n/a	336223	NegStim	n/a	n/a	n/a	n/a
339.3230000000	n/a	339323	NegAlcP1000	n/a	n/a	n/a	n/a
344.3100000000	n/a	344310	NegAlcP1000	n/a	n/a	n/a	n/a
352.6400000000	n/a	352640	NeuStim	n/a	n/a	n/a	n/a
355.7400000000	n/a	355740	NeuAlcP3000	n/a	n/a	n/a	n/a
358.7270000000	n/a	358727	NeuAlcP3000	n/a	n/a	n/a	n/a
371.7570000000	n/a	371757	PosStim	n/a	n/a	n/a	n/a
374.8570000000	n/a	374857	PosAlcP3000	n/a	n/a	n/a	n/a
377.8440000000	n/a	377844	PosAlcP3000	n/a	n/a	n/a	n/a
391.2230000000	n/a	391223	NeuStim	n/a	n/a	n/a	n/a
394.2570000000	n/a	394257	NeuAlcStimWithoutStartle	n/a	n/a	n/a	n/a
409.3570000000	n/a	409357	NegStim	n/a	n/a	n/a	n/a
412.4570000000	n/a	412457	NegAlcP1000	n/a	n/a	n/a	n/a
417.4440000000	n/a	417444	NegAlcP1000	n/a	n/a	n/a	n/a
426.2730000000	n/a	426273	NeuStim	n/a	n/a	n/a	n/a
429.3730000000	n/a	429373	NeuNonAlcP3000	n/a	n/a	n/a	n/a
432.3600000000	n/a	432360	NeuNonAlcP3000	n/a	n/a	n/a	n/a
445.2230000000	n/a	445223	NegStim	n/a	n/a	n/a	n/a
448.3230000000	n/a	448323	NegNonAlcP2000	n/a	n/a	n/a	n/a
452.3100000000	n/a	452310	NegNonAlcP2000	n/a	n/a	n/a	n/a
465.0730000000	n/a	465073	PosStim	n/a	n/a	n/a	n/a
468.1060000000	n/a	468106	PosNonAlcStimWithoutStartle	n/a	n/a	n/a	n/a
482.9900000000	n/a	482990	NeuStim	n/a	n/a	n/a	n/a
486.0230000000	n/a	486023	NeuNonAlcStimWithoutStartle	n/a	n/a	n/a	n/a
500.1060000000	n/a	500106	PosStim	n/a	n/a	n/a	n/a
503.2060000000	n/a	503206	PosNonAlcP1000	n/a	n/a	n/a	n/a
508.1930000000	n/a	508193	PosNonAlcP1000	n/a	n/a	n/a	n/a
520.1400000000	n/a	520140	NegStim	n/a	n/a	n/a	n/a
523.1730000000	n/a	523173	NegAlcStimWithoutStartle	n/a	n/a	n/a	n/a
540.1900000000	n/a	540190	NeuStim	n/a	n/a	n/a	n/a
543.2900000000	n/a	543290	NeuAlcP2000	n/a	n/a	n/a	n/a
547.2770000000	n/a	547277	NeuAlcP2000	n/a	n/a	n/a	n/a
558.4230000000	n/a	558423	PosStim	n/a	n/a	n/a	n/a
561.5230000000	n/a	561523	PosNonAlcP1000	n/a	n/a	n/a	n/a
566.5100000000	n/a	566510	PosNonAlcP1000	n/a	n/a	n/a	n/a
576.6900000000	n/a	576690	NeuStim	n/a	n/a	n/a	n/a
579.7900000000	n/a	579790	NeuNonAlcP1000	n/a	n/a	n/a	n/a
584.7770000000	n/a	584777	NeuNonAlcP1000	n/a	n/a	n/a	n/a
593.1230000000	n/a	593123	PosStim	n/a	n/a	n/a	n/a
596.1560000000	n/a	596156	PosNonAlcStimWithoutStartle	n/a	n/a	n/a	n/a
610.2400000000	n/a	610240	NegStim	n/a	n/a	n/a	n/a
613.3400000000	n/a	613340	NegAlcP2000	n/a	n/a	n/a	n/a
617.3270000000	n/a	617327	NegAlcP2000	n/a	n/a	n/a	n/a
627.2560000000	n/a	627256	NeuStim	n/a	n/a	n/a	n/a
630.3560000000	n/a	630356	NeuAlcP3000	n/a	n/a	n/a	n/a
633.3430000000	n/a	633343	NeuAlcP3000	n/a	n/a	n/a	n/a
644.9560000000	n/a	644956	NegStim	n/a	n/a	n/a	n/a
647.9900000000	n/a	647990	NegAlcStimWithoutStartle	n/a	n/a	n/a	n/a
662.8730000000	n/a	662873	NeuStim	n/a	n/a	n/a	n/a
665.9730000000	n/a	665973	NeuNonAlcP2000	n/a	n/a	n/a	n/a
669.9600000000	n/a	669960	NeuNonAlcP2000	n/a	n/a	n/a	n/a
682.5390000000	n/a	682539	PosStim	n/a	n/a	n/a	n/a
685.6390000000	n/a	685639	PosNonAlcP3000	n/a	n/a	n/a	n/a
688.6270000000	n/a	688627	PosNonAlcP3000	n/a	n/a	n/a	n/a
702.6230000000	n/a	702623	NegStim	n/a	n/a	n/a	n/a
705.7230000000	n/a	705723	NegAlcP3000	n/a	n/a	n/a	n/a
708.7100000000	n/a	708710	NegAlcP3000	n/a	n/a	n/a	n/a
719.8730000000	n/a	719873	PosStim	n/a	n/a	n/a	n/a
722.9060000000	n/a	722906	PosAlcStimWithoutStartle	n/a	n/a	n/a	n/a
736.0060000000	n/a	736006	NegStim	n/a	n/a	n/a	n/a
739.1060000000	n/a	739106	NegAlcP1000	n/a	n/a	n/a	n/a
744.0930000000	n/a	744093	NegAlcP1000	n/a	n/a	n/a	n/a
752.6560000000	n/a	752656	PosStim	n/a	n/a	n/a	n/a
755.6890000000	n/a	755689	PosAlcStimWithoutStartle	n/a	n/a	n/a	n/a
771.7560000000	n/a	771756	NegStim	n/a	n/a	n/a	n/a
774.8560000000	n/a	774856	NegNonAlcP2000	n/a	n/a	n/a	n/a
778.8430000000	n/a	778843	NegNonAlcP2000	n/a	n/a	n/a	n/a
790.3560000000	n/a	790356	PosStim	n/a	n/a	n/a	n/a
793.4560000000	n/a	793456	PosAlcP2000	n/a	n/a	n/a	n/a
797.4430000000	n/a	797443	PosAlcP2000	n/a	n/a	n/a	n/a
807.8890000000	n/a	807889	NeuStim	n/a	n/a	n/a	n/a
810.9230000000	n/a	810923	NeuNonAlcStimWithoutStartle	n/a	n/a	n/a	n/a
824.3390000000	n/a	824339	PosStim	n/a	n/a	n/a	n/a
827.4390000000	n/a	827439	PosNonAlcP2000	n/a	n/a	n/a	n/a
831.4260000000	n/a	831426	PosNonAlcP2000	n/a	n/a	n/a	n/a
844.4730000000	n/a	844473	NegStim	n/a	n/a	n/a	n/a
847.5060000000	n/a	847506	NegAlcStimWithoutStartle	n/a	n/a	n/a	n/a
861.8230000000	n/a	861823	PosStim	n/a	n/a	n/a	n/a
864.9230000000	n/a	864923	PosAlcP3000	n/a	n/a	n/a	n/a
867.9100000000	n/a	867910	PosAlcP3000	n/a	n/a	n/a	n/a
879.3230000000	n/a	879323	PosStim	n/a	n/a	n/a	n/a
882.4230000000	n/a	882423	PosNonAlcP3000	n/a	n/a	n/a	n/a
885.4100000000	n/a	885410	PosNonAlcP3000	n/a	n/a	n/a	n/a
898.2560000000	n/a	898256	NeuStim	n/a	n/a	n/a	n/a
901.2890000000	n/a	901289	NeuNonAlcStimWithoutStartle	n/a	n/a	n/a	n/a
917.6560000000	n/a	917656	NeuStim	n/a	n/a	n/a	n/a
920.7560000000	n/a	920756	NeuNonAlcP3000	n/a	n/a	n/a	n/a
923.7430000000	n/a	923743	NeuNonAlcP3000	n/a	n/a	n/a	n/a
937.6720000000	n/a	937672	PosStim	n/a	n/a	n/a	n/a
940.7720000000	n/a	940772	PosAlcP2000	n/a	n/a	n/a	n/a
944.7590000000	n/a	944759	PosAlcP2000	n/a	n/a	n/a	n/a
957.1560000000	n/a	957156	NegStim	n/a	n/a	n/a	n/a
960.2560000000	n/a	960256	NegAlcP1000	n/a	n/a	n/a	n/a
965.2430000000	n/a	965243	NegAlcP1000	n/a	n/a	n/a	n/a
974.0560000000	n/a	974056	PosStim	n/a	n/a	n/a	n/a
977.1560000000	n/a	977156	PosNonAlcP2000	n/a	n/a	n/a	n/a
981.1430000000	n/a	981143	PosNonAlcP2000	n/a	n/a	n/a	n/a
992.3060000000	n/a	992306	NeuStim	n/a	n/a	n/a	n/a
995.3390000000	n/a	995339	NeuNonAlcStimWithoutStartle	n/a	n/a	n/a	n/a
1008.6720000000	n/a	1008672	NegStim	n/a	n/a	n/a	n/a
1011.7720000000	n/a	1011772	NegAlcP2000	n/a	n/a	n/a	n/a
1015.7590000000	n/a	1015759	NegAlcP2000	n/a	n/a	n/a	n/a
1028.3560000000	n/a	1028356	PosStim	n/a	n/a	n/a	n/a
1031.4560000000	n/a	1031456	PosAlcP3000	n/a	n/a	n/a	n/a
1034.4430000000	n/a	1034443	PosAlcP3000	n/a	n/a	n/a	n/a
1045.0060000000	n/a	1045006	NeuStim	n/a	n/a	n/a	n/a
1048.0390000000	n/a	1048039	NeuAlcStimWithoutStartle	n/a	n/a	n/a	n/a
1064.4390000000	n/a	1064439	NegStim	n/a	n/a	n/a	n/a
1067.5390000000	n/a	1067539	NegNonAlcP3000	n/a	n/a	n/a	n/a
1070.5260000000	n/a	1070526	NegNonAlcP3000	n/a	n/a	n/a	n/a
