onset	duration	sample	trial_type	response_time	stim_file	value	correct
4.6150000000	n/a	4615	FrequentFixedSOA	1633	n/a	n/a	1
6.2480000000	n/a	6248	FrequentFixedSOA	1633	n/a	n/a	1
7.8820000000	n/a	7882	FrequentFixedSOA	1633	n/a	n/a	1
9.5150000000	n/a	9515	FrequentFixedSOA	1633	n/a	n/a	1
11.1480000000	n/a	11148	FrequentFixedSOA	1633	n/a	n/a	1
12.7820000000	n/a	12782	FrequentFixedSOA	1633	n/a	n/a	1
14.4150000000	n/a	14415	FrequentFixedSOA	1633	n/a	n/a	1
16.0480000000	n/a	16048	FrequentFixedSOA	1633	n/a	n/a	1
17.6820000000	n/a	17682	FrequentFixedSOA	1633	n/a	n/a	1
19.3150000000	n/a	19315	FrequentFixedSOA	1633	n/a	n/a	1
20.9480000000	n/a	20948	NovelFixedSOA	1633	n/a	n/a	1
22.5820000000	n/a	22582	FrequentFixedSOA	1633	n/a	n/a	1
24.2150000000	n/a	24215	GoFixedSOA	553	n/a	n/a	1
25.8480000000	n/a	25848	FrequentFixedSOA	1633	n/a	n/a	1
27.4820000000	n/a	27482	FrequentFixedSOA	1633	n/a	n/a	1
29.1150000000	n/a	29115	FrequentFixedSOA	1633	n/a	n/a	1
30.7480000000	n/a	30748	GoFixedSOA	381	n/a	n/a	1
32.3820000000	n/a	32382	FrequentFixedSOA	1633	n/a	n/a	1
34.0150000000	n/a	34015	FrequentFixedSOA	1633	n/a	n/a	1
35.6480000000	n/a	35648	FrequentFixedSOA	1633	n/a	n/a	1
37.2820000000	n/a	37282	NovelFixedSOA	1633	n/a	n/a	1
38.9150000000	n/a	38915	FrequentFixedSOA	1633	n/a	n/a	1
40.5480000000	n/a	40548	FrequentFixedSOA	1633	n/a	n/a	1
42.1820000000	n/a	42182	FrequentFixedSOA	1633	n/a	n/a	1
43.8150000000	n/a	43815	GoFixedSOA	409	n/a	n/a	1
45.4480000000	n/a	45448	FrequentFixedSOA	1633	n/a	n/a	1
47.0820000000	n/a	47082	NovelFixedSOA	1633	n/a	n/a	1
48.7150000000	n/a	48715	FrequentFixedSOA	1633	n/a	n/a	1
50.3480000000	n/a	50348	FrequentFixedSOA	1633	n/a	n/a	1
51.9820000000	n/a	51982	FrequentFixedSOA	1633	n/a	n/a	1
53.6150000000	n/a	53615	GoFixedSOA	309	n/a	n/a	1
55.2480000000	n/a	55248	FrequentFixedSOA	1633	n/a	n/a	1
56.8820000000	n/a	56882	GoFixedSOA	443	n/a	n/a	1
58.5150000000	n/a	58515	FrequentFixedSOA	1633	n/a	n/a	1
60.1480000000	n/a	60148	FrequentFixedSOA	1633	n/a	n/a	1
61.7820000000	n/a	61782	GoFixedSOA	326	n/a	n/a	1
63.4150000000	n/a	63415	FrequentFixedSOA	1633	n/a	n/a	1
65.0480000000	n/a	65048	FrequentFixedSOA	1633	n/a	n/a	1
66.6820000000	n/a	66682	FrequentFixedSOA	1633	n/a	n/a	1
68.3150000000	n/a	68315	FrequentFixedSOA	1633	n/a	n/a	1
69.9480000000	n/a	69948	NovelFixedSOA	1633	n/a	n/a	1
71.5820000000	n/a	71582	FrequentFixedSOA	1633	n/a	n/a	1
73.2150000000	n/a	73215	NovelFixedSOA	1633	n/a	n/a	1
74.8480000000	n/a	74848	FrequentFixedSOA	1633	n/a	n/a	1
76.4820000000	n/a	76482	FrequentFixedSOA	1633	n/a	n/a	1
78.1150000000	n/a	78115	GoFixedSOA	329	n/a	n/a	1
79.7480000000	n/a	79748	FrequentFixedSOA	1633	n/a	n/a	1
81.3820000000	n/a	81382	FrequentFixedSOA	1633	n/a	n/a	1
83.0150000000	n/a	83015	FrequentFixedSOA	1633	n/a	n/a	1
84.6480000000	n/a	84648	FrequentFixedSOA	1633	n/a	n/a	1
86.2820000000	n/a	86282	NovelFixedSOA	1633	n/a	n/a	1
87.9150000000	n/a	87915	FrequentFixedSOA	1633	n/a	n/a	1
89.5480000000	n/a	89548	FrequentFixedSOA	1633	n/a	n/a	1
91.1820000000	n/a	91182	FrequentFixedSOA	1633	n/a	n/a	1
92.8150000000	n/a	92815	FrequentFixedSOA	1633	n/a	n/a	1
94.4480000000	n/a	94448	GoFixedSOA	437	n/a	n/a	1
96.0820000000	n/a	96082	FrequentFixedSOA	1633	n/a	n/a	1
97.7150000000	n/a	97715	FrequentFixedSOA	1633	n/a	n/a	1
99.3480000000	n/a	99348	NovelFixedSOA	1633	n/a	n/a	1
100.9820000000	n/a	100982	FrequentFixedSOA	1633	n/a	n/a	1
102.6150000000	n/a	102615	FrequentFixedSOA	1633	n/a	n/a	1
104.2480000000	n/a	104248	GoFixedSOA	338	n/a	n/a	1
105.8820000000	n/a	105882	FrequentFixedSOA	1633	n/a	n/a	1
107.5150000000	n/a	107515	FrequentFixedSOA	1633	n/a	n/a	1
109.1480000000	n/a	109148	FrequentFixedSOA	1633	n/a	n/a	1
110.7820000000	n/a	110782	FrequentFixedSOA	1633	n/a	n/a	1
112.4150000000	n/a	112415	NovelFixedSOA	1633	n/a	n/a	1
114.0480000000	n/a	114048	FrequentFixedSOA	1633	n/a	n/a	1
115.6820000000	n/a	115682	FrequentFixedSOA	1633	n/a	n/a	1
117.3150000000	n/a	117315	GoFixedSOA	415	n/a	n/a	1
118.9480000000	n/a	118948	FrequentVariableSOA	1633	n/a	n/a	1
120.5820000000	n/a	120582	FrequentVariableSOA	1783	n/a	n/a	1
122.3650000000	n/a	122365	FrequentVariableSOA	1766	n/a	n/a	1
124.1320000000	n/a	124132	FrequentVariableSOA	1750	n/a	n/a	1
125.8820000000	n/a	125882	FrequentVariableSOA	1600	n/a	n/a	1
127.4820000000	n/a	127482	FrequentVariableSOA	1633	n/a	n/a	1
129.1150000000	n/a	129115	FrequentVariableSOA	1733	n/a	n/a	1
130.8480000000	n/a	130848	FrequentVariableSOA	1616	n/a	n/a	1
132.4650000000	n/a	132465	FrequentVariableSOA	1750	n/a	n/a	1
134.2150000000	n/a	134215	FrequentVariableSOA	1716	n/a	n/a	1
135.9320000000	n/a	135932	NovelVariableSOA	1516	n/a	n/a	1
137.4480000000	n/a	137448	FrequentVariableSOA	1750	n/a	n/a	1
139.1980000000	n/a	139198	GoVariableSOA	374	n/a	n/a	1
140.9980000000	n/a	140998	FrequentVariableSOA	1583	n/a	n/a	1
142.5820000000	n/a	142582	FrequentVariableSOA	1733	n/a	n/a	1
144.3150000000	n/a	144315	FrequentVariableSOA	1633	n/a	n/a	1
145.9480000000	n/a	145948	GoVariableSOA	1783	n/a	n/a	0
147.7320000000	n/a	147732	FrequentVariableSOA	1600	n/a	n/a	1
149.3320000000	n/a	149332	FrequentVariableSOA	1733	n/a	n/a	1
151.0650000000	n/a	151065	FrequentVariableSOA	1766	n/a	n/a	1
152.8320000000	n/a	152832	NovelVariableSOA	1650	n/a	n/a	1
154.4820000000	n/a	154482	FrequentVariableSOA	1716	n/a	n/a	1
156.1980000000	n/a	156198	FrequentVariableSOA	1683	n/a	n/a	1
157.8820000000	n/a	157882	FrequentVariableSOA	1683	n/a	n/a	1
159.5650000000	n/a	159565	GoVariableSOA	396	n/a	n/a	1
161.3320000000	n/a	161332	FrequentVariableSOA	1500	n/a	n/a	1
162.8320000000	n/a	162832	NovelVariableSOA	1733	n/a	n/a	1
164.5650000000	n/a	164565	FrequentVariableSOA	1583	n/a	n/a	1
166.1480000000	n/a	166148	FrequentVariableSOA	1533	n/a	n/a	1
167.6820000000	n/a	167682	FrequentVariableSOA	1650	n/a	n/a	1
169.3320000000	n/a	169332	GoVariableSOA	423	n/a	n/a	1
170.9480000000	n/a	170948	FrequentVariableSOA	1666	n/a	n/a	1
172.6150000000	n/a	172615	GoVariableSOA	415	n/a	n/a	1
174.1480000000	n/a	174148	FrequentVariableSOA	1766	n/a	n/a	1
175.9150000000	n/a	175915	FrequentVariableSOA	1750	n/a	n/a	1
177.6650000000	n/a	177665	GoVariableSOA	391	n/a	n/a	1
179.4320000000	n/a	179432	FrequentVariableSOA	1650	n/a	n/a	1
181.0820000000	n/a	181082	FrequentVariableSOA	1600	n/a	n/a	1
182.6820000000	n/a	182682	FrequentVariableSOA	1500	n/a	n/a	1
184.1820000000	n/a	184182	FrequentVariableSOA	1650	n/a	n/a	1
185.8310000000	n/a	185831	NovelVariableSOA	1683	n/a	n/a	1
187.5150000000	n/a	187515	FrequentVariableSOA	1500	n/a	n/a	1
189.0150000000	n/a	189015	NovelVariableSOA	1700	n/a	n/a	1
190.7150000000	n/a	190715	FrequentVariableSOA	1666	n/a	n/a	1
192.3810000000	n/a	192381	FrequentVariableSOA	1566	n/a	n/a	1
193.9480000000	n/a	193948	GoVariableSOA	381	n/a	n/a	1
195.5480000000	n/a	195548	FrequentVariableSOA	1766	n/a	n/a	1
197.3150000000	n/a	197315	FrequentVariableSOA	1633	n/a	n/a	1
198.9480000000	n/a	198948	FrequentVariableSOA	1683	n/a	n/a	1
200.6310000000	n/a	200631	FrequentVariableSOA	1550	n/a	n/a	1
202.1810000000	n/a	202181	NovelVariableSOA	1583	n/a	n/a	1
203.7650000000	n/a	203765	FrequentVariableSOA	1733	n/a	n/a	1
205.4980000000	n/a	205498	FrequentVariableSOA	1633	n/a	n/a	1
207.1310000000	n/a	207131	FrequentVariableSOA	1766	n/a	n/a	1
208.8980000000	n/a	208898	FrequentVariableSOA	1733	n/a	n/a	1
210.6310000000	n/a	210631	GoVariableSOA	1733	n/a	n/a	0
212.3650000000	n/a	212365	FrequentVariableSOA	1583	n/a	n/a	1
213.9480000000	n/a	213948	FrequentVariableSOA	1566	n/a	n/a	1
215.5150000000	n/a	215515	NovelVariableSOA	1550	n/a	n/a	1
217.0650000000	n/a	217065	FrequentVariableSOA	1533	n/a	n/a	1
218.5980000000	n/a	218598	FrequentVariableSOA	1700	n/a	n/a	1
220.2980000000	n/a	220298	GoVariableSOA	790	n/a	n/a	1
222.0310000000	n/a	222031	FrequentVariableSOA	1633	n/a	n/a	1
223.6650000000	n/a	223665	FrequentVariableSOA	1583	n/a	n/a	1
225.2480000000	n/a	225248	FrequentVariableSOA	1683	n/a	n/a	1
226.9310000000	n/a	226931	FrequentVariableSOA	1533	n/a	n/a	1
228.4650000000	n/a	228465	NovelVariableSOA	1800	n/a	n/a	1
230.2650000000	n/a	230265	FrequentVariableSOA	1633	n/a	n/a	1
231.8980000000	n/a	231898	FrequentVariableSOA	1650	n/a	n/a	1
233.5480000000	n/a	233548	GoVariableSOA	378	n/a	n/a	1
235.0480000000	n/a	235048	FrequentFixedSOA	1633	n/a	n/a	1
236.6810000000	n/a	236681	FrequentFixedSOA	1633	n/a	n/a	1
238.3150000000	n/a	238315	FrequentFixedSOA	1633	n/a	n/a	1
239.9480000000	n/a	239948	GoFixedSOA	493	n/a	n/a	1
241.5810000000	n/a	241581	FrequentFixedSOA	1633	n/a	n/a	1
243.2150000000	n/a	243215	FrequentFixedSOA	1633	n/a	n/a	1
244.8480000000	n/a	244848	FrequentFixedSOA	1633	n/a	n/a	1
246.4810000000	n/a	246481	GoFixedSOA	389	n/a	n/a	1
248.1150000000	n/a	248115	FrequentFixedSOA	1633	n/a	n/a	1
249.7480000000	n/a	249748	FrequentFixedSOA	1633	n/a	n/a	1
251.3810000000	n/a	251381	FrequentFixedSOA	1633	n/a	n/a	1
253.0150000000	n/a	253015	NovelFixedSOA	1633	n/a	n/a	1
254.6480000000	n/a	254648	FrequentFixedSOA	1633	n/a	n/a	1
256.2810000000	n/a	256281	NovelFixedSOA	1633	n/a	n/a	1
257.9150000000	n/a	257915	FrequentFixedSOA	1633	n/a	n/a	1
259.5480000000	n/a	259548	FrequentFixedSOA	1633	n/a	n/a	1
261.1810000000	n/a	261181	NovelFixedSOA	1633	n/a	n/a	1
262.8150000000	n/a	262815	FrequentFixedSOA	1633	n/a	n/a	1
264.4480000000	n/a	264448	FrequentFixedSOA	1633	n/a	n/a	1
266.0810000000	n/a	266081	FrequentFixedSOA	1633	n/a	n/a	1
267.7150000000	n/a	267715	FrequentFixedSOA	1633	n/a	n/a	1
269.3480000000	n/a	269348	FrequentFixedSOA	1633	n/a	n/a	1
270.9810000000	n/a	270981	NovelFixedSOA	1633	n/a	n/a	1
272.6150000000	n/a	272615	FrequentFixedSOA	1633	n/a	n/a	1
274.2480000000	n/a	274248	FrequentFixedSOA	1633	n/a	n/a	1
275.8810000000	n/a	275881	FrequentFixedSOA	1633	n/a	n/a	1
277.5150000000	n/a	277515	FrequentFixedSOA	1633	n/a	n/a	1
279.1480000000	n/a	279148	FrequentFixedSOA	1633	n/a	n/a	1
280.7810000000	n/a	280781	GoFixedSOA	378	n/a	n/a	1
282.4150000000	n/a	282415	FrequentFixedSOA	1633	n/a	n/a	1
284.0480000000	n/a	284048	FrequentFixedSOA	1633	n/a	n/a	1
285.6810000000	n/a	285681	GoFixedSOA	549	n/a	n/a	1
287.3150000000	n/a	287315	FrequentFixedSOA	1633	n/a	n/a	1
288.9480000000	n/a	288948	NovelFixedSOA	1633	n/a	n/a	1
290.5810000000	n/a	290581	FrequentFixedSOA	1633	n/a	n/a	1
292.2150000000	n/a	292215	GoFixedSOA	486	n/a	n/a	1
293.8480000000	n/a	293848	FrequentFixedSOA	1633	n/a	n/a	1
295.4810000000	n/a	295481	GoFixedSOA	454	n/a	n/a	1
297.1150000000	n/a	297115	FrequentFixedSOA	1633	n/a	n/a	1
298.7480000000	n/a	298748	FrequentFixedSOA	1633	n/a	n/a	1
300.3810000000	n/a	300381	FrequentFixedSOA	1633	n/a	n/a	1
302.0150000000	n/a	302015	FrequentFixedSOA	1633	n/a	n/a	1
303.6480000000	n/a	303648	GoFixedSOA	320	n/a	n/a	1
305.2810000000	n/a	305281	FrequentFixedSOA	1633	n/a	n/a	1
306.9150000000	n/a	306915	FrequentFixedSOA	1633	n/a	n/a	1
308.5480000000	n/a	308548	FrequentFixedSOA	1633	n/a	n/a	1
310.1810000000	n/a	310181	NovelFixedSOA	1633	n/a	n/a	1
311.8150000000	n/a	311815	FrequentFixedSOA	1633	n/a	n/a	1
313.4480000000	n/a	313448	FrequentFixedSOA	1633	n/a	n/a	1
315.0810000000	n/a	315081	FrequentFixedSOA	1633	n/a	n/a	1
316.7150000000	n/a	316715	FrequentFixedSOA	1633	n/a	n/a	1
318.3480000000	n/a	318348	NovelFixedSOA	1633	n/a	n/a	1
319.9810000000	n/a	319981	FrequentFixedSOA	1633	n/a	n/a	1
321.6150000000	n/a	321615	FrequentFixedSOA	1633	n/a	n/a	1
323.2480000000	n/a	323248	FrequentFixedSOA	1633	n/a	n/a	1
324.8810000000	n/a	324881	FrequentFixedSOA	1633	n/a	n/a	1
326.5150000000	n/a	326515	NovelFixedSOA	1633	n/a	n/a	1
328.1480000000	n/a	328148	FrequentFixedSOA	1633	n/a	n/a	1
329.7810000000	n/a	329781	FrequentFixedSOA	1633	n/a	n/a	1
331.4150000000	n/a	331415	GoFixedSOA	652	n/a	n/a	1
333.0480000000	n/a	333048	FrequentFixedSOA	1633	n/a	n/a	1
334.6810000000	n/a	334681	FrequentFixedSOA	1633	n/a	n/a	1
336.3150000000	n/a	336315	FrequentFixedSOA	1633	n/a	n/a	1
337.9480000000	n/a	337948	FrequentFixedSOA	1633	n/a	n/a	1
339.5810000000	n/a	339581	NovelFixedSOA	1633	n/a	n/a	1
341.2150000000	n/a	341215	FrequentFixedSOA	1633	n/a	n/a	1
342.8480000000	n/a	342848	FrequentFixedSOA	1633	n/a	n/a	1
344.4810000000	n/a	344481	FrequentFixedSOA	1633	n/a	n/a	1
346.1150000000	n/a	346115	FrequentFixedSOA	1633	n/a	n/a	1
347.7480000000	n/a	347748	FrequentFixedSOA	1633	n/a	n/a	1
349.3810000000	n/a	349381	FrequentVariableSOA	1500	n/a	n/a	1
350.8810000000	n/a	350881	FrequentVariableSOA	1566	n/a	n/a	1
352.4480000000	n/a	352448	FrequentVariableSOA	1533	n/a	n/a	1
353.9810000000	n/a	353981	GoVariableSOA	562	n/a	n/a	1
355.6650000000	n/a	355665	FrequentVariableSOA	1500	n/a	n/a	1
357.1650000000	n/a	357165	FrequentVariableSOA	1566	n/a	n/a	1
358.7310000000	n/a	358731	FrequentVariableSOA	1766	n/a	n/a	1
360.4980000000	n/a	360498	GoVariableSOA	498	n/a	n/a	1
362.0650000000	n/a	362065	FrequentVariableSOA	1516	n/a	n/a	1
363.5810000000	n/a	363581	FrequentVariableSOA	1716	n/a	n/a	1
365.2980000000	n/a	365298	FrequentVariableSOA	1600	n/a	n/a	1
366.8980000000	n/a	366898	NovelVariableSOA	1583	n/a	n/a	1
368.4810000000	n/a	368481	FrequentVariableSOA	1533	n/a	n/a	1
370.0150000000	n/a	370015	NovelVariableSOA	1550	n/a	n/a	1
371.5650000000	n/a	371565	FrequentVariableSOA	1550	n/a	n/a	1
373.1150000000	n/a	373115	FrequentVariableSOA	1750	n/a	n/a	1
374.8650000000	n/a	374865	NovelVariableSOA	1733	n/a	n/a	1
376.5980000000	n/a	376598	FrequentVariableSOA	1750	n/a	n/a	1
378.3480000000	n/a	378348	FrequentVariableSOA	1683	n/a	n/a	1
380.0310000000	n/a	380031	FrequentVariableSOA	1733	n/a	n/a	1
381.7650000000	n/a	381765	FrequentVariableSOA	1566	n/a	n/a	1
383.3310000000	n/a	383331	FrequentVariableSOA	1733	n/a	n/a	1
385.0650000000	n/a	385065	NovelVariableSOA	1583	n/a	n/a	1
386.6480000000	n/a	386648	FrequentVariableSOA	1666	n/a	n/a	1
388.3150000000	n/a	388315	FrequentVariableSOA	1683	n/a	n/a	1
389.9980000000	n/a	389998	FrequentVariableSOA	1583	n/a	n/a	1
391.5810000000	n/a	391581	FrequentVariableSOA	1766	n/a	n/a	1
393.3480000000	n/a	393348	FrequentVariableSOA	1783	n/a	n/a	1
395.1310000000	n/a	395131	GoVariableSOA	565	n/a	n/a	1
396.8650000000	n/a	396865	FrequentVariableSOA	1566	n/a	n/a	1
398.4310000000	n/a	398431	FrequentVariableSOA	1583	n/a	n/a	1
400.0140000000	n/a	400014	GoVariableSOA	1766	n/a	n/a	0
401.7810000000	n/a	401781	FrequentVariableSOA	1716	n/a	n/a	1
403.4980000000	n/a	403498	NovelVariableSOA	1750	n/a	n/a	1
405.2480000000	n/a	405248	FrequentVariableSOA	1650	n/a	n/a	1
406.8980000000	n/a	406898	GoVariableSOA	397	n/a	n/a	1
408.4310000000	n/a	408431	FrequentVariableSOA	1616	n/a	n/a	1
410.0480000000	n/a	410048	GoVariableSOA	513	n/a	n/a	1
411.6640000000	n/a	411664	FrequentVariableSOA	1716	n/a	n/a	1
413.3810000000	n/a	413381	FrequentVariableSOA	1800	n/a	n/a	1
415.1810000000	n/a	415181	FrequentVariableSOA	1650	n/a	n/a	1
416.8310000000	n/a	416831	FrequentVariableSOA	1600	n/a	n/a	1
418.4310000000	n/a	418431	GoVariableSOA	411	n/a	n/a	1
420.1310000000	n/a	420131	FrequentVariableSOA	1516	n/a	n/a	1
421.6480000000	n/a	421648	FrequentVariableSOA	1666	n/a	n/a	1
423.3140000000	n/a	423314	FrequentVariableSOA	1666	n/a	n/a	1
424.9810000000	n/a	424981	NovelVariableSOA	1633	n/a	n/a	1
426.6140000000	n/a	426614	FrequentVariableSOA	1600	n/a	n/a	1
428.2140000000	n/a	428214	FrequentVariableSOA	1683	n/a	n/a	1
429.8980000000	n/a	429898	FrequentVariableSOA	1516	n/a	n/a	1
431.4140000000	n/a	431414	FrequentVariableSOA	1566	n/a	n/a	1
432.9810000000	n/a	432981	NovelVariableSOA	1766	n/a	n/a	1
434.7480000000	n/a	434748	FrequentVariableSOA	1650	n/a	n/a	1
436.3980000000	n/a	436398	FrequentVariableSOA	1750	n/a	n/a	1
438.1480000000	n/a	438148	FrequentVariableSOA	1550	n/a	n/a	1
439.6980000000	n/a	439698	FrequentVariableSOA	1683	n/a	n/a	1
441.3810000000	n/a	441381	NovelVariableSOA	1766	n/a	n/a	1
443.1480000000	n/a	443148	FrequentVariableSOA	1566	n/a	n/a	1
444.7140000000	n/a	444714	FrequentVariableSOA	1550	n/a	n/a	1
446.2640000000	n/a	446264	GoVariableSOA	499	n/a	n/a	1
447.9640000000	n/a	447964	FrequentVariableSOA	1566	n/a	n/a	1
449.5310000000	n/a	449531	FrequentVariableSOA	1616	n/a	n/a	1
451.1480000000	n/a	451148	FrequentVariableSOA	1683	n/a	n/a	1
452.8310000000	n/a	452831	FrequentVariableSOA	1516	n/a	n/a	1
454.3480000000	n/a	454348	NovelVariableSOA	1533	n/a	n/a	1
455.8810000000	n/a	455881	FrequentVariableSOA	1716	n/a	n/a	1
457.5980000000	n/a	457598	FrequentVariableSOA	1600	n/a	n/a	1
459.1980000000	n/a	459198	FrequentVariableSOA	1633	n/a	n/a	1
460.8310000000	n/a	460831	FrequentVariableSOA	1650	n/a	n/a	1
462.4810000000	n/a	462481	FrequentVariableSOA	1766	n/a	n/a	1
464.2480000000	n/a	464248	GoFixedSOA	459	n/a	n/a	1
465.8810000000	n/a	465881	FrequentFixedSOA	1633	n/a	n/a	1
467.5140000000	n/a	467514	FrequentFixedSOA	1633	n/a	n/a	1
469.1480000000	n/a	469148	FrequentFixedSOA	1633	n/a	n/a	1
470.7810000000	n/a	470781	FrequentFixedSOA	1633	n/a	n/a	1
472.4140000000	n/a	472414	FrequentFixedSOA	1633	n/a	n/a	1
474.0480000000	n/a	474048	FrequentFixedSOA	1633	n/a	n/a	1
475.6810000000	n/a	475681	NovelFixedSOA	1633	n/a	n/a	1
477.3140000000	n/a	477314	FrequentFixedSOA	1633	n/a	n/a	1
478.9480000000	n/a	478948	FrequentFixedSOA	1633	n/a	n/a	1
480.5810000000	n/a	480581	FrequentFixedSOA	1633	n/a	n/a	1
482.2140000000	n/a	482214	NovelFixedSOA	1633	n/a	n/a	1
483.8480000000	n/a	483848	FrequentFixedSOA	1633	n/a	n/a	1
485.4810000000	n/a	485481	GoFixedSOA	1633	n/a	n/a	0
487.1140000000	n/a	487114	FrequentFixedSOA	1633	n/a	n/a	1
488.7480000000	n/a	488748	FrequentFixedSOA	1633	n/a	n/a	1
490.3810000000	n/a	490381	GoFixedSOA	505	n/a	n/a	1
492.0140000000	n/a	492014	FrequentFixedSOA	1633	n/a	n/a	1
493.6480000000	n/a	493648	NovelFixedSOA	1633	n/a	n/a	1
495.2810000000	n/a	495281	FrequentFixedSOA	1633	n/a	n/a	1
496.9140000000	n/a	496914	FrequentFixedSOA	1633	n/a	n/a	1
498.5480000000	n/a	498548	FrequentFixedSOA	1633	n/a	n/a	1
500.1810000000	n/a	500181	FrequentFixedSOA	1633	n/a	n/a	1
501.8140000000	n/a	501814	FrequentFixedSOA	1633	n/a	n/a	1
503.4480000000	n/a	503448	GoFixedSOA	1633	n/a	n/a	0
505.0810000000	n/a	505081	FrequentFixedSOA	1633	n/a	n/a	1
506.7140000000	n/a	506714	FrequentFixedSOA	1633	n/a	n/a	1
508.3480000000	n/a	508348	NovelFixedSOA	1633	n/a	n/a	1
509.9810000000	n/a	509981	FrequentFixedSOA	1633	n/a	n/a	1
511.6140000000	n/a	511614	FrequentFixedSOA	1633	n/a	n/a	1
513.2480000000	n/a	513248	FrequentFixedSOA	1633	n/a	n/a	1
514.8810000000	n/a	514881	FrequentFixedSOA	1633	n/a	n/a	1
516.5140000000	n/a	516514	FrequentFixedSOA	1633	n/a	n/a	1
518.1480000000	n/a	518148	NovelFixedSOA	1633	n/a	n/a	1
519.7810000000	n/a	519781	FrequentFixedSOA	1633	n/a	n/a	1
521.4140000000	n/a	521414	FrequentFixedSOA	1633	n/a	n/a	1
523.0480000000	n/a	523048	FrequentFixedSOA	1633	n/a	n/a	1
524.6810000000	n/a	524681	FrequentFixedSOA	1633	n/a	n/a	1
526.3140000000	n/a	526314	GoFixedSOA	519	n/a	n/a	1
527.9480000000	n/a	527948	FrequentFixedSOA	1633	n/a	n/a	1
529.5810000000	n/a	529581	FrequentFixedSOA	1633	n/a	n/a	1
531.2140000000	n/a	531214	NovelFixedSOA	1633	n/a	n/a	1
532.8480000000	n/a	532848	FrequentFixedSOA	1633	n/a	n/a	1
534.4810000000	n/a	534481	FrequentFixedSOA	1633	n/a	n/a	1
536.1140000000	n/a	536114	NovelFixedSOA	1633	n/a	n/a	1
537.7480000000	n/a	537748	FrequentFixedSOA	1633	n/a	n/a	1
539.3810000000	n/a	539381	FrequentFixedSOA	1633	n/a	n/a	1
541.0140000000	n/a	541014	FrequentFixedSOA	1633	n/a	n/a	1
542.6480000000	n/a	542648	FrequentFixedSOA	1633	n/a	n/a	1
544.2810000000	n/a	544281	FrequentFixedSOA	1633	n/a	n/a	1
545.9140000000	n/a	545914	GoFixedSOA	530	n/a	n/a	1
547.5480000000	n/a	547548	FrequentFixedSOA	1633	n/a	n/a	1
549.1810000000	n/a	549181	FrequentFixedSOA	1633	n/a	n/a	1
550.8140000000	n/a	550814	FrequentFixedSOA	1633	n/a	n/a	1
552.4480000000	n/a	552448	FrequentFixedSOA	1633	n/a	n/a	1
554.0810000000	n/a	554081	FrequentFixedSOA	1633	n/a	n/a	1
555.7140000000	n/a	555714	NovelFixedSOA	1633	n/a	n/a	1
557.3480000000	n/a	557348	FrequentFixedSOA	1633	n/a	n/a	1
558.9810000000	n/a	558981	GoFixedSOA	502	n/a	n/a	1
560.6140000000	n/a	560614	FrequentFixedSOA	1633	n/a	n/a	1
562.2480000000	n/a	562248	FrequentFixedSOA	1633	n/a	n/a	1
563.8810000000	n/a	563881	FrequentFixedSOA	1633	n/a	n/a	1
565.5140000000	n/a	565514	FrequentFixedSOA	1633	n/a	n/a	1
567.1480000000	n/a	567148	FrequentFixedSOA	1633	n/a	n/a	1
568.7810000000	n/a	568781	FrequentFixedSOA	1633	n/a	n/a	1
570.4140000000	n/a	570414	FrequentFixedSOA	1633	n/a	n/a	1
572.0480000000	n/a	572048	FrequentFixedSOA	1633	n/a	n/a	1
573.6810000000	n/a	573681	NovelFixedSOA	1633	n/a	n/a	1
575.3140000000	n/a	575314	FrequentFixedSOA	1633	n/a	n/a	1
576.9480000000	n/a	576948	FrequentFixedSOA	1633	n/a	n/a	1
578.5810000000	n/a	578581	GoVariableSOA	597	n/a	n/a	1
580.1640000000	n/a	580164	FrequentVariableSOA	1566	n/a	n/a	1
581.7310000000	n/a	581731	FrequentVariableSOA	1700	n/a	n/a	1
583.4310000000	n/a	583431	FrequentVariableSOA	1633	n/a	n/a	1
585.0640000000	n/a	585064	FrequentVariableSOA	1666	n/a	n/a	1
586.7310000000	n/a	586731	FrequentVariableSOA	1750	n/a	n/a	1
588.4810000000	n/a	588481	FrequentVariableSOA	1600	n/a	n/a	1
590.0810000000	n/a	590081	NovelVariableSOA	1750	n/a	n/a	1
591.8310000000	n/a	591831	FrequentVariableSOA	1750	n/a	n/a	1
593.5810000000	n/a	593581	FrequentVariableSOA	1733	n/a	n/a	1
595.3140000000	n/a	595314	FrequentVariableSOA	1600	n/a	n/a	1
596.9140000000	n/a	596914	NovelVariableSOA	1716	n/a	n/a	1
598.6310000000	n/a	598631	FrequentVariableSOA	1700	n/a	n/a	1
600.3310000000	n/a	600331	GoVariableSOA	450	n/a	n/a	1
601.8480000000	n/a	601848	FrequentVariableSOA	1500	n/a	n/a	1
603.3480000000	n/a	603348	FrequentVariableSOA	1666	n/a	n/a	1
605.0140000000	n/a	605014	GoVariableSOA	1550	n/a	n/a	0
606.5640000000	n/a	606564	FrequentVariableSOA	1650	n/a	n/a	1
608.2140000000	n/a	608214	NovelVariableSOA	1500	n/a	n/a	1
609.7140000000	n/a	609714	FrequentVariableSOA	1716	n/a	n/a	1
611.4310000000	n/a	611431	FrequentVariableSOA	1550	n/a	n/a	1
612.9810000000	n/a	612981	FrequentVariableSOA	1766	n/a	n/a	1
614.7480000000	n/a	614748	FrequentVariableSOA	1766	n/a	n/a	1
616.5140000000	n/a	616514	FrequentVariableSOA	1683	n/a	n/a	1
618.1970000000	n/a	618197	GoVariableSOA	562	n/a	n/a	1
619.9640000000	n/a	619964	FrequentVariableSOA	1566	n/a	n/a	1
621.5310000000	n/a	621531	FrequentVariableSOA	1583	n/a	n/a	1
623.1140000000	n/a	623114	NovelVariableSOA	1783	n/a	n/a	1
624.8970000000	n/a	624897	FrequentVariableSOA	1600	n/a	n/a	1
626.4970000000	n/a	626497	FrequentVariableSOA	1633	n/a	n/a	1
628.1310000000	n/a	628131	FrequentVariableSOA	1733	n/a	n/a	1
629.8640000000	n/a	629864	FrequentVariableSOA	1516	n/a	n/a	1
631.3810000000	n/a	631381	FrequentVariableSOA	1766	n/a	n/a	1
633.1470000000	n/a	633147	NovelVariableSOA	1566	n/a	n/a	1
634.7140000000	n/a	634714	FrequentVariableSOA	1783	n/a	n/a	1
636.4970000000	n/a	636497	FrequentVariableSOA	1533	n/a	n/a	1
638.0310000000	n/a	638031	FrequentVariableSOA	1566	n/a	n/a	1
639.5970000000	n/a	639597	FrequentVariableSOA	1616	n/a	n/a	1
641.2140000000	n/a	641214	GoVariableSOA	1750	n/a	n/a	0
642.9640000000	n/a	642964	FrequentVariableSOA	1600	n/a	n/a	1
644.5640000000	n/a	644564	FrequentVariableSOA	1750	n/a	n/a	1
646.3140000000	n/a	646314	NovelVariableSOA	1566	n/a	n/a	1
647.8810000000	n/a	647881	FrequentVariableSOA	1766	n/a	n/a	1
649.6470000000	n/a	649647	FrequentVariableSOA	1783	n/a	n/a	1
651.4310000000	n/a	651431	NovelVariableSOA	1766	n/a	n/a	1
653.1970000000	n/a	653197	FrequentVariableSOA	1716	n/a	n/a	1
654.9140000000	n/a	654914	FrequentVariableSOA	1616	n/a	n/a	1
656.5310000000	n/a	656531	FrequentVariableSOA	1600	n/a	n/a	1
658.1310000000	n/a	658131	FrequentVariableSOA	1516	n/a	n/a	1
659.6470000000	n/a	659647	FrequentVariableSOA	1583	n/a	n/a	1
661.2310000000	n/a	661231	GoVariableSOA	507	n/a	n/a	1
662.7310000000	n/a	662731	FrequentVariableSOA	1566	n/a	n/a	1
664.2970000000	n/a	664297	FrequentVariableSOA	1683	n/a	n/a	1
665.9810000000	n/a	665981	FrequentVariableSOA	1616	n/a	n/a	1
667.5970000000	n/a	667597	FrequentVariableSOA	1766	n/a	n/a	1
669.3640000000	n/a	669364	FrequentVariableSOA	1716	n/a	n/a	1
671.0810000000	n/a	671081	NovelVariableSOA	1650	n/a	n/a	1
672.7310000000	n/a	672731	FrequentVariableSOA	1750	n/a	n/a	1
674.4810000000	n/a	674481	GoVariableSOA	437	n/a	n/a	1
676.0470000000	n/a	676047	FrequentVariableSOA	1666	n/a	n/a	1
677.7140000000	n/a	677714	FrequentVariableSOA	1650	n/a	n/a	1
679.3640000000	n/a	679364	FrequentVariableSOA	1616	n/a	n/a	1
680.9810000000	n/a	680981	FrequentVariableSOA	1800	n/a	n/a	1
682.7810000000	n/a	682781	FrequentVariableSOA	1683	n/a	n/a	1
684.4640000000	n/a	684464	FrequentVariableSOA	1683	n/a	n/a	1
686.1470000000	n/a	686147	FrequentVariableSOA	1766	n/a	n/a	1
687.9140000000	n/a	687914	FrequentVariableSOA	1750	n/a	n/a	1
689.6640000000	n/a	689664	NovelVariableSOA	1566	n/a	n/a	1
691.2310000000	n/a	691231	FrequentVariableSOA	1550	n/a	n/a	1
692.7810000000	n/a	692781	FrequentVariableSOA	1650	n/a	n/a	1
694.4310000000	n/a	694431	GoFixedSOA	1633	n/a	n/a	0
696.0640000000	n/a	696064	FrequentFixedSOA	1633	n/a	n/a	1
697.6970000000	n/a	697697	FrequentFixedSOA	1633	n/a	n/a	1
699.3310000000	n/a	699331	FrequentFixedSOA	1633	n/a	n/a	1
700.9640000000	n/a	700964	GoFixedSOA	495	n/a	n/a	1
702.5970000000	n/a	702597	FrequentFixedSOA	1633	n/a	n/a	1
704.2310000000	n/a	704231	FrequentFixedSOA	1633	n/a	n/a	1
705.8640000000	n/a	705864	FrequentFixedSOA	1633	n/a	n/a	1
707.4970000000	n/a	707497	FrequentFixedSOA	1633	n/a	n/a	1
709.1310000000	n/a	709131	GoFixedSOA	395	n/a	n/a	1
710.7640000000	n/a	710764	FrequentFixedSOA	1633	n/a	n/a	1
712.3970000000	n/a	712397	FrequentFixedSOA	1633	n/a	n/a	1
714.0310000000	n/a	714031	NovelFixedSOA	1633	n/a	n/a	1
715.6640000000	n/a	715664	FrequentFixedSOA	1633	n/a	n/a	1
717.2970000000	n/a	717297	FrequentFixedSOA	1633	n/a	n/a	1
718.9310000000	n/a	718931	GoFixedSOA	668	n/a	n/a	1
720.5640000000	n/a	720564	FrequentFixedSOA	1633	n/a	n/a	1
722.1970000000	n/a	722197	FrequentFixedSOA	1633	n/a	n/a	1
723.8310000000	n/a	723831	FrequentFixedSOA	1633	n/a	n/a	1
725.4640000000	n/a	725464	NovelFixedSOA	1633	n/a	n/a	1
727.0970000000	n/a	727097	FrequentFixedSOA	1633	n/a	n/a	1
728.7310000000	n/a	728731	NovelFixedSOA	1633	n/a	n/a	1
730.3640000000	n/a	730364	FrequentFixedSOA	1633	n/a	n/a	1
731.9970000000	n/a	731997	FrequentFixedSOA	1633	n/a	n/a	1
733.6310000000	n/a	733631	FrequentFixedSOA	1633	n/a	n/a	1
735.2640000000	n/a	735264	GoFixedSOA	475	n/a	n/a	1
736.8970000000	n/a	736897	FrequentFixedSOA	1633	n/a	n/a	1
738.5310000000	n/a	738531	FrequentFixedSOA	1633	n/a	n/a	1
740.1640000000	n/a	740164	FrequentFixedSOA	1633	n/a	n/a	1
741.7970000000	n/a	741797	GoFixedSOA	1633	n/a	n/a	0
743.4310000000	n/a	743431	FrequentFixedSOA	1633	n/a	n/a	1
745.0640000000	n/a	745064	FrequentFixedSOA	1633	n/a	n/a	1
746.6970000000	n/a	746697	NovelFixedSOA	1633	n/a	n/a	1
748.3310000000	n/a	748331	FrequentFixedSOA	1633	n/a	n/a	1
749.9640000000	n/a	749964	GoFixedSOA	418	n/a	n/a	1
751.5970000000	n/a	751597	FrequentFixedSOA	1633	n/a	n/a	1
753.2310000000	n/a	753231	FrequentFixedSOA	1633	n/a	n/a	1
754.8640000000	n/a	754864	FrequentFixedSOA	1633	n/a	n/a	1
756.4970000000	n/a	756497	FrequentFixedSOA	1633	n/a	n/a	1
758.1310000000	n/a	758131	FrequentFixedSOA	1633	n/a	n/a	1
759.7640000000	n/a	759764	FrequentFixedSOA	1633	n/a	n/a	1
761.3970000000	n/a	761397	NovelFixedSOA	1633	n/a	n/a	1
763.0310000000	n/a	763031	FrequentFixedSOA	1633	n/a	n/a	1
764.6640000000	n/a	764664	FrequentFixedSOA	1633	n/a	n/a	1
766.2970000000	n/a	766297	FrequentFixedSOA	1633	n/a	n/a	1
767.9310000000	n/a	767931	GoFixedSOA	462	n/a	n/a	1
769.5640000000	n/a	769564	FrequentFixedSOA	1633	n/a	n/a	1
771.1970000000	n/a	771197	FrequentFixedSOA	1633	n/a	n/a	1
772.8310000000	n/a	772831	FrequentFixedSOA	1633	n/a	n/a	1
774.4640000000	n/a	774464	FrequentFixedSOA	1633	n/a	n/a	1
776.0970000000	n/a	776097	NovelFixedSOA	1633	n/a	n/a	1
777.7310000000	n/a	777731	FrequentFixedSOA	1633	n/a	n/a	1
778.6000000000	n/a	778600	STATUS	418	n/a	n/a	1
780.1790000000	n/a	780179	FrequentFixedSOA	1633	n/a	n/a	1
781.8120000000	n/a	781812	FrequentFixedSOA	1633	n/a	n/a	1
783.4460000000	n/a	783446	NovelFixedSOA	1633	n/a	n/a	1
785.0790000000	n/a	785079	FrequentFixedSOA	1633	n/a	n/a	1
786.7120000000	n/a	786712	GoVariableSOA	560	n/a	n/a	1
788.4960000000	n/a	788496	FrequentVariableSOA	1700	n/a	n/a	1
790.1960000000	n/a	790196	FrequentVariableSOA	1650	n/a	n/a	1
791.8460000000	n/a	791846	FrequentVariableSOA	1633	n/a	n/a	1
793.4790000000	n/a	793479	GoVariableSOA	1633	n/a	n/a	0
795.1120000000	n/a	795112	FrequentVariableSOA	1716	n/a	n/a	1
796.8290000000	n/a	796829	FrequentVariableSOA	1516	n/a	n/a	1
798.3460000000	n/a	798346	FrequentVariableSOA	1683	n/a	n/a	1
800.0290000000	n/a	800029	FrequentVariableSOA	1716	n/a	n/a	1
801.7460000000	n/a	801746	GoVariableSOA	1533	n/a	n/a	0
803.2790000000	n/a	803279	FrequentVariableSOA	1600	n/a	n/a	1
804.8790000000	n/a	804879	FrequentVariableSOA	1700	n/a	n/a	1
806.5790000000	n/a	806579	NovelVariableSOA	1733	n/a	n/a	1
808.3120000000	n/a	808312	FrequentVariableSOA	1516	n/a	n/a	1
809.8290000000	n/a	809829	FrequentVariableSOA	1683	n/a	n/a	1
811.5120000000	n/a	811512	GoVariableSOA	365	n/a	n/a	1
813.0120000000	n/a	813012	FrequentVariableSOA	1750	n/a	n/a	1
814.7620000000	n/a	814762	FrequentVariableSOA	1583	n/a	n/a	1
816.3460000000	n/a	816346	FrequentVariableSOA	1650	n/a	n/a	1
817.9960000000	n/a	817996	NovelVariableSOA	1766	n/a	n/a	1
819.7620000000	n/a	819762	FrequentVariableSOA	1533	n/a	n/a	1
821.2960000000	n/a	821296	NovelVariableSOA	1700	n/a	n/a	1
822.9960000000	n/a	822996	FrequentVariableSOA	1566	n/a	n/a	1
824.5620000000	n/a	824562	FrequentVariableSOA	1633	n/a	n/a	1
826.1960000000	n/a	826196	FrequentVariableSOA	1650	n/a	n/a	1
827.8460000000	n/a	827846	GoVariableSOA	503	n/a	n/a	1
829.5460000000	n/a	829546	FrequentVariableSOA	1616	n/a	n/a	1
831.1620000000	n/a	831162	FrequentVariableSOA	1750	n/a	n/a	1
832.9120000000	n/a	832912	FrequentVariableSOA	1716	n/a	n/a	1
834.6290000000	n/a	834629	GoVariableSOA	1666	n/a	n/a	0
836.2960000000	n/a	836296	FrequentVariableSOA	1516	n/a	n/a	1
837.8120000000	n/a	837812	FrequentVariableSOA	1516	n/a	n/a	1
839.3290000000	n/a	839329	NovelVariableSOA	1783	n/a	n/a	1
841.1120000000	n/a	841112	FrequentVariableSOA	1500	n/a	n/a	1
842.6120000000	n/a	842612	GoVariableSOA	559	n/a	n/a	1
844.3960000000	n/a	844396	FrequentVariableSOA	1716	n/a	n/a	1
846.1120000000	n/a	846112	FrequentVariableSOA	1516	n/a	n/a	1
847.6290000000	n/a	847629	FrequentVariableSOA	1800	n/a	n/a	1
849.4290000000	n/a	849429	FrequentVariableSOA	1683	n/a	n/a	1
851.1120000000	n/a	851112	FrequentVariableSOA	1700	n/a	n/a	1
852.8120000000	n/a	852812	FrequentVariableSOA	1700	n/a	n/a	1
854.5120000000	n/a	854512	NovelVariableSOA	1583	n/a	n/a	1
856.0960000000	n/a	856096	FrequentVariableSOA	1566	n/a	n/a	1
857.6620000000	n/a	857662	FrequentVariableSOA	1550	n/a	n/a	1
859.2120000000	n/a	859212	FrequentVariableSOA	1616	n/a	n/a	1
860.8290000000	n/a	860829	GoVariableSOA	392	n/a	n/a	1
862.4960000000	n/a	862496	FrequentVariableSOA	1700	n/a	n/a	1
864.1960000000	n/a	864196	FrequentVariableSOA	1733	n/a	n/a	1
865.9290000000	n/a	865929	FrequentVariableSOA	1750	n/a	n/a	1
867.6790000000	n/a	867679	FrequentVariableSOA	1783	n/a	n/a	1
869.4620000000	n/a	869462	NovelVariableSOA	1700	n/a	n/a	1
871.1620000000	n/a	871162	FrequentVariableSOA	1550	n/a	n/a	1
872.7120000000	n/a	872712	FrequentVariableSOA	1783	n/a	n/a	1
874.4960000000	n/a	874496	NovelVariableSOA	1500	n/a	n/a	1
875.9960000000	n/a	875996	FrequentVariableSOA	1516	n/a	n/a	1
877.5120000000	n/a	877512	NovelVariableSOA	1550	n/a	n/a	1
879.0620000000	n/a	879062	FrequentVariableSOA	1583	n/a	n/a	1
880.6460000000	n/a	880646	FrequentVariableSOA	1733	n/a	n/a	1
882.3790000000	n/a	882379	FrequentVariableSOA	1766	n/a	n/a	1
884.1460000000	n/a	884146	FrequentVariableSOA	1583	n/a	n/a	1
885.7290000000	n/a	885729	FrequentVariableSOA	1550	n/a	n/a	1
887.2790000000	n/a	887279	FrequentVariableSOA	1783	n/a	n/a	1
889.0620000000	n/a	889062	FrequentVariableSOA	1516	n/a	n/a	1
890.5790000000	n/a	890579	GoVariableSOA	1566	n/a	n/a	0
892.1460000000	n/a	892146	FrequentVariableSOA	1733	n/a	n/a	1
893.8790000000	n/a	893879	GoVariableSOA	1750	n/a	n/a	0
895.6290000000	n/a	895629	FrequentVariableSOA	1716	n/a	n/a	1
897.3460000000	n/a	897346	FrequentVariableSOA	1566	n/a	n/a	1
898.9120000000	n/a	898912	NovelVariableSOA	1766	n/a	n/a	1
900.6790000000	n/a	900679	FrequentVariableSOA	1683	n/a	n/a	1
