onset	duration	sample	trial_type	response_time	stim_file	value	correct
5.8610000000	n/a	5861	ignore	n/a	n/a	n/a	n/a
8.9600000000	n/a	8960	ignore	n/a	n/a	n/a	n/a
11.9650000000	n/a	11965	ignore	n/a	n/a	n/a	n/a
27.1440000000	n/a	27144	ignore	n/a	n/a	n/a	n/a
30.2440000000	n/a	30244	ignore	n/a	n/a	n/a	n/a
33.2310000000	n/a	33231	ignore	n/a	n/a	n/a	n/a
51.2940000000	n/a	51294	PosStim	n/a	n/a	n/a	n/a
54.3270000000	n/a	54327	PosNonAlcStimWithoutStartle	n/a	n/a	n/a	n/a
70.9440000000	n/a	70944	NegStim	n/a	n/a	n/a	n/a
73.9770000000	n/a	73977	NegNonAlcStimWithoutStartle	n/a	n/a	n/a	n/a
87.6940000000	n/a	87694	NeuStim	n/a	n/a	n/a	n/a
90.7940000000	n/a	90794	NeuNonAlcP2000	n/a	n/a	n/a	n/a
94.7810000000	n/a	94781	NeuNonAlcP2000	n/a	n/a	n/a	n/a
104.2270000000	n/a	104227	NegStim	n/a	n/a	n/a	n/a
107.3270000000	n/a	107327	NegAlcP2000	n/a	n/a	n/a	n/a
111.3140000000	n/a	111314	NegAlcP2000	n/a	n/a	n/a	n/a
122.6100000000	n/a	122610	NeuStim	n/a	n/a	n/a	n/a
125.6440000000	n/a	125644	NeuAlcStimWithoutStartle	n/a	n/a	n/a	n/a
140.6600000000	n/a	140660	PosStim	n/a	n/a	n/a	n/a
143.7600000000	n/a	143760	PosAlcP1000	n/a	n/a	n/a	n/a
148.7470000000	n/a	148747	PosAlcP1000	n/a	n/a	n/a	n/a
157.3940000000	n/a	157394	NeuStim	n/a	n/a	n/a	n/a
160.4940000000	n/a	160494	NeuAlcP2000	n/a	n/a	n/a	n/a
164.4810000000	n/a	164481	NeuAlcP2000	n/a	n/a	n/a	n/a
173.5770000000	n/a	173577	NegStim	n/a	n/a	n/a	n/a
176.6770000000	n/a	176677	NegAlcP3000	n/a	n/a	n/a	n/a
179.6640000000	n/a	179664	NegAlcP3000	n/a	n/a	n/a	n/a
192.9770000000	n/a	192977	PosStim	n/a	n/a	n/a	n/a
196.0100000000	n/a	196010	PosNonAlcStimWithoutStartle	n/a	n/a	n/a	n/a
210.0440000000	n/a	210044	NeuStim	n/a	n/a	n/a	n/a
213.1440000000	n/a	213144	NeuAlcP1000	n/a	n/a	n/a	n/a
218.1310000000	n/a	218131	NeuAlcP1000	n/a	n/a	n/a	n/a
229.6270000000	n/a	229627	NegStim	n/a	n/a	n/a	n/a
232.7270000000	n/a	232727	NegNonAlcP3000	n/a	n/a	n/a	n/a
235.7140000000	n/a	235714	NegNonAlcP3000	n/a	n/a	n/a	n/a
247.4600000000	n/a	247460	PosStim	n/a	n/a	n/a	n/a
250.5600000000	n/a	250560	PosAlcP2000	n/a	n/a	n/a	n/a
254.5470000000	n/a	254547	PosAlcP2000	n/a	n/a	n/a	n/a
266.0100000000	n/a	266010	NegStim	n/a	n/a	n/a	n/a
269.0430000000	n/a	269043	NegNonAlcStimWithoutStartle	n/a	n/a	n/a	n/a
285.5430000000	n/a	285543	PosStim	n/a	n/a	n/a	n/a
288.5770000000	n/a	288577	PosAlcStimWithoutStartle	n/a	n/a	n/a	n/a
301.6270000000	n/a	301627	NeuStim	n/a	n/a	n/a	n/a
304.7270000000	n/a	304727	NeuNonAlcP3000	n/a	n/a	n/a	n/a
307.7140000000	n/a	307714	NeuNonAlcP3000	n/a	n/a	n/a	n/a
318.6270000000	n/a	318627	NegStim	n/a	n/a	n/a	n/a
321.7270000000	n/a	321727	NegAlcP1000	n/a	n/a	n/a	n/a
326.7140000000	n/a	326714	NegAlcP1000	n/a	n/a	n/a	n/a
338.1770000000	n/a	338177	NeuStim	n/a	n/a	n/a	n/a
341.2770000000	n/a	341277	NeuAlcP3000	n/a	n/a	n/a	n/a
344.2640000000	n/a	344264	NeuAlcP3000	n/a	n/a	n/a	n/a
355.5600000000	n/a	355560	PosStim	n/a	n/a	n/a	n/a
358.6600000000	n/a	358660	PosAlcP3000	n/a	n/a	n/a	n/a
361.6470000000	n/a	361647	PosAlcP3000	n/a	n/a	n/a	n/a
375.4770000000	n/a	375477	NeuStim	n/a	n/a	n/a	n/a
378.5100000000	n/a	378510	NeuAlcStimWithoutStartle	n/a	n/a	n/a	n/a
392.1270000000	n/a	392127	NegStim	n/a	n/a	n/a	n/a
395.2270000000	n/a	395227	NegAlcP1000	n/a	n/a	n/a	n/a
400.2140000000	n/a	400214	NegAlcP1000	n/a	n/a	n/a	n/a
409.4770000000	n/a	409477	NeuStim	n/a	n/a	n/a	n/a
412.5770000000	n/a	412577	NeuNonAlcP3000	n/a	n/a	n/a	n/a
415.5640000000	n/a	415564	NeuNonAlcP3000	n/a	n/a	n/a	n/a
428.7600000000	n/a	428760	NegStim	n/a	n/a	n/a	n/a
431.8600000000	n/a	431860	NegNonAlcP2000	n/a	n/a	n/a	n/a
435.8470000000	n/a	435847	NegNonAlcP2000	n/a	n/a	n/a	n/a
445.9600000000	n/a	445960	PosStim	n/a	n/a	n/a	n/a
448.9930000000	n/a	448993	PosNonAlcStimWithoutStartle	n/a	n/a	n/a	n/a
462.9260000000	n/a	462926	NeuStim	n/a	n/a	n/a	n/a
465.9600000000	n/a	465960	NeuNonAlcStimWithoutStartle	n/a	n/a	n/a	n/a
479.1260000000	n/a	479126	PosStim	n/a	n/a	n/a	n/a
482.2260000000	n/a	482226	PosNonAlcP1000	n/a	n/a	n/a	n/a
487.2140000000	n/a	487214	PosNonAlcP1000	n/a	n/a	n/a	n/a
496.2930000000	n/a	496293	NegStim	n/a	n/a	n/a	n/a
499.3260000000	n/a	499326	NegAlcStimWithoutStartle	n/a	n/a	n/a	n/a
516.1430000000	n/a	516143	NeuStim	n/a	n/a	n/a	n/a
519.2430000000	n/a	519243	NeuAlcP2000	n/a	n/a	n/a	n/a
523.2300000000	n/a	523230	NeuAlcP2000	n/a	n/a	n/a	n/a
534.0600000000	n/a	534060	PosStim	n/a	n/a	n/a	n/a
537.1600000000	n/a	537160	PosNonAlcP1000	n/a	n/a	n/a	n/a
542.1470000000	n/a	542147	PosNonAlcP1000	n/a	n/a	n/a	n/a
553.7760000000	n/a	553776	NeuStim	n/a	n/a	n/a	n/a
556.8760000000	n/a	556876	NeuNonAlcP1000	n/a	n/a	n/a	n/a
561.8630000000	n/a	561863	NeuNonAlcP1000	n/a	n/a	n/a	n/a
571.2760000000	n/a	571276	PosStim	n/a	n/a	n/a	n/a
574.3100000000	n/a	574310	PosNonAlcStimWithoutStartle	n/a	n/a	n/a	n/a
588.4930000000	n/a	588493	NegStim	n/a	n/a	n/a	n/a
591.5930000000	n/a	591593	NegAlcP2000	n/a	n/a	n/a	n/a
595.5800000000	n/a	595580	NegAlcP2000	n/a	n/a	n/a	n/a
604.7260000000	n/a	604726	NeuStim	n/a	n/a	n/a	n/a
607.8260000000	n/a	607826	NeuAlcP3000	n/a	n/a	n/a	n/a
610.8130000000	n/a	610813	NeuAlcP3000	n/a	n/a	n/a	n/a
622.0100000000	n/a	622010	NegStim	n/a	n/a	n/a	n/a
625.0430000000	n/a	625043	NegAlcStimWithoutStartle	n/a	n/a	n/a	n/a
641.9430000000	n/a	641943	NeuStim	n/a	n/a	n/a	n/a
645.0430000000	n/a	645043	NeuNonAlcP2000	n/a	n/a	n/a	n/a
649.0300000000	n/a	649030	NeuNonAlcP2000	n/a	n/a	n/a	n/a
659.9600000000	n/a	659960	PosStim	n/a	n/a	n/a	n/a
663.0600000000	n/a	663060	PosNonAlcP3000	n/a	n/a	n/a	n/a
666.0470000000	n/a	666047	PosNonAlcP3000	n/a	n/a	n/a	n/a
679.7600000000	n/a	679760	NegStim	n/a	n/a	n/a	n/a
682.8590000000	n/a	682859	NegAlcP3000	n/a	n/a	n/a	n/a
685.8460000000	n/a	685846	NegAlcP3000	n/a	n/a	n/a	n/a
697.5760000000	n/a	697576	PosStim	n/a	n/a	n/a	n/a
700.6090000000	n/a	700609	PosAlcStimWithoutStartle	n/a	n/a	n/a	n/a
716.9260000000	n/a	716926	NegStim	n/a	n/a	n/a	n/a
720.0260000000	n/a	720026	NegAlcP1000	n/a	n/a	n/a	n/a
725.0130000000	n/a	725013	NegAlcP1000	n/a	n/a	n/a	n/a
736.9930000000	n/a	736993	PosStim	n/a	n/a	n/a	n/a
740.0260000000	n/a	740026	PosAlcStimWithoutStartle	n/a	n/a	n/a	n/a
755.3930000000	n/a	755393	NegStim	n/a	n/a	n/a	n/a
758.4930000000	n/a	758493	NegNonAlcP2000	n/a	n/a	n/a	n/a
762.4800000000	n/a	762480	NegNonAlcP2000	n/a	n/a	n/a	n/a
773.7090000000	n/a	773709	PosStim	n/a	n/a	n/a	n/a
776.8090000000	n/a	776809	PosAlcP2000	n/a	n/a	n/a	n/a
780.7960000000	n/a	780796	PosAlcP2000	n/a	n/a	n/a	n/a
793.0590000000	n/a	793059	NeuStim	n/a	n/a	n/a	n/a
796.0930000000	n/a	796093	NeuNonAlcStimWithoutStartle	n/a	n/a	n/a	n/a
812.1260000000	n/a	812126	PosStim	n/a	n/a	n/a	n/a
815.2260000000	n/a	815226	PosNonAlcP2000	n/a	n/a	n/a	n/a
819.2130000000	n/a	819213	PosNonAlcP2000	n/a	n/a	n/a	n/a
831.5430000000	n/a	831543	NegStim	n/a	n/a	n/a	n/a
834.5760000000	n/a	834576	NegAlcStimWithoutStartle	n/a	n/a	n/a	n/a
848.0260000000	n/a	848026	PosStim	n/a	n/a	n/a	n/a
851.1260000000	n/a	851126	PosAlcP3000	n/a	n/a	n/a	n/a
854.1130000000	n/a	854113	PosAlcP3000	n/a	n/a	n/a	n/a
866.4930000000	n/a	866493	PosStim	n/a	n/a	n/a	n/a
869.5930000000	n/a	869593	PosNonAlcP3000	n/a	n/a	n/a	n/a
872.5800000000	n/a	872580	PosNonAlcP3000	n/a	n/a	n/a	n/a
883.3590000000	n/a	883359	NeuStim	n/a	n/a	n/a	n/a
886.3930000000	n/a	886393	NeuNonAlcStimWithoutStartle	n/a	n/a	n/a	n/a
902.2260000000	n/a	902226	NeuStim	n/a	n/a	n/a	n/a
905.3260000000	n/a	905326	NeuNonAlcP3000	n/a	n/a	n/a	n/a
908.3130000000	n/a	908313	NeuNonAlcP3000	n/a	n/a	n/a	n/a
920.3920000000	n/a	920392	PosStim	n/a	n/a	n/a	n/a
923.4920000000	n/a	923492	PosAlcP2000	n/a	n/a	n/a	n/a
927.4790000000	n/a	927479	PosAlcP2000	n/a	n/a	n/a	n/a
938.6760000000	n/a	938676	NegStim	n/a	n/a	n/a	n/a
941.7760000000	n/a	941776	NegAlcP1000	n/a	n/a	n/a	n/a
946.7630000000	n/a	946763	NegAlcP1000	n/a	n/a	n/a	n/a
958.5420000000	n/a	958542	PosStim	n/a	n/a	n/a	n/a
961.6420000000	n/a	961642	PosNonAlcP2000	n/a	n/a	n/a	n/a
965.6290000000	n/a	965629	PosNonAlcP2000	n/a	n/a	n/a	n/a
976.2420000000	n/a	976242	NeuStim	n/a	n/a	n/a	n/a
979.2760000000	n/a	979276	NeuNonAlcStimWithoutStartle	n/a	n/a	n/a	n/a
993.7920000000	n/a	993792	NegStim	n/a	n/a	n/a	n/a
996.8920000000	n/a	996892	NegAlcP2000	n/a	n/a	n/a	n/a
1000.8790000000	n/a	1000879	NegAlcP2000	n/a	n/a	n/a	n/a
1010.0260000000	n/a	1010026	PosStim	n/a	n/a	n/a	n/a
1013.1260000000	n/a	1013126	PosAlcP3000	n/a	n/a	n/a	n/a
1016.1130000000	n/a	1016113	PosAlcP3000	n/a	n/a	n/a	n/a
1029.0090000000	n/a	1029009	NeuStim	n/a	n/a	n/a	n/a
1032.0420000000	n/a	1032042	NeuAlcStimWithoutStartle	n/a	n/a	n/a	n/a
1048.4760000000	n/a	1048476	NegStim	n/a	n/a	n/a	n/a
1051.5760000000	n/a	1051576	NegNonAlcP3000	n/a	n/a	n/a	n/a
1054.5630000000	n/a	1054563	NegNonAlcP3000	n/a	n/a	n/a	n/a
