onset	duration	sample	trial_type	response_time	stim_file	value	correct
3.2630000000	n/a	3263	FrequentFixedSOA	1633	n/a	n/a	1
4.8960000000	n/a	4896	FrequentFixedSOA	1633	n/a	n/a	1
6.5290000000	n/a	6529	FrequentFixedSOA	1633	n/a	n/a	1
8.1620000000	n/a	8162	FrequentFixedSOA	1633	n/a	n/a	1
9.7960000000	n/a	9796	FrequentFixedSOA	1633	n/a	n/a	1
11.4290000000	n/a	11429	FrequentFixedSOA	1633	n/a	n/a	1
13.0620000000	n/a	13062	FrequentFixedSOA	1633	n/a	n/a	1
14.6960000000	n/a	14696	FrequentFixedSOA	1633	n/a	n/a	1
16.3290000000	n/a	16329	FrequentFixedSOA	1633	n/a	n/a	1
17.9620000000	n/a	17962	FrequentFixedSOA	1633	n/a	n/a	1
19.5960000000	n/a	19596	NovelFixedSOA	1633	n/a	n/a	1
21.2290000000	n/a	21229	FrequentFixedSOA	1633	n/a	n/a	1
22.8620000000	n/a	22862	GoFixedSOA	503	n/a	n/a	1
24.4960000000	n/a	24496	FrequentFixedSOA	1633	n/a	n/a	1
26.1290000000	n/a	26129	FrequentFixedSOA	1633	n/a	n/a	1
27.7620000000	n/a	27762	FrequentFixedSOA	1633	n/a	n/a	1
29.3960000000	n/a	29396	GoFixedSOA	407	n/a	n/a	1
31.0290000000	n/a	31029	FrequentFixedSOA	1633	n/a	n/a	1
32.6620000000	n/a	32662	FrequentFixedSOA	1633	n/a	n/a	1
34.2960000000	n/a	34296	FrequentFixedSOA	1633	n/a	n/a	1
35.9290000000	n/a	35929	NovelFixedSOA	1633	n/a	n/a	1
37.5620000000	n/a	37562	FrequentFixedSOA	1633	n/a	n/a	1
39.1960000000	n/a	39196	FrequentFixedSOA	1633	n/a	n/a	1
40.8290000000	n/a	40829	FrequentFixedSOA	1633	n/a	n/a	1
42.4620000000	n/a	42462	GoFixedSOA	365	n/a	n/a	1
44.0960000000	n/a	44096	FrequentFixedSOA	1633	n/a	n/a	1
45.7290000000	n/a	45729	NovelFixedSOA	1633	n/a	n/a	1
47.3620000000	n/a	47362	FrequentFixedSOA	1633	n/a	n/a	1
48.9960000000	n/a	48996	FrequentFixedSOA	1633	n/a	n/a	1
50.6290000000	n/a	50629	FrequentFixedSOA	1633	n/a	n/a	1
52.2620000000	n/a	52262	GoFixedSOA	375	n/a	n/a	1
53.8960000000	n/a	53896	FrequentFixedSOA	1633	n/a	n/a	1
55.5290000000	n/a	55529	GoFixedSOA	429	n/a	n/a	1
57.1620000000	n/a	57162	FrequentFixedSOA	1633	n/a	n/a	1
58.7960000000	n/a	58796	FrequentFixedSOA	1633	n/a	n/a	1
60.4290000000	n/a	60429	GoFixedSOA	372	n/a	n/a	1
62.0620000000	n/a	62062	FrequentFixedSOA	1633	n/a	n/a	1
63.6960000000	n/a	63696	FrequentFixedSOA	1633	n/a	n/a	1
65.3290000000	n/a	65329	FrequentFixedSOA	1633	n/a	n/a	1
66.9620000000	n/a	66962	FrequentFixedSOA	1633	n/a	n/a	1
68.5960000000	n/a	68596	NovelFixedSOA	1633	n/a	n/a	1
70.2290000000	n/a	70229	FrequentFixedSOA	1633	n/a	n/a	1
71.8620000000	n/a	71862	NovelFixedSOA	1633	n/a	n/a	1
73.4960000000	n/a	73496	FrequentFixedSOA	1633	n/a	n/a	1
75.1290000000	n/a	75129	FrequentFixedSOA	1633	n/a	n/a	1
76.7620000000	n/a	76762	GoFixedSOA	360	n/a	n/a	1
78.3960000000	n/a	78396	FrequentFixedSOA	1633	n/a	n/a	1
80.0290000000	n/a	80029	FrequentFixedSOA	1633	n/a	n/a	1
81.6620000000	n/a	81662	FrequentFixedSOA	1633	n/a	n/a	1
83.2960000000	n/a	83296	FrequentFixedSOA	1633	n/a	n/a	1
84.9290000000	n/a	84929	NovelFixedSOA	1633	n/a	n/a	1
86.5620000000	n/a	86562	FrequentFixedSOA	1633	n/a	n/a	1
88.1960000000	n/a	88196	FrequentFixedSOA	1633	n/a	n/a	1
89.8290000000	n/a	89829	FrequentFixedSOA	1633	n/a	n/a	1
91.4620000000	n/a	91462	FrequentFixedSOA	1633	n/a	n/a	1
93.0960000000	n/a	93096	GoFixedSOA	323	n/a	n/a	1
94.7290000000	n/a	94729	FrequentFixedSOA	1633	n/a	n/a	1
96.3620000000	n/a	96362	FrequentFixedSOA	1633	n/a	n/a	1
97.9960000000	n/a	97996	NovelFixedSOA	1633	n/a	n/a	1
99.6290000000	n/a	99629	FrequentFixedSOA	1633	n/a	n/a	1
101.2620000000	n/a	101262	FrequentFixedSOA	1633	n/a	n/a	1
102.8960000000	n/a	102896	GoFixedSOA	360	n/a	n/a	1
104.5290000000	n/a	104529	FrequentFixedSOA	1633	n/a	n/a	1
106.1620000000	n/a	106162	FrequentFixedSOA	1633	n/a	n/a	1
107.7960000000	n/a	107796	FrequentFixedSOA	1633	n/a	n/a	1
109.4290000000	n/a	109429	FrequentFixedSOA	1633	n/a	n/a	1
111.0620000000	n/a	111062	NovelFixedSOA	1633	n/a	n/a	1
112.6960000000	n/a	112696	FrequentFixedSOA	1633	n/a	n/a	1
114.3290000000	n/a	114329	FrequentFixedSOA	1633	n/a	n/a	1
115.9620000000	n/a	115962	GoFixedSOA	353	n/a	n/a	1
117.5960000000	n/a	117596	FrequentVariableSOA	1633	n/a	n/a	1
119.2290000000	n/a	119229	FrequentVariableSOA	1716	n/a	n/a	1
120.9460000000	n/a	120946	FrequentVariableSOA	1700	n/a	n/a	1
122.6460000000	n/a	122646	FrequentVariableSOA	1616	n/a	n/a	1
124.2620000000	n/a	124262	FrequentVariableSOA	1516	n/a	n/a	1
125.7790000000	n/a	125779	FrequentVariableSOA	1766	n/a	n/a	1
127.5460000000	n/a	127546	FrequentVariableSOA	1616	n/a	n/a	1
129.1620000000	n/a	129162	FrequentVariableSOA	1733	n/a	n/a	1
130.8960000000	n/a	130896	FrequentVariableSOA	1783	n/a	n/a	1
132.6790000000	n/a	132679	FrequentVariableSOA	1716	n/a	n/a	1
134.3960000000	n/a	134396	NovelVariableSOA	1633	n/a	n/a	1
136.0290000000	n/a	136029	FrequentVariableSOA	1500	n/a	n/a	1
137.5290000000	n/a	137529	GoVariableSOA	376	n/a	n/a	1
139.1460000000	n/a	139146	FrequentVariableSOA	1700	n/a	n/a	1
140.8460000000	n/a	140846	FrequentVariableSOA	1683	n/a	n/a	1
142.5290000000	n/a	142529	FrequentVariableSOA	1800	n/a	n/a	1
144.3290000000	n/a	144329	GoVariableSOA	442	n/a	n/a	1
145.8960000000	n/a	145896	FrequentVariableSOA	1583	n/a	n/a	1
147.4790000000	n/a	147479	FrequentVariableSOA	1750	n/a	n/a	1
149.2290000000	n/a	149229	FrequentVariableSOA	1666	n/a	n/a	1
150.8960000000	n/a	150896	NovelVariableSOA	1533	n/a	n/a	1
152.4290000000	n/a	152429	FrequentVariableSOA	1666	n/a	n/a	1
154.0960000000	n/a	154096	FrequentVariableSOA	1733	n/a	n/a	1
155.8290000000	n/a	155829	FrequentVariableSOA	1550	n/a	n/a	1
157.3790000000	n/a	157379	GoVariableSOA	379	n/a	n/a	1
158.9290000000	n/a	158929	FrequentVariableSOA	1800	n/a	n/a	1
160.7290000000	n/a	160729	NovelVariableSOA	1716	n/a	n/a	1
162.4460000000	n/a	162446	FrequentVariableSOA	1583	n/a	n/a	1
164.0290000000	n/a	164029	FrequentVariableSOA	1616	n/a	n/a	1
165.6460000000	n/a	165646	FrequentVariableSOA	1683	n/a	n/a	1
167.3290000000	n/a	167329	GoVariableSOA	352	n/a	n/a	1
169.0460000000	n/a	169046	FrequentVariableSOA	1750	n/a	n/a	1
170.7960000000	n/a	170796	GoVariableSOA	389	n/a	n/a	1
172.3290000000	n/a	172329	FrequentVariableSOA	1766	n/a	n/a	1
174.0960000000	n/a	174096	FrequentVariableSOA	1633	n/a	n/a	1
175.7290000000	n/a	175729	GoVariableSOA	380	n/a	n/a	1
177.2960000000	n/a	177296	FrequentVariableSOA	1616	n/a	n/a	1
178.9120000000	n/a	178912	FrequentVariableSOA	1650	n/a	n/a	1
180.5620000000	n/a	180562	FrequentVariableSOA	1550	n/a	n/a	1
182.1120000000	n/a	182112	FrequentVariableSOA	1516	n/a	n/a	1
183.6290000000	n/a	183629	NovelVariableSOA	1583	n/a	n/a	1
185.2120000000	n/a	185212	FrequentVariableSOA	1716	n/a	n/a	1
186.9290000000	n/a	186929	NovelVariableSOA	1650	n/a	n/a	1
188.5790000000	n/a	188579	FrequentVariableSOA	1683	n/a	n/a	1
190.2620000000	n/a	190262	FrequentVariableSOA	1666	n/a	n/a	1
191.9290000000	n/a	191929	GoVariableSOA	316	n/a	n/a	1
193.4450000000	n/a	193445	FrequentVariableSOA	1600	n/a	n/a	1
195.0450000000	n/a	195045	FrequentVariableSOA	1666	n/a	n/a	1
196.7120000000	n/a	196712	FrequentVariableSOA	1783	n/a	n/a	1
198.4950000000	n/a	198495	FrequentVariableSOA	1550	n/a	n/a	1
200.0450000000	n/a	200045	NovelVariableSOA	1700	n/a	n/a	1
201.7450000000	n/a	201745	FrequentVariableSOA	1783	n/a	n/a	1
203.5290000000	n/a	203529	FrequentVariableSOA	1616	n/a	n/a	1
205.1450000000	n/a	205145	FrequentVariableSOA	1566	n/a	n/a	1
206.7120000000	n/a	206712	FrequentVariableSOA	1700	n/a	n/a	1
208.4120000000	n/a	208412	GoVariableSOA	431	n/a	n/a	1
210.1790000000	n/a	210179	FrequentVariableSOA	1766	n/a	n/a	1
211.9450000000	n/a	211945	FrequentVariableSOA	1616	n/a	n/a	1
213.5620000000	n/a	213562	NovelVariableSOA	1683	n/a	n/a	1
215.2450000000	n/a	215245	FrequentVariableSOA	1566	n/a	n/a	1
216.8120000000	n/a	216812	FrequentVariableSOA	1783	n/a	n/a	1
218.5950000000	n/a	218595	GoVariableSOA	351	n/a	n/a	1
220.3290000000	n/a	220329	FrequentVariableSOA	1600	n/a	n/a	1
221.9290000000	n/a	221929	FrequentVariableSOA	1800	n/a	n/a	1
223.7290000000	n/a	223729	FrequentVariableSOA	1533	n/a	n/a	1
225.2620000000	n/a	225262	FrequentVariableSOA	1616	n/a	n/a	1
226.8790000000	n/a	226879	NovelVariableSOA	1566	n/a	n/a	1
228.4450000000	n/a	228445	FrequentVariableSOA	1650	n/a	n/a	1
230.0950000000	n/a	230095	FrequentVariableSOA	1550	n/a	n/a	1
231.6450000000	n/a	231645	GoVariableSOA	380	n/a	n/a	1
233.4120000000	n/a	233412	FrequentFixedSOA	1633	n/a	n/a	1
235.0450000000	n/a	235045	FrequentFixedSOA	1633	n/a	n/a	1
236.6790000000	n/a	236679	FrequentFixedSOA	1633	n/a	n/a	1
238.3120000000	n/a	238312	GoFixedSOA	356	n/a	n/a	1
239.9450000000	n/a	239945	FrequentFixedSOA	1633	n/a	n/a	1
241.5790000000	n/a	241579	FrequentFixedSOA	1633	n/a	n/a	1
243.2120000000	n/a	243212	FrequentFixedSOA	1633	n/a	n/a	1
244.8450000000	n/a	244845	GoFixedSOA	329	n/a	n/a	1
246.4790000000	n/a	246479	FrequentFixedSOA	1633	n/a	n/a	1
248.1120000000	n/a	248112	FrequentFixedSOA	1633	n/a	n/a	1
249.7450000000	n/a	249745	FrequentFixedSOA	1633	n/a	n/a	1
251.3790000000	n/a	251379	NovelFixedSOA	1633	n/a	n/a	1
253.0120000000	n/a	253012	FrequentFixedSOA	1633	n/a	n/a	1
254.6450000000	n/a	254645	NovelFixedSOA	1633	n/a	n/a	1
256.2790000000	n/a	256279	FrequentFixedSOA	1633	n/a	n/a	1
257.9120000000	n/a	257912	FrequentFixedSOA	1633	n/a	n/a	1
259.5450000000	n/a	259545	NovelFixedSOA	1633	n/a	n/a	1
261.1790000000	n/a	261179	FrequentFixedSOA	1633	n/a	n/a	1
262.8120000000	n/a	262812	FrequentFixedSOA	1633	n/a	n/a	1
264.4450000000	n/a	264445	FrequentFixedSOA	1633	n/a	n/a	1
266.0790000000	n/a	266079	FrequentFixedSOA	1633	n/a	n/a	1
267.7120000000	n/a	267712	FrequentFixedSOA	1633	n/a	n/a	1
269.3450000000	n/a	269345	NovelFixedSOA	1633	n/a	n/a	1
270.9790000000	n/a	270979	FrequentFixedSOA	1633	n/a	n/a	1
272.6120000000	n/a	272612	FrequentFixedSOA	1633	n/a	n/a	1
274.2450000000	n/a	274245	FrequentFixedSOA	1633	n/a	n/a	1
275.8790000000	n/a	275879	FrequentFixedSOA	1633	n/a	n/a	1
277.5120000000	n/a	277512	FrequentFixedSOA	1633	n/a	n/a	1
279.1450000000	n/a	279145	GoFixedSOA	358	n/a	n/a	1
280.7790000000	n/a	280779	FrequentFixedSOA	1633	n/a	n/a	1
282.4120000000	n/a	282412	FrequentFixedSOA	1633	n/a	n/a	1
284.0450000000	n/a	284045	GoFixedSOA	431	n/a	n/a	1
285.6790000000	n/a	285679	FrequentFixedSOA	1633	n/a	n/a	1
287.3120000000	n/a	287312	NovelFixedSOA	1633	n/a	n/a	1
288.9450000000	n/a	288945	FrequentFixedSOA	1633	n/a	n/a	1
290.5790000000	n/a	290579	GoFixedSOA	336	n/a	n/a	1
292.2120000000	n/a	292212	FrequentFixedSOA	1633	n/a	n/a	1
293.8450000000	n/a	293845	GoFixedSOA	475	n/a	n/a	1
295.4790000000	n/a	295479	FrequentFixedSOA	1633	n/a	n/a	1
297.1120000000	n/a	297112	FrequentFixedSOA	1633	n/a	n/a	1
298.7450000000	n/a	298745	FrequentFixedSOA	1633	n/a	n/a	1
300.3790000000	n/a	300379	FrequentFixedSOA	1633	n/a	n/a	1
302.0120000000	n/a	302012	GoFixedSOA	300	n/a	n/a	1
303.6450000000	n/a	303645	FrequentFixedSOA	1633	n/a	n/a	1
305.2790000000	n/a	305279	FrequentFixedSOA	1633	n/a	n/a	1
306.9120000000	n/a	306912	FrequentFixedSOA	1633	n/a	n/a	1
308.5450000000	n/a	308545	NovelFixedSOA	1633	n/a	n/a	1
310.1790000000	n/a	310179	FrequentFixedSOA	1633	n/a	n/a	1
311.8120000000	n/a	311812	FrequentFixedSOA	1633	n/a	n/a	1
313.4450000000	n/a	313445	FrequentFixedSOA	1633	n/a	n/a	1
315.0790000000	n/a	315079	FrequentFixedSOA	1633	n/a	n/a	1
316.7120000000	n/a	316712	NovelFixedSOA	1633	n/a	n/a	1
318.3450000000	n/a	318345	FrequentFixedSOA	1633	n/a	n/a	1
319.9790000000	n/a	319979	FrequentFixedSOA	1633	n/a	n/a	1
321.6120000000	n/a	321612	FrequentFixedSOA	1633	n/a	n/a	1
323.2450000000	n/a	323245	FrequentFixedSOA	1633	n/a	n/a	1
324.8790000000	n/a	324879	NovelFixedSOA	1633	n/a	n/a	1
326.5120000000	n/a	326512	FrequentFixedSOA	1633	n/a	n/a	1
328.1450000000	n/a	328145	FrequentFixedSOA	1633	n/a	n/a	1
329.7790000000	n/a	329779	GoFixedSOA	371	n/a	n/a	1
331.4120000000	n/a	331412	FrequentFixedSOA	1633	n/a	n/a	1
333.0450000000	n/a	333045	FrequentFixedSOA	1633	n/a	n/a	1
334.6790000000	n/a	334679	FrequentFixedSOA	1633	n/a	n/a	1
336.3120000000	n/a	336312	FrequentFixedSOA	1633	n/a	n/a	1
337.9450000000	n/a	337945	NovelFixedSOA	1633	n/a	n/a	1
339.5790000000	n/a	339579	FrequentFixedSOA	1633	n/a	n/a	1
341.2120000000	n/a	341212	FrequentFixedSOA	1633	n/a	n/a	1
342.8450000000	n/a	342845	FrequentFixedSOA	1633	n/a	n/a	1
344.4790000000	n/a	344479	FrequentFixedSOA	1633	n/a	n/a	1
346.1120000000	n/a	346112	FrequentFixedSOA	1633	n/a	n/a	1
347.7450000000	n/a	347745	FrequentVariableSOA	1616	n/a	n/a	1
349.3620000000	n/a	349362	FrequentVariableSOA	1666	n/a	n/a	1
351.0290000000	n/a	351029	FrequentVariableSOA	1566	n/a	n/a	1
352.5950000000	n/a	352595	GoVariableSOA	350	n/a	n/a	1
354.3450000000	n/a	354345	FrequentVariableSOA	1716	n/a	n/a	1
356.0620000000	n/a	356062	FrequentVariableSOA	1666	n/a	n/a	1
357.7290000000	n/a	357729	FrequentVariableSOA	1616	n/a	n/a	1
359.3450000000	n/a	359345	GoVariableSOA	416	n/a	n/a	1
361.0950000000	n/a	361095	FrequentVariableSOA	1716	n/a	n/a	1
362.8120000000	n/a	362812	FrequentVariableSOA	1750	n/a	n/a	1
364.5620000000	n/a	364562	FrequentVariableSOA	1666	n/a	n/a	1
366.2290000000	n/a	366229	NovelVariableSOA	1750	n/a	n/a	1
367.9790000000	n/a	367979	FrequentVariableSOA	1550	n/a	n/a	1
369.5290000000	n/a	369529	NovelVariableSOA	1583	n/a	n/a	1
371.1120000000	n/a	371112	FrequentVariableSOA	1766	n/a	n/a	1
372.8790000000	n/a	372879	FrequentVariableSOA	1500	n/a	n/a	1
374.3790000000	n/a	374379	NovelVariableSOA	1583	n/a	n/a	1
375.9620000000	n/a	375962	FrequentVariableSOA	1550	n/a	n/a	1
377.5120000000	n/a	377512	FrequentVariableSOA	1800	n/a	n/a	1
379.3120000000	n/a	379312	FrequentVariableSOA	1750	n/a	n/a	1
381.0620000000	n/a	381062	FrequentVariableSOA	1666	n/a	n/a	1
382.7290000000	n/a	382729	FrequentVariableSOA	1533	n/a	n/a	1
384.2620000000	n/a	384262	NovelVariableSOA	1716	n/a	n/a	1
385.9780000000	n/a	385978	FrequentVariableSOA	1700	n/a	n/a	1
387.6780000000	n/a	387678	FrequentVariableSOA	1566	n/a	n/a	1
389.2450000000	n/a	389245	FrequentVariableSOA	1533	n/a	n/a	1
390.7780000000	n/a	390778	FrequentVariableSOA	1500	n/a	n/a	1
392.2780000000	n/a	392278	FrequentVariableSOA	1700	n/a	n/a	1
393.9780000000	n/a	393978	GoVariableSOA	310	n/a	n/a	1
395.7620000000	n/a	395762	FrequentVariableSOA	1550	n/a	n/a	1
397.3120000000	n/a	397312	FrequentVariableSOA	1683	n/a	n/a	1
398.9950000000	n/a	398995	GoVariableSOA	458	n/a	n/a	1
400.5450000000	n/a	400545	FrequentVariableSOA	1633	n/a	n/a	1
402.1780000000	n/a	402178	NovelVariableSOA	1633	n/a	n/a	1
403.8120000000	n/a	403812	FrequentVariableSOA	1766	n/a	n/a	1
405.5780000000	n/a	405578	GoVariableSOA	343	n/a	n/a	1
407.3450000000	n/a	407345	FrequentVariableSOA	1733	n/a	n/a	1
409.0780000000	n/a	409078	GoVariableSOA	370	n/a	n/a	1
410.6120000000	n/a	410612	FrequentVariableSOA	1766	n/a	n/a	1
412.3780000000	n/a	412378	FrequentVariableSOA	1600	n/a	n/a	1
413.9780000000	n/a	413978	FrequentVariableSOA	1516	n/a	n/a	1
415.4950000000	n/a	415495	FrequentVariableSOA	1500	n/a	n/a	1
416.9950000000	n/a	416995	GoVariableSOA	334	n/a	n/a	1
418.4950000000	n/a	418495	FrequentVariableSOA	1700	n/a	n/a	1
420.1950000000	n/a	420195	FrequentVariableSOA	1783	n/a	n/a	1
421.9780000000	n/a	421978	FrequentVariableSOA	1750	n/a	n/a	1
423.7280000000	n/a	423728	NovelVariableSOA	1666	n/a	n/a	1
425.3950000000	n/a	425395	FrequentVariableSOA	1650	n/a	n/a	1
427.0450000000	n/a	427045	FrequentVariableSOA	1550	n/a	n/a	1
428.5950000000	n/a	428595	FrequentVariableSOA	1633	n/a	n/a	1
430.2280000000	n/a	430228	FrequentVariableSOA	1600	n/a	n/a	1
431.8280000000	n/a	431828	NovelVariableSOA	1700	n/a	n/a	1
433.5280000000	n/a	433528	FrequentVariableSOA	1650	n/a	n/a	1
435.1780000000	n/a	435178	FrequentVariableSOA	1516	n/a	n/a	1
436.6950000000	n/a	436695	FrequentVariableSOA	1766	n/a	n/a	1
438.4620000000	n/a	438462	FrequentVariableSOA	1600	n/a	n/a	1
440.0620000000	n/a	440062	NovelVariableSOA	1616	n/a	n/a	1
441.6780000000	n/a	441678	FrequentVariableSOA	1583	n/a	n/a	1
443.2620000000	n/a	443262	FrequentVariableSOA	1516	n/a	n/a	1
444.7780000000	n/a	444778	GoVariableSOA	382	n/a	n/a	1
446.3780000000	n/a	446378	FrequentVariableSOA	1550	n/a	n/a	1
447.9280000000	n/a	447928	FrequentVariableSOA	1666	n/a	n/a	1
449.5950000000	n/a	449595	FrequentVariableSOA	1583	n/a	n/a	1
451.1780000000	n/a	451178	FrequentVariableSOA	1583	n/a	n/a	1
452.7620000000	n/a	452762	NovelVariableSOA	1533	n/a	n/a	1
454.2950000000	n/a	454295	FrequentVariableSOA	1616	n/a	n/a	1
455.9120000000	n/a	455912	FrequentVariableSOA	1516	n/a	n/a	1
457.4280000000	n/a	457428	FrequentVariableSOA	1733	n/a	n/a	1
459.1620000000	n/a	459162	FrequentVariableSOA	1533	n/a	n/a	1
460.6950000000	n/a	460695	FrequentVariableSOA	1550	n/a	n/a	1
462.2450000000	n/a	462245	GoFixedSOA	468	n/a	n/a	1
463.8780000000	n/a	463878	FrequentFixedSOA	1633	n/a	n/a	1
465.5120000000	n/a	465512	FrequentFixedSOA	1633	n/a	n/a	1
467.1450000000	n/a	467145	FrequentFixedSOA	1633	n/a	n/a	1
468.7780000000	n/a	468778	FrequentFixedSOA	1633	n/a	n/a	1
470.4120000000	n/a	470412	FrequentFixedSOA	1633	n/a	n/a	1
472.0450000000	n/a	472045	FrequentFixedSOA	1633	n/a	n/a	1
473.6780000000	n/a	473678	NovelFixedSOA	1633	n/a	n/a	1
475.3120000000	n/a	475312	FrequentFixedSOA	1633	n/a	n/a	1
476.9450000000	n/a	476945	FrequentFixedSOA	1633	n/a	n/a	1
478.5780000000	n/a	478578	FrequentFixedSOA	1633	n/a	n/a	1
480.2120000000	n/a	480212	NovelFixedSOA	1633	n/a	n/a	1
481.8450000000	n/a	481845	FrequentFixedSOA	1633	n/a	n/a	1
483.4780000000	n/a	483478	GoFixedSOA	393	n/a	n/a	1
485.1120000000	n/a	485112	FrequentFixedSOA	1633	n/a	n/a	1
486.7450000000	n/a	486745	FrequentFixedSOA	1633	n/a	n/a	1
488.3780000000	n/a	488378	GoFixedSOA	502	n/a	n/a	1
490.0120000000	n/a	490012	FrequentFixedSOA	1633	n/a	n/a	1
491.6450000000	n/a	491645	NovelFixedSOA	1633	n/a	n/a	1
493.2780000000	n/a	493278	FrequentFixedSOA	1633	n/a	n/a	1
494.9120000000	n/a	494912	FrequentFixedSOA	1633	n/a	n/a	1
496.5450000000	n/a	496545	FrequentFixedSOA	1633	n/a	n/a	1
498.1780000000	n/a	498178	FrequentFixedSOA	1633	n/a	n/a	1
499.8120000000	n/a	499812	FrequentFixedSOA	1633	n/a	n/a	1
501.4450000000	n/a	501445	GoFixedSOA	477	n/a	n/a	1
503.0780000000	n/a	503078	FrequentFixedSOA	1633	n/a	n/a	1
504.7120000000	n/a	504712	FrequentFixedSOA	1633	n/a	n/a	1
506.3450000000	n/a	506345	NovelFixedSOA	1633	n/a	n/a	1
507.9780000000	n/a	507978	FrequentFixedSOA	1633	n/a	n/a	1
509.6120000000	n/a	509612	FrequentFixedSOA	1633	n/a	n/a	1
511.2450000000	n/a	511245	FrequentFixedSOA	1633	n/a	n/a	1
512.8780000000	n/a	512878	FrequentFixedSOA	1633	n/a	n/a	1
514.5120000000	n/a	514512	FrequentFixedSOA	1633	n/a	n/a	1
516.1450000000	n/a	516145	NovelFixedSOA	1633	n/a	n/a	1
517.7780000000	n/a	517778	FrequentFixedSOA	1633	n/a	n/a	1
519.4120000000	n/a	519412	FrequentFixedSOA	1633	n/a	n/a	1
521.0450000000	n/a	521045	FrequentFixedSOA	1633	n/a	n/a	1
522.6780000000	n/a	522678	FrequentFixedSOA	1633	n/a	n/a	1
524.3120000000	n/a	524312	GoFixedSOA	412	n/a	n/a	1
525.9450000000	n/a	525945	FrequentFixedSOA	1633	n/a	n/a	1
527.5780000000	n/a	527578	FrequentFixedSOA	1633	n/a	n/a	1
529.2120000000	n/a	529212	NovelFixedSOA	1633	n/a	n/a	1
530.8450000000	n/a	530845	FrequentFixedSOA	1633	n/a	n/a	1
532.4780000000	n/a	532478	FrequentFixedSOA	1633	n/a	n/a	1
534.1120000000	n/a	534112	NovelFixedSOA	1633	n/a	n/a	1
535.7450000000	n/a	535745	FrequentFixedSOA	1633	n/a	n/a	1
537.3780000000	n/a	537378	FrequentFixedSOA	1633	n/a	n/a	1
539.0120000000	n/a	539012	FrequentFixedSOA	1633	n/a	n/a	1
540.6450000000	n/a	540645	FrequentFixedSOA	1633	n/a	n/a	1
542.2780000000	n/a	542278	FrequentFixedSOA	1633	n/a	n/a	1
543.9120000000	n/a	543912	GoFixedSOA	1633	n/a	n/a	0
545.5450000000	n/a	545545	FrequentFixedSOA	1633	n/a	n/a	1
547.1780000000	n/a	547178	FrequentFixedSOA	1633	n/a	n/a	1
548.8120000000	n/a	548812	FrequentFixedSOA	1633	n/a	n/a	1
550.4450000000	n/a	550445	FrequentFixedSOA	1633	n/a	n/a	1
552.0780000000	n/a	552078	FrequentFixedSOA	1633	n/a	n/a	1
553.7120000000	n/a	553712	NovelFixedSOA	1633	n/a	n/a	1
555.3450000000	n/a	555345	FrequentFixedSOA	1633	n/a	n/a	1
556.9780000000	n/a	556978	GoFixedSOA	356	n/a	n/a	1
558.6120000000	n/a	558612	FrequentFixedSOA	1633	n/a	n/a	1
560.2450000000	n/a	560245	FrequentFixedSOA	1633	n/a	n/a	1
561.8780000000	n/a	561878	FrequentFixedSOA	1633	n/a	n/a	1
563.5120000000	n/a	563512	FrequentFixedSOA	1633	n/a	n/a	1
565.1450000000	n/a	565145	FrequentFixedSOA	1633	n/a	n/a	1
566.7780000000	n/a	566778	FrequentFixedSOA	1633	n/a	n/a	1
568.4120000000	n/a	568412	FrequentFixedSOA	1633	n/a	n/a	1
570.0450000000	n/a	570045	FrequentFixedSOA	1633	n/a	n/a	1
571.6780000000	n/a	571678	NovelFixedSOA	1633	n/a	n/a	1
573.3120000000	n/a	573312	FrequentFixedSOA	1633	n/a	n/a	1
574.9450000000	n/a	574945	FrequentFixedSOA	1633	n/a	n/a	1
576.5780000000	n/a	576578	GoVariableSOA	360	n/a	n/a	1
578.1280000000	n/a	578128	FrequentVariableSOA	1583	n/a	n/a	1
579.7110000000	n/a	579711	FrequentVariableSOA	1550	n/a	n/a	1
581.2610000000	n/a	581261	FrequentVariableSOA	1783	n/a	n/a	1
583.0450000000	n/a	583045	FrequentVariableSOA	1750	n/a	n/a	1
584.7950000000	n/a	584795	FrequentVariableSOA	1566	n/a	n/a	1
586.3610000000	n/a	586361	FrequentVariableSOA	1700	n/a	n/a	1
588.0610000000	n/a	588061	NovelVariableSOA	1766	n/a	n/a	1
589.8280000000	n/a	589828	FrequentVariableSOA	1650	n/a	n/a	1
591.4780000000	n/a	591478	FrequentVariableSOA	1716	n/a	n/a	1
593.1950000000	n/a	593195	FrequentVariableSOA	1616	n/a	n/a	1
594.8110000000	n/a	594811	NovelVariableSOA	1783	n/a	n/a	1
596.5950000000	n/a	596595	FrequentVariableSOA	1683	n/a	n/a	1
598.2780000000	n/a	598278	GoVariableSOA	360	n/a	n/a	1
599.8780000000	n/a	599878	FrequentVariableSOA	1650	n/a	n/a	1
601.5280000000	n/a	601528	FrequentVariableSOA	1600	n/a	n/a	1
603.1280000000	n/a	603128	GoVariableSOA	429	n/a	n/a	1
604.7950000000	n/a	604795	FrequentVariableSOA	1616	n/a	n/a	1
606.4110000000	n/a	606411	NovelVariableSOA	1633	n/a	n/a	1
608.0450000000	n/a	608045	FrequentVariableSOA	1533	n/a	n/a	1
609.5780000000	n/a	609578	FrequentVariableSOA	1550	n/a	n/a	1
611.1280000000	n/a	611128	FrequentVariableSOA	1783	n/a	n/a	1
612.9110000000	n/a	612911	FrequentVariableSOA	1650	n/a	n/a	1
614.5610000000	n/a	614561	FrequentVariableSOA	1550	n/a	n/a	1
616.1110000000	n/a	616111	GoVariableSOA	443	n/a	n/a	1
617.8280000000	n/a	617828	FrequentVariableSOA	1650	n/a	n/a	1
619.4780000000	n/a	619478	FrequentVariableSOA	1700	n/a	n/a	1
621.1780000000	n/a	621178	NovelVariableSOA	1516	n/a	n/a	1
622.6950000000	n/a	622695	FrequentVariableSOA	1533	n/a	n/a	1
624.2280000000	n/a	624228	FrequentVariableSOA	1650	n/a	n/a	1
625.8780000000	n/a	625878	FrequentVariableSOA	1550	n/a	n/a	1
627.4280000000	n/a	627428	FrequentVariableSOA	1666	n/a	n/a	1
629.0950000000	n/a	629095	FrequentVariableSOA	1666	n/a	n/a	1
630.7610000000	n/a	630761	NovelVariableSOA	1533	n/a	n/a	1
632.2950000000	n/a	632295	FrequentVariableSOA	1583	n/a	n/a	1
633.8780000000	n/a	633878	FrequentVariableSOA	1600	n/a	n/a	1
635.4780000000	n/a	635478	FrequentVariableSOA	1583	n/a	n/a	1
637.0610000000	n/a	637061	FrequentVariableSOA	1533	n/a	n/a	1
638.5950000000	n/a	638595	GoVariableSOA	496	n/a	n/a	1
640.3610000000	n/a	640361	FrequentVariableSOA	1550	n/a	n/a	1
641.9110000000	n/a	641911	FrequentVariableSOA	1766	n/a	n/a	1
643.6780000000	n/a	643678	NovelVariableSOA	1600	n/a	n/a	1
645.2780000000	n/a	645278	FrequentVariableSOA	1600	n/a	n/a	1
646.8780000000	n/a	646878	FrequentVariableSOA	1683	n/a	n/a	1
648.5610000000	n/a	648561	NovelVariableSOA	1500	n/a	n/a	1
650.0610000000	n/a	650061	FrequentVariableSOA	1583	n/a	n/a	1
651.6450000000	n/a	651645	FrequentVariableSOA	1616	n/a	n/a	1
653.2610000000	n/a	653261	FrequentVariableSOA	1683	n/a	n/a	1
654.9450000000	n/a	654945	FrequentVariableSOA	1566	n/a	n/a	1
656.5110000000	n/a	656511	FrequentVariableSOA	1766	n/a	n/a	1
658.2780000000	n/a	658278	GoVariableSOA	374	n/a	n/a	1
659.8280000000	n/a	659828	FrequentVariableSOA	1600	n/a	n/a	1
661.4280000000	n/a	661428	FrequentVariableSOA	1766	n/a	n/a	1
663.1950000000	n/a	663195	FrequentVariableSOA	1500	n/a	n/a	1
664.6950000000	n/a	664695	FrequentVariableSOA	1616	n/a	n/a	1
666.3110000000	n/a	666311	FrequentVariableSOA	1733	n/a	n/a	1
668.0450000000	n/a	668045	NovelVariableSOA	1733	n/a	n/a	1
669.7780000000	n/a	669778	FrequentVariableSOA	1716	n/a	n/a	1
671.4950000000	n/a	671495	GoVariableSOA	343	n/a	n/a	1
673.1950000000	n/a	673195	FrequentVariableSOA	1766	n/a	n/a	1
674.9610000000	n/a	674961	FrequentVariableSOA	1583	n/a	n/a	1
676.5450000000	n/a	676545	FrequentVariableSOA	1800	n/a	n/a	1
678.3450000000	n/a	678345	FrequentVariableSOA	1583	n/a	n/a	1
679.9280000000	n/a	679928	FrequentVariableSOA	1683	n/a	n/a	1
681.6110000000	n/a	681611	FrequentVariableSOA	1650	n/a	n/a	1
683.2610000000	n/a	683261	FrequentVariableSOA	1700	n/a	n/a	1
684.9610000000	n/a	684961	FrequentVariableSOA	1783	n/a	n/a	1
686.7450000000	n/a	686745	NovelVariableSOA	1683	n/a	n/a	1
688.4280000000	n/a	688428	FrequentVariableSOA	1583	n/a	n/a	1
690.0110000000	n/a	690011	FrequentVariableSOA	1800	n/a	n/a	1
691.8110000000	n/a	691811	GoFixedSOA	434	n/a	n/a	1
693.4450000000	n/a	693445	FrequentFixedSOA	1633	n/a	n/a	1
695.0780000000	n/a	695078	FrequentFixedSOA	1633	n/a	n/a	1
696.7110000000	n/a	696711	FrequentFixedSOA	1633	n/a	n/a	1
698.3450000000	n/a	698345	GoFixedSOA	402	n/a	n/a	1
699.9780000000	n/a	699978	FrequentFixedSOA	1633	n/a	n/a	1
701.6110000000	n/a	701611	FrequentFixedSOA	1633	n/a	n/a	1
703.2450000000	n/a	703245	FrequentFixedSOA	1633	n/a	n/a	1
704.8780000000	n/a	704878	FrequentFixedSOA	1633	n/a	n/a	1
706.5110000000	n/a	706511	GoFixedSOA	327	n/a	n/a	1
708.1450000000	n/a	708145	FrequentFixedSOA	1633	n/a	n/a	1
709.7780000000	n/a	709778	FrequentFixedSOA	1633	n/a	n/a	1
711.4110000000	n/a	711411	NovelFixedSOA	1633	n/a	n/a	1
713.0450000000	n/a	713045	FrequentFixedSOA	1633	n/a	n/a	1
714.6780000000	n/a	714678	FrequentFixedSOA	1633	n/a	n/a	1
716.3110000000	n/a	716311	GoFixedSOA	456	n/a	n/a	1
717.9450000000	n/a	717945	FrequentFixedSOA	1633	n/a	n/a	1
719.5780000000	n/a	719578	FrequentFixedSOA	1633	n/a	n/a	1
721.2110000000	n/a	721211	FrequentFixedSOA	1633	n/a	n/a	1
722.8450000000	n/a	722845	NovelFixedSOA	1633	n/a	n/a	1
724.4780000000	n/a	724478	FrequentFixedSOA	1633	n/a	n/a	1
726.1110000000	n/a	726111	NovelFixedSOA	1633	n/a	n/a	1
727.7450000000	n/a	727745	FrequentFixedSOA	1633	n/a	n/a	1
729.3780000000	n/a	729378	FrequentFixedSOA	1633	n/a	n/a	1
731.0110000000	n/a	731011	FrequentFixedSOA	1633	n/a	n/a	1
732.6450000000	n/a	732645	GoFixedSOA	336	n/a	n/a	1
734.2780000000	n/a	734278	FrequentFixedSOA	1633	n/a	n/a	1
735.9110000000	n/a	735911	FrequentFixedSOA	1633	n/a	n/a	1
737.5450000000	n/a	737545	FrequentFixedSOA	1633	n/a	n/a	1
739.1780000000	n/a	739178	GoFixedSOA	471	n/a	n/a	1
740.8110000000	n/a	740811	FrequentFixedSOA	1633	n/a	n/a	1
742.4450000000	n/a	742445	FrequentFixedSOA	1633	n/a	n/a	1
744.0780000000	n/a	744078	NovelFixedSOA	1633	n/a	n/a	1
745.7110000000	n/a	745711	FrequentFixedSOA	1633	n/a	n/a	1
747.3450000000	n/a	747345	GoFixedSOA	409	n/a	n/a	1
748.9780000000	n/a	748978	FrequentFixedSOA	1633	n/a	n/a	1
750.6110000000	n/a	750611	FrequentFixedSOA	1633	n/a	n/a	1
752.2450000000	n/a	752245	FrequentFixedSOA	1633	n/a	n/a	1
753.8780000000	n/a	753878	FrequentFixedSOA	1633	n/a	n/a	1
755.5110000000	n/a	755511	FrequentFixedSOA	1633	n/a	n/a	1
757.1450000000	n/a	757145	FrequentFixedSOA	1633	n/a	n/a	1
758.7780000000	n/a	758778	NovelFixedSOA	1633	n/a	n/a	1
760.4110000000	n/a	760411	FrequentFixedSOA	1633	n/a	n/a	1
762.0450000000	n/a	762045	FrequentFixedSOA	1633	n/a	n/a	1
763.6780000000	n/a	763678	FrequentFixedSOA	1633	n/a	n/a	1
765.3110000000	n/a	765311	GoFixedSOA	372	n/a	n/a	1
766.9450000000	n/a	766945	FrequentFixedSOA	1633	n/a	n/a	1
768.5780000000	n/a	768578	FrequentFixedSOA	1633	n/a	n/a	1
770.2110000000	n/a	770211	FrequentFixedSOA	1633	n/a	n/a	1
771.8450000000	n/a	771845	FrequentFixedSOA	1633	n/a	n/a	1
773.4780000000	n/a	773478	NovelFixedSOA	1633	n/a	n/a	1
775.1110000000	n/a	775111	FrequentFixedSOA	1633	n/a	n/a	1
776.7440000000	n/a	776744	FrequentFixedSOA	1633	n/a	n/a	1
778.3780000000	n/a	778378	NovelFixedSOA	1633	n/a	n/a	1
780.0110000000	n/a	780011	FrequentFixedSOA	1633	n/a	n/a	1
781.6440000000	n/a	781644	NovelFixedSOA	1633	n/a	n/a	1
783.2780000000	n/a	783278	FrequentFixedSOA	1633	n/a	n/a	1
784.9110000000	n/a	784911	FrequentFixedSOA	1633	n/a	n/a	1
786.5440000000	n/a	786544	FrequentFixedSOA	1633	n/a	n/a	1
788.1780000000	n/a	788178	FrequentFixedSOA	1633	n/a	n/a	1
789.8110000000	n/a	789811	FrequentFixedSOA	1633	n/a	n/a	1
791.4440000000	n/a	791444	FrequentFixedSOA	1633	n/a	n/a	1
793.0780000000	n/a	793078	FrequentFixedSOA	1633	n/a	n/a	1
794.7110000000	n/a	794711	GoFixedSOA	426	n/a	n/a	1
796.3440000000	n/a	796344	FrequentFixedSOA	1633	n/a	n/a	1
797.9780000000	n/a	797978	GoFixedSOA	540	n/a	n/a	1
799.6110000000	n/a	799611	FrequentFixedSOA	1633	n/a	n/a	1
801.2440000000	n/a	801244	FrequentFixedSOA	1633	n/a	n/a	1
802.8780000000	n/a	802878	NovelFixedSOA	1633	n/a	n/a	1
804.5110000000	n/a	804511	FrequentFixedSOA	1633	n/a	n/a	1
806.1440000000	n/a	806144	GoVariableSOA	418	n/a	n/a	1
807.9440000000	n/a	807944	FrequentVariableSOA	1683	n/a	n/a	1
809.6280000000	n/a	809628	FrequentVariableSOA	1516	n/a	n/a	1
811.1440000000	n/a	811144	FrequentVariableSOA	1633	n/a	n/a	1
812.7780000000	n/a	812778	GoVariableSOA	1766	n/a	n/a	0
814.5440000000	n/a	814544	FrequentVariableSOA	1583	n/a	n/a	1
816.1280000000	n/a	816128	FrequentVariableSOA	1650	n/a	n/a	1
817.7780000000	n/a	817778	FrequentVariableSOA	1800	n/a	n/a	1
819.5780000000	n/a	819578	FrequentVariableSOA	1783	n/a	n/a	1
821.3610000000	n/a	821361	GoVariableSOA	385	n/a	n/a	1
823.0940000000	n/a	823094	FrequentVariableSOA	1583	n/a	n/a	1
824.6780000000	n/a	824678	FrequentVariableSOA	1666	n/a	n/a	1
826.3440000000	n/a	826344	NovelVariableSOA	1783	n/a	n/a	1
828.1280000000	n/a	828128	FrequentVariableSOA	1550	n/a	n/a	1
829.6780000000	n/a	829678	FrequentVariableSOA	1633	n/a	n/a	1
831.3110000000	n/a	831311	GoVariableSOA	323	n/a	n/a	1
832.8780000000	n/a	832878	FrequentVariableSOA	1566	n/a	n/a	1
834.4440000000	n/a	834444	FrequentVariableSOA	1666	n/a	n/a	1
836.1110000000	n/a	836111	FrequentVariableSOA	1616	n/a	n/a	1
837.7280000000	n/a	837728	NovelVariableSOA	1616	n/a	n/a	1
839.3440000000	n/a	839344	FrequentVariableSOA	1566	n/a	n/a	1
840.9110000000	n/a	840911	NovelVariableSOA	1800	n/a	n/a	1
842.7110000000	n/a	842711	FrequentVariableSOA	1550	n/a	n/a	1
844.2610000000	n/a	844261	FrequentVariableSOA	1583	n/a	n/a	1
845.8440000000	n/a	845844	FrequentVariableSOA	1700	n/a	n/a	1
847.5440000000	n/a	847544	GoVariableSOA	396	n/a	n/a	1
849.3110000000	n/a	849311	FrequentVariableSOA	1666	n/a	n/a	1
850.9780000000	n/a	850978	FrequentVariableSOA	1633	n/a	n/a	1
852.6110000000	n/a	852611	FrequentVariableSOA	1566	n/a	n/a	1
854.1780000000	n/a	854178	GoVariableSOA	409	n/a	n/a	1
855.6780000000	n/a	855678	FrequentVariableSOA	1583	n/a	n/a	1
857.2610000000	n/a	857261	FrequentVariableSOA	1616	n/a	n/a	1
858.8780000000	n/a	858878	NovelVariableSOA	1600	n/a	n/a	1
860.4780000000	n/a	860478	FrequentVariableSOA	1633	n/a	n/a	1
862.1110000000	n/a	862111	GoVariableSOA	392	n/a	n/a	1
863.7940000000	n/a	863794	FrequentVariableSOA	1733	n/a	n/a	1
865.5280000000	n/a	865528	FrequentVariableSOA	1550	n/a	n/a	1
867.0780000000	n/a	867078	FrequentVariableSOA	1650	n/a	n/a	1
868.7280000000	n/a	868728	FrequentVariableSOA	1683	n/a	n/a	1
870.4110000000	n/a	870411	FrequentVariableSOA	1500	n/a	n/a	1
871.9110000000	n/a	871911	FrequentVariableSOA	1766	n/a	n/a	1
873.6780000000	n/a	873678	NovelVariableSOA	1516	n/a	n/a	1
875.1940000000	n/a	875194	FrequentVariableSOA	1650	n/a	n/a	1
876.8440000000	n/a	876844	FrequentVariableSOA	1666	n/a	n/a	1
878.5110000000	n/a	878511	FrequentVariableSOA	1633	n/a	n/a	1
880.1440000000	n/a	880144	GoVariableSOA	482	n/a	n/a	1
881.8940000000	n/a	881894	FrequentVariableSOA	1683	n/a	n/a	1
883.5780000000	n/a	883578	FrequentVariableSOA	1566	n/a	n/a	1
885.1440000000	n/a	885144	FrequentVariableSOA	1600	n/a	n/a	1
886.7440000000	n/a	886744	FrequentVariableSOA	1750	n/a	n/a	1
888.4940000000	n/a	888494	NovelVariableSOA	1716	n/a	n/a	1
890.2110000000	n/a	890211	FrequentVariableSOA	1600	n/a	n/a	1
891.8110000000	n/a	891811	FrequentVariableSOA	1700	n/a	n/a	1
893.5110000000	n/a	893511	NovelVariableSOA	1600	n/a	n/a	1
895.1110000000	n/a	895111	FrequentVariableSOA	1583	n/a	n/a	1
896.6940000000	n/a	896694	NovelVariableSOA	1600	n/a	n/a	1
898.2940000000	n/a	898294	FrequentVariableSOA	1650	n/a	n/a	1
899.9440000000	n/a	899944	FrequentVariableSOA	1566	n/a	n/a	1
901.5110000000	n/a	901511	FrequentVariableSOA	1683	n/a	n/a	1
903.1940000000	n/a	903194	FrequentVariableSOA	1583	n/a	n/a	1
904.7780000000	n/a	904778	FrequentVariableSOA	1633	n/a	n/a	1
906.4110000000	n/a	906411	FrequentVariableSOA	1683	n/a	n/a	1
908.0940000000	n/a	908094	FrequentVariableSOA	1650	n/a	n/a	1
909.7440000000	n/a	909744	GoVariableSOA	353	n/a	n/a	1
911.2610000000	n/a	911261	FrequentVariableSOA	1550	n/a	n/a	1
912.8110000000	n/a	912811	GoVariableSOA	449	n/a	n/a	1
914.3940000000	n/a	914394	FrequentVariableSOA	1550	n/a	n/a	1
915.9440000000	n/a	915944	FrequentVariableSOA	1650	n/a	n/a	1
917.5940000000	n/a	917594	NovelVariableSOA	1783	n/a	n/a	1
919.3780000000	n/a	919378	FrequentVariableSOA	1666	n/a	n/a	1
