onset	duration	sample	trial_type	response_time	stim_file	value	correct
4.6840000000	n/a	4684	FrequentFixedSOA	1633	n/a	n/a	1
6.3170000000	n/a	6317	FrequentFixedSOA	1633	n/a	n/a	1
7.9500000000	n/a	7950	FrequentFixedSOA	1633	n/a	n/a	1
9.5840000000	n/a	9584	FrequentFixedSOA	1633	n/a	n/a	1
11.2170000000	n/a	11217	FrequentFixedSOA	1633	n/a	n/a	1
12.8500000000	n/a	12850	FrequentFixedSOA	1633	n/a	n/a	1
14.4840000000	n/a	14484	FrequentFixedSOA	1633	n/a	n/a	1
16.1170000000	n/a	16117	FrequentFixedSOA	1633	n/a	n/a	1
17.7500000000	n/a	17750	FrequentFixedSOA	1633	n/a	n/a	1
19.3840000000	n/a	19384	FrequentFixedSOA	1633	n/a	n/a	1
21.0170000000	n/a	21017	NovelFixedSOA	546	n/a	n/a	0
22.6500000000	n/a	22650	FrequentFixedSOA	1633	n/a	n/a	1
24.2840000000	n/a	24284	GoFixedSOA	452	n/a	n/a	1
25.9170000000	n/a	25917	FrequentFixedSOA	1633	n/a	n/a	1
27.5500000000	n/a	27550	FrequentFixedSOA	1633	n/a	n/a	1
29.1840000000	n/a	29184	FrequentFixedSOA	1633	n/a	n/a	1
30.8170000000	n/a	30817	GoFixedSOA	495	n/a	n/a	1
32.4500000000	n/a	32450	FrequentFixedSOA	1633	n/a	n/a	1
34.0840000000	n/a	34084	FrequentFixedSOA	1633	n/a	n/a	1
35.7170000000	n/a	35717	FrequentFixedSOA	1633	n/a	n/a	1
37.3500000000	n/a	37350	NovelFixedSOA	1633	n/a	n/a	1
38.9840000000	n/a	38984	FrequentFixedSOA	1633	n/a	n/a	1
40.6170000000	n/a	40617	FrequentFixedSOA	1633	n/a	n/a	1
42.2500000000	n/a	42250	FrequentFixedSOA	1633	n/a	n/a	1
43.8840000000	n/a	43884	GoFixedSOA	384	n/a	n/a	1
45.5170000000	n/a	45517	FrequentFixedSOA	1633	n/a	n/a	1
47.1500000000	n/a	47150	NovelFixedSOA	1633	n/a	n/a	1
48.7840000000	n/a	48784	FrequentFixedSOA	1633	n/a	n/a	1
50.4170000000	n/a	50417	FrequentFixedSOA	1633	n/a	n/a	1
52.0500000000	n/a	52050	FrequentFixedSOA	1633	n/a	n/a	1
53.6840000000	n/a	53684	GoFixedSOA	369	n/a	n/a	1
55.3170000000	n/a	55317	FrequentFixedSOA	1633	n/a	n/a	1
56.9500000000	n/a	56950	GoFixedSOA	461	n/a	n/a	1
58.5840000000	n/a	58584	FrequentFixedSOA	1633	n/a	n/a	1
60.2170000000	n/a	60217	FrequentFixedSOA	1633	n/a	n/a	1
61.8500000000	n/a	61850	GoFixedSOA	421	n/a	n/a	1
63.4840000000	n/a	63484	FrequentFixedSOA	1633	n/a	n/a	1
65.1170000000	n/a	65117	FrequentFixedSOA	1633	n/a	n/a	1
66.7500000000	n/a	66750	FrequentFixedSOA	1633	n/a	n/a	1
68.3840000000	n/a	68384	FrequentFixedSOA	1633	n/a	n/a	1
70.0170000000	n/a	70017	NovelFixedSOA	1633	n/a	n/a	1
71.6500000000	n/a	71650	FrequentFixedSOA	1633	n/a	n/a	1
73.2840000000	n/a	73284	NovelFixedSOA	1633	n/a	n/a	1
74.9170000000	n/a	74917	FrequentFixedSOA	1633	n/a	n/a	1
76.5500000000	n/a	76550	FrequentFixedSOA	1633	n/a	n/a	1
78.1840000000	n/a	78184	GoFixedSOA	382	n/a	n/a	1
79.8170000000	n/a	79817	FrequentFixedSOA	1633	n/a	n/a	1
81.4500000000	n/a	81450	FrequentFixedSOA	1633	n/a	n/a	1
83.0840000000	n/a	83084	FrequentFixedSOA	1633	n/a	n/a	1
84.7170000000	n/a	84717	FrequentFixedSOA	1633	n/a	n/a	1
86.3500000000	n/a	86350	NovelFixedSOA	1633	n/a	n/a	1
87.9840000000	n/a	87984	FrequentFixedSOA	1633	n/a	n/a	1
89.6170000000	n/a	89617	FrequentFixedSOA	1633	n/a	n/a	1
91.2500000000	n/a	91250	FrequentFixedSOA	1633	n/a	n/a	1
92.8840000000	n/a	92884	FrequentFixedSOA	1633	n/a	n/a	1
94.5170000000	n/a	94517	GoFixedSOA	440	n/a	n/a	1
96.1500000000	n/a	96150	FrequentFixedSOA	1633	n/a	n/a	1
97.7840000000	n/a	97784	FrequentFixedSOA	1633	n/a	n/a	1
99.4170000000	n/a	99417	NovelFixedSOA	1633	n/a	n/a	1
101.0500000000	n/a	101050	FrequentFixedSOA	1633	n/a	n/a	1
102.6840000000	n/a	102684	FrequentFixedSOA	1633	n/a	n/a	1
104.3170000000	n/a	104317	GoFixedSOA	485	n/a	n/a	1
105.9500000000	n/a	105950	FrequentFixedSOA	1633	n/a	n/a	1
107.5840000000	n/a	107584	FrequentFixedSOA	1633	n/a	n/a	1
109.2170000000	n/a	109217	FrequentFixedSOA	1633	n/a	n/a	1
110.8500000000	n/a	110850	FrequentFixedSOA	1633	n/a	n/a	1
112.4840000000	n/a	112484	NovelFixedSOA	1633	n/a	n/a	1
114.1170000000	n/a	114117	FrequentFixedSOA	1633	n/a	n/a	1
115.7500000000	n/a	115750	FrequentFixedSOA	1633	n/a	n/a	1
117.3840000000	n/a	117384	GoFixedSOA	430	n/a	n/a	1
119.0170000000	n/a	119017	FrequentVariableSOA	1516	n/a	n/a	1
120.5340000000	n/a	120534	FrequentVariableSOA	1633	n/a	n/a	1
122.1670000000	n/a	122167	FrequentVariableSOA	1750	n/a	n/a	1
123.9170000000	n/a	123917	FrequentVariableSOA	1716	n/a	n/a	1
125.6340000000	n/a	125634	FrequentVariableSOA	1566	n/a	n/a	1
127.2000000000	n/a	127200	FrequentVariableSOA	1550	n/a	n/a	1
128.7500000000	n/a	128750	FrequentVariableSOA	1800	n/a	n/a	1
130.5500000000	n/a	130550	FrequentVariableSOA	1683	n/a	n/a	1
132.2340000000	n/a	132234	FrequentVariableSOA	1716	n/a	n/a	1
133.9500000000	n/a	133950	FrequentVariableSOA	1716	n/a	n/a	1
135.6670000000	n/a	135667	NovelVariableSOA	1716	n/a	n/a	1
137.3840000000	n/a	137384	FrequentVariableSOA	1733	n/a	n/a	1
139.1170000000	n/a	139117	GoVariableSOA	422	n/a	n/a	1
140.6500000000	n/a	140650	FrequentVariableSOA	1650	n/a	n/a	1
142.3000000000	n/a	142300	FrequentVariableSOA	1616	n/a	n/a	1
143.9170000000	n/a	143917	FrequentVariableSOA	1533	n/a	n/a	1
145.4500000000	n/a	145450	GoVariableSOA	512	n/a	n/a	1
147.0840000000	n/a	147084	FrequentVariableSOA	1733	n/a	n/a	1
148.8170000000	n/a	148817	FrequentVariableSOA	1700	n/a	n/a	1
150.5170000000	n/a	150517	FrequentVariableSOA	1700	n/a	n/a	1
152.2170000000	n/a	152217	NovelVariableSOA	1683	n/a	n/a	1
153.9000000000	n/a	153900	FrequentVariableSOA	1700	n/a	n/a	1
155.6000000000	n/a	155600	FrequentVariableSOA	1766	n/a	n/a	1
157.3670000000	n/a	157367	FrequentVariableSOA	1750	n/a	n/a	1
159.1170000000	n/a	159117	GoVariableSOA	426	n/a	n/a	1
160.8340000000	n/a	160834	FrequentVariableSOA	1683	n/a	n/a	1
162.5170000000	n/a	162517	NovelVariableSOA	1600	n/a	n/a	1
164.1170000000	n/a	164117	FrequentVariableSOA	1750	n/a	n/a	1
165.8670000000	n/a	165867	FrequentVariableSOA	1666	n/a	n/a	1
167.5330000000	n/a	167533	FrequentVariableSOA	1666	n/a	n/a	1
169.2000000000	n/a	169200	GoVariableSOA	417	n/a	n/a	1
171.0000000000	n/a	171000	FrequentVariableSOA	1583	n/a	n/a	1
172.5830000000	n/a	172583	GoVariableSOA	470	n/a	n/a	1
174.3670000000	n/a	174367	FrequentVariableSOA	1533	n/a	n/a	1
175.9000000000	n/a	175900	FrequentVariableSOA	1583	n/a	n/a	1
177.4830000000	n/a	177483	GoVariableSOA	386	n/a	n/a	1
179.0170000000	n/a	179017	FrequentVariableSOA	1516	n/a	n/a	1
180.5330000000	n/a	180533	FrequentVariableSOA	1600	n/a	n/a	1
182.1330000000	n/a	182133	FrequentVariableSOA	1733	n/a	n/a	1
183.8670000000	n/a	183867	FrequentVariableSOA	1733	n/a	n/a	1
185.6000000000	n/a	185600	NovelVariableSOA	1650	n/a	n/a	1
187.2500000000	n/a	187250	FrequentVariableSOA	1750	n/a	n/a	1
189.0000000000	n/a	189000	NovelVariableSOA	1683	n/a	n/a	1
190.6830000000	n/a	190683	FrequentVariableSOA	1783	n/a	n/a	1
192.4670000000	n/a	192467	FrequentVariableSOA	1583	n/a	n/a	1
194.0500000000	n/a	194050	GoVariableSOA	569	n/a	n/a	1
195.6500000000	n/a	195650	FrequentVariableSOA	1750	n/a	n/a	1
197.4000000000	n/a	197400	FrequentVariableSOA	1700	n/a	n/a	1
199.1000000000	n/a	199100	FrequentVariableSOA	1566	n/a	n/a	1
200.6670000000	n/a	200667	FrequentVariableSOA	1600	n/a	n/a	1
202.2670000000	n/a	202267	NovelVariableSOA	1766	n/a	n/a	1
204.0330000000	n/a	204033	FrequentVariableSOA	1550	n/a	n/a	1
205.5830000000	n/a	205583	FrequentVariableSOA	1783	n/a	n/a	1
207.3670000000	n/a	207367	FrequentVariableSOA	1583	n/a	n/a	1
208.9500000000	n/a	208950	FrequentVariableSOA	1733	n/a	n/a	1
210.6830000000	n/a	210683	GoVariableSOA	463	n/a	n/a	1
212.2500000000	n/a	212250	FrequentVariableSOA	1500	n/a	n/a	1
213.7500000000	n/a	213750	FrequentVariableSOA	1566	n/a	n/a	1
215.3170000000	n/a	215317	NovelVariableSOA	1633	n/a	n/a	1
216.9500000000	n/a	216950	FrequentVariableSOA	1550	n/a	n/a	1
218.5000000000	n/a	218500	FrequentVariableSOA	1550	n/a	n/a	1
220.0500000000	n/a	220050	GoVariableSOA	559	n/a	n/a	1
221.7170000000	n/a	221717	FrequentVariableSOA	1550	n/a	n/a	1
223.2670000000	n/a	223267	FrequentVariableSOA	1533	n/a	n/a	1
224.8000000000	n/a	224800	FrequentVariableSOA	1550	n/a	n/a	1
226.3500000000	n/a	226350	FrequentVariableSOA	1733	n/a	n/a	1
228.0830000000	n/a	228083	NovelVariableSOA	1516	n/a	n/a	1
229.6000000000	n/a	229600	FrequentVariableSOA	1600	n/a	n/a	1
231.2000000000	n/a	231200	FrequentVariableSOA	1683	n/a	n/a	1
232.8830000000	n/a	232883	GoVariableSOA	434	n/a	n/a	1
234.5670000000	n/a	234567	FrequentFixedSOA	1633	n/a	n/a	1
236.2000000000	n/a	236200	FrequentFixedSOA	1633	n/a	n/a	1
237.8330000000	n/a	237833	FrequentFixedSOA	1633	n/a	n/a	1
239.4670000000	n/a	239467	GoFixedSOA	361	n/a	n/a	1
241.1000000000	n/a	241100	FrequentFixedSOA	1633	n/a	n/a	1
242.7330000000	n/a	242733	FrequentFixedSOA	1633	n/a	n/a	1
244.3670000000	n/a	244367	FrequentFixedSOA	1633	n/a	n/a	1
246.0000000000	n/a	246000	GoFixedSOA	449	n/a	n/a	1
247.6330000000	n/a	247633	FrequentFixedSOA	1633	n/a	n/a	1
249.2670000000	n/a	249267	FrequentFixedSOA	1633	n/a	n/a	1
250.9000000000	n/a	250900	FrequentFixedSOA	1633	n/a	n/a	1
252.5330000000	n/a	252533	NovelFixedSOA	1633	n/a	n/a	1
254.1670000000	n/a	254167	FrequentFixedSOA	1633	n/a	n/a	1
255.8000000000	n/a	255800	NovelFixedSOA	1633	n/a	n/a	1
257.4330000000	n/a	257433	FrequentFixedSOA	1633	n/a	n/a	1
259.0670000000	n/a	259067	FrequentFixedSOA	1633	n/a	n/a	1
260.7000000000	n/a	260700	NovelFixedSOA	1633	n/a	n/a	1
262.3330000000	n/a	262333	FrequentFixedSOA	1633	n/a	n/a	1
263.9670000000	n/a	263967	FrequentFixedSOA	1633	n/a	n/a	1
265.6000000000	n/a	265600	FrequentFixedSOA	1633	n/a	n/a	1
267.2330000000	n/a	267233	FrequentFixedSOA	1633	n/a	n/a	1
268.8670000000	n/a	268867	FrequentFixedSOA	1633	n/a	n/a	1
270.5000000000	n/a	270500	NovelFixedSOA	1633	n/a	n/a	1
272.1330000000	n/a	272133	FrequentFixedSOA	1633	n/a	n/a	1
273.7670000000	n/a	273767	FrequentFixedSOA	1633	n/a	n/a	1
275.4000000000	n/a	275400	FrequentFixedSOA	1633	n/a	n/a	1
277.0330000000	n/a	277033	FrequentFixedSOA	1633	n/a	n/a	1
278.6670000000	n/a	278667	FrequentFixedSOA	1633	n/a	n/a	1
280.3000000000	n/a	280300	GoFixedSOA	332	n/a	n/a	1
281.9330000000	n/a	281933	FrequentFixedSOA	1633	n/a	n/a	1
283.5670000000	n/a	283567	FrequentFixedSOA	1633	n/a	n/a	1
285.2000000000	n/a	285200	GoFixedSOA	418	n/a	n/a	1
286.8330000000	n/a	286833	FrequentFixedSOA	1633	n/a	n/a	1
288.4670000000	n/a	288467	NovelFixedSOA	1633	n/a	n/a	1
290.1000000000	n/a	290100	FrequentFixedSOA	1633	n/a	n/a	1
291.7330000000	n/a	291733	GoFixedSOA	388	n/a	n/a	1
293.3670000000	n/a	293367	FrequentFixedSOA	1633	n/a	n/a	1
295.0000000000	n/a	295000	GoFixedSOA	376	n/a	n/a	1
296.6330000000	n/a	296633	FrequentFixedSOA	1633	n/a	n/a	1
298.2670000000	n/a	298267	FrequentFixedSOA	1633	n/a	n/a	1
299.9000000000	n/a	299900	FrequentFixedSOA	1633	n/a	n/a	1
301.5330000000	n/a	301533	FrequentFixedSOA	1633	n/a	n/a	1
303.1670000000	n/a	303167	GoFixedSOA	563	n/a	n/a	1
304.8000000000	n/a	304800	FrequentFixedSOA	1633	n/a	n/a	1
306.4330000000	n/a	306433	FrequentFixedSOA	1633	n/a	n/a	1
308.0670000000	n/a	308067	FrequentFixedSOA	1633	n/a	n/a	1
309.7000000000	n/a	309700	NovelFixedSOA	1633	n/a	n/a	1
311.3330000000	n/a	311333	FrequentFixedSOA	1633	n/a	n/a	1
312.9670000000	n/a	312967	FrequentFixedSOA	1633	n/a	n/a	1
314.6000000000	n/a	314600	FrequentFixedSOA	1633	n/a	n/a	1
316.2330000000	n/a	316233	FrequentFixedSOA	1633	n/a	n/a	1
317.8670000000	n/a	317867	NovelFixedSOA	1633	n/a	n/a	1
319.5000000000	n/a	319500	FrequentFixedSOA	1633	n/a	n/a	1
321.1330000000	n/a	321133	FrequentFixedSOA	1633	n/a	n/a	1
322.7670000000	n/a	322767	FrequentFixedSOA	1633	n/a	n/a	1
324.4000000000	n/a	324400	FrequentFixedSOA	1633	n/a	n/a	1
326.0330000000	n/a	326033	NovelFixedSOA	1633	n/a	n/a	1
327.6670000000	n/a	327667	FrequentFixedSOA	1633	n/a	n/a	1
329.3000000000	n/a	329300	FrequentFixedSOA	1633	n/a	n/a	1
330.9330000000	n/a	330933	GoFixedSOA	432	n/a	n/a	1
332.5670000000	n/a	332567	FrequentFixedSOA	1633	n/a	n/a	1
334.2000000000	n/a	334200	FrequentFixedSOA	1633	n/a	n/a	1
335.8330000000	n/a	335833	FrequentFixedSOA	1633	n/a	n/a	1
337.4670000000	n/a	337467	FrequentFixedSOA	1633	n/a	n/a	1
339.1000000000	n/a	339100	NovelFixedSOA	1633	n/a	n/a	1
340.7330000000	n/a	340733	FrequentFixedSOA	1633	n/a	n/a	1
342.3670000000	n/a	342367	FrequentFixedSOA	1633	n/a	n/a	1
344.0000000000	n/a	344000	FrequentFixedSOA	1633	n/a	n/a	1
345.6330000000	n/a	345633	FrequentFixedSOA	1633	n/a	n/a	1
347.2670000000	n/a	347267	FrequentFixedSOA	1633	n/a	n/a	1
348.9000000000	n/a	348900	FrequentVariableSOA	1633	n/a	n/a	1
350.5330000000	n/a	350533	FrequentVariableSOA	1583	n/a	n/a	1
352.1170000000	n/a	352117	FrequentVariableSOA	1633	n/a	n/a	1
353.7500000000	n/a	353750	GoVariableSOA	1533	n/a	n/a	0
355.2830000000	n/a	355283	FrequentVariableSOA	1716	n/a	n/a	1
357.0000000000	n/a	357000	FrequentVariableSOA	1566	n/a	n/a	1
358.5670000000	n/a	358567	FrequentVariableSOA	1550	n/a	n/a	1
360.1170000000	n/a	360117	GoVariableSOA	412	n/a	n/a	1
361.8500000000	n/a	361850	FrequentVariableSOA	1516	n/a	n/a	1
363.3670000000	n/a	363367	FrequentVariableSOA	1500	n/a	n/a	1
364.8670000000	n/a	364867	FrequentVariableSOA	1733	n/a	n/a	1
366.6000000000	n/a	366600	NovelVariableSOA	1516	n/a	n/a	1
368.1170000000	n/a	368117	FrequentVariableSOA	1683	n/a	n/a	1
369.8000000000	n/a	369800	NovelVariableSOA	1550	n/a	n/a	1
371.3500000000	n/a	371350	FrequentVariableSOA	1633	n/a	n/a	1
372.9830000000	n/a	372983	FrequentVariableSOA	1666	n/a	n/a	1
374.6500000000	n/a	374650	NovelVariableSOA	1683	n/a	n/a	1
376.3330000000	n/a	376333	FrequentVariableSOA	1783	n/a	n/a	1
378.1170000000	n/a	378117	FrequentVariableSOA	1583	n/a	n/a	1
379.7000000000	n/a	379700	FrequentVariableSOA	1733	n/a	n/a	1
381.4330000000	n/a	381433	FrequentVariableSOA	1533	n/a	n/a	1
382.9670000000	n/a	382967	FrequentVariableSOA	1800	n/a	n/a	1
384.7660000000	n/a	384766	NovelVariableSOA	1533	n/a	n/a	1
386.3000000000	n/a	386300	FrequentVariableSOA	1666	n/a	n/a	1
387.9660000000	n/a	387966	FrequentVariableSOA	1633	n/a	n/a	1
389.6000000000	n/a	389600	FrequentVariableSOA	1533	n/a	n/a	1
391.1330000000	n/a	391133	FrequentVariableSOA	1650	n/a	n/a	1
392.7830000000	n/a	392783	FrequentVariableSOA	1683	n/a	n/a	1
394.4660000000	n/a	394466	GoVariableSOA	421	n/a	n/a	1
396.2330000000	n/a	396233	FrequentVariableSOA	1716	n/a	n/a	1
397.9500000000	n/a	397950	FrequentVariableSOA	1533	n/a	n/a	1
399.4830000000	n/a	399483	GoVariableSOA	1666	n/a	n/a	0
401.1500000000	n/a	401150	FrequentVariableSOA	1700	n/a	n/a	1
402.8500000000	n/a	402850	NovelVariableSOA	1700	n/a	n/a	1
404.5500000000	n/a	404550	FrequentVariableSOA	1650	n/a	n/a	1
406.2000000000	n/a	406200	GoVariableSOA	821	n/a	n/a	1
407.7660000000	n/a	407766	FrequentVariableSOA	1583	n/a	n/a	1
409.3500000000	n/a	409350	GoVariableSOA	592	n/a	n/a	1
411.0000000000	n/a	411000	FrequentVariableSOA	1583	n/a	n/a	1
412.5830000000	n/a	412583	FrequentVariableSOA	1650	n/a	n/a	1
414.2330000000	n/a	414233	FrequentVariableSOA	1600	n/a	n/a	1
415.8330000000	n/a	415833	FrequentVariableSOA	1766	n/a	n/a	1
417.6000000000	n/a	417600	GoVariableSOA	357	n/a	n/a	1
419.2000000000	n/a	419200	FrequentVariableSOA	1633	n/a	n/a	1
420.8330000000	n/a	420833	FrequentVariableSOA	1700	n/a	n/a	1
422.5330000000	n/a	422533	FrequentVariableSOA	1633	n/a	n/a	1
424.1660000000	n/a	424166	NovelVariableSOA	1600	n/a	n/a	1
425.7660000000	n/a	425766	FrequentVariableSOA	1650	n/a	n/a	1
427.4160000000	n/a	427416	FrequentVariableSOA	1666	n/a	n/a	1
429.0830000000	n/a	429083	FrequentVariableSOA	1533	n/a	n/a	1
430.6160000000	n/a	430616	FrequentVariableSOA	1650	n/a	n/a	1
432.2660000000	n/a	432266	NovelVariableSOA	1716	n/a	n/a	1
433.9830000000	n/a	433983	FrequentVariableSOA	1533	n/a	n/a	1
435.5160000000	n/a	435516	FrequentVariableSOA	1533	n/a	n/a	1
437.0500000000	n/a	437050	FrequentVariableSOA	1550	n/a	n/a	1
438.6000000000	n/a	438600	FrequentVariableSOA	1600	n/a	n/a	1
440.2000000000	n/a	440200	NovelVariableSOA	1766	n/a	n/a	1
441.9660000000	n/a	441966	FrequentVariableSOA	1566	n/a	n/a	1
443.5330000000	n/a	443533	FrequentVariableSOA	1733	n/a	n/a	1
445.2660000000	n/a	445266	GoVariableSOA	480	n/a	n/a	1
446.9000000000	n/a	446900	FrequentVariableSOA	1716	n/a	n/a	1
448.6160000000	n/a	448616	FrequentVariableSOA	1633	n/a	n/a	1
450.2500000000	n/a	450250	FrequentVariableSOA	1616	n/a	n/a	1
451.8660000000	n/a	451866	FrequentVariableSOA	1733	n/a	n/a	1
453.6000000000	n/a	453600	NovelVariableSOA	1783	n/a	n/a	1
455.3830000000	n/a	455383	FrequentVariableSOA	1700	n/a	n/a	1
457.0830000000	n/a	457083	FrequentVariableSOA	1683	n/a	n/a	1
458.7660000000	n/a	458766	FrequentVariableSOA	1616	n/a	n/a	1
460.3830000000	n/a	460383	FrequentVariableSOA	1716	n/a	n/a	1
462.1000000000	n/a	462100	FrequentVariableSOA	1633	n/a	n/a	1
463.7330000000	n/a	463733	GoFixedSOA	505	n/a	n/a	1
465.3660000000	n/a	465366	FrequentFixedSOA	1633	n/a	n/a	1
467.0000000000	n/a	467000	FrequentFixedSOA	1633	n/a	n/a	1
468.6330000000	n/a	468633	FrequentFixedSOA	1633	n/a	n/a	1
470.2660000000	n/a	470266	FrequentFixedSOA	1633	n/a	n/a	1
471.9000000000	n/a	471900	FrequentFixedSOA	1633	n/a	n/a	1
473.5330000000	n/a	473533	FrequentFixedSOA	1633	n/a	n/a	1
475.1660000000	n/a	475166	NovelFixedSOA	1633	n/a	n/a	1
476.8000000000	n/a	476800	FrequentFixedSOA	1633	n/a	n/a	1
478.4330000000	n/a	478433	FrequentFixedSOA	1633	n/a	n/a	1
480.0660000000	n/a	480066	FrequentFixedSOA	1633	n/a	n/a	1
481.7000000000	n/a	481700	NovelFixedSOA	1633	n/a	n/a	1
483.3330000000	n/a	483333	FrequentFixedSOA	1633	n/a	n/a	1
484.9660000000	n/a	484966	GoFixedSOA	1633	n/a	n/a	0
486.6000000000	n/a	486600	FrequentFixedSOA	1633	n/a	n/a	1
488.2330000000	n/a	488233	FrequentFixedSOA	1633	n/a	n/a	1
489.8660000000	n/a	489866	GoFixedSOA	1633	n/a	n/a	0
491.5000000000	n/a	491500	FrequentFixedSOA	1633	n/a	n/a	1
493.1330000000	n/a	493133	NovelFixedSOA	1633	n/a	n/a	1
494.7660000000	n/a	494766	FrequentFixedSOA	1633	n/a	n/a	1
496.4000000000	n/a	496400	FrequentFixedSOA	1633	n/a	n/a	1
498.0330000000	n/a	498033	FrequentFixedSOA	1633	n/a	n/a	1
499.6660000000	n/a	499666	FrequentFixedSOA	1633	n/a	n/a	1
501.3000000000	n/a	501300	FrequentFixedSOA	1633	n/a	n/a	1
502.9330000000	n/a	502933	GoFixedSOA	484	n/a	n/a	1
504.5660000000	n/a	504566	FrequentFixedSOA	1633	n/a	n/a	1
506.2000000000	n/a	506200	FrequentFixedSOA	1633	n/a	n/a	1
507.8330000000	n/a	507833	NovelFixedSOA	1633	n/a	n/a	1
509.4660000000	n/a	509466	FrequentFixedSOA	1633	n/a	n/a	1
511.1000000000	n/a	511100	FrequentFixedSOA	1633	n/a	n/a	1
512.7330000000	n/a	512733	FrequentFixedSOA	1633	n/a	n/a	1
514.3660000000	n/a	514366	FrequentFixedSOA	1633	n/a	n/a	1
516.0000000000	n/a	516000	FrequentFixedSOA	1633	n/a	n/a	1
517.6330000000	n/a	517633	NovelFixedSOA	1633	n/a	n/a	1
519.2660000000	n/a	519266	FrequentFixedSOA	1633	n/a	n/a	1
520.9000000000	n/a	520900	FrequentFixedSOA	1633	n/a	n/a	1
522.5330000000	n/a	522533	FrequentFixedSOA	1633	n/a	n/a	1
524.1660000000	n/a	524166	FrequentFixedSOA	1633	n/a	n/a	1
525.8000000000	n/a	525800	GoFixedSOA	835	n/a	n/a	1
527.4330000000	n/a	527433	FrequentFixedSOA	1633	n/a	n/a	1
529.0660000000	n/a	529066	FrequentFixedSOA	1633	n/a	n/a	1
530.7000000000	n/a	530700	NovelFixedSOA	1633	n/a	n/a	1
532.3330000000	n/a	532333	FrequentFixedSOA	1633	n/a	n/a	1
533.9660000000	n/a	533966	FrequentFixedSOA	1633	n/a	n/a	1
535.6000000000	n/a	535600	NovelFixedSOA	1633	n/a	n/a	1
537.2330000000	n/a	537233	FrequentFixedSOA	1633	n/a	n/a	1
538.8660000000	n/a	538866	FrequentFixedSOA	1633	n/a	n/a	1
540.5000000000	n/a	540500	FrequentFixedSOA	1633	n/a	n/a	1
542.1330000000	n/a	542133	FrequentFixedSOA	1633	n/a	n/a	1
543.7660000000	n/a	543766	FrequentFixedSOA	1633	n/a	n/a	1
545.4000000000	n/a	545400	GoFixedSOA	580	n/a	n/a	1
547.0330000000	n/a	547033	FrequentFixedSOA	1633	n/a	n/a	1
548.6660000000	n/a	548666	FrequentFixedSOA	1633	n/a	n/a	1
550.3000000000	n/a	550300	FrequentFixedSOA	1633	n/a	n/a	1
551.9330000000	n/a	551933	FrequentFixedSOA	1633	n/a	n/a	1
553.5660000000	n/a	553566	FrequentFixedSOA	1633	n/a	n/a	1
555.2000000000	n/a	555200	NovelFixedSOA	1633	n/a	n/a	1
556.8330000000	n/a	556833	FrequentFixedSOA	1633	n/a	n/a	1
558.4660000000	n/a	558466	GoFixedSOA	411	n/a	n/a	1
560.1000000000	n/a	560100	FrequentFixedSOA	1633	n/a	n/a	1
561.7330000000	n/a	561733	FrequentFixedSOA	1633	n/a	n/a	1
563.3660000000	n/a	563366	FrequentFixedSOA	1633	n/a	n/a	1
565.0000000000	n/a	565000	FrequentFixedSOA	1633	n/a	n/a	1
566.6330000000	n/a	566633	FrequentFixedSOA	1633	n/a	n/a	1
568.2660000000	n/a	568266	FrequentFixedSOA	1633	n/a	n/a	1
569.9000000000	n/a	569900	FrequentFixedSOA	1633	n/a	n/a	1
571.5330000000	n/a	571533	FrequentFixedSOA	1633	n/a	n/a	1
573.1660000000	n/a	573166	NovelFixedSOA	1633	n/a	n/a	1
574.8000000000	n/a	574800	FrequentFixedSOA	1633	n/a	n/a	1
576.4330000000	n/a	576433	FrequentFixedSOA	1633	n/a	n/a	1
578.0660000000	n/a	578066	GoVariableSOA	556	n/a	n/a	1
579.8160000000	n/a	579816	FrequentVariableSOA	1566	n/a	n/a	1
581.3830000000	n/a	581383	FrequentVariableSOA	1700	n/a	n/a	1
583.0830000000	n/a	583083	FrequentVariableSOA	1566	n/a	n/a	1
584.6500000000	n/a	584650	FrequentVariableSOA	1583	n/a	n/a	1
586.2330000000	n/a	586233	FrequentVariableSOA	1633	n/a	n/a	1
587.8660000000	n/a	587866	FrequentVariableSOA	1600	n/a	n/a	1
589.4660000000	n/a	589466	NovelVariableSOA	1650	n/a	n/a	1
591.1160000000	n/a	591116	FrequentVariableSOA	1550	n/a	n/a	1
592.6660000000	n/a	592666	FrequentVariableSOA	1583	n/a	n/a	1
594.2500000000	n/a	594250	FrequentVariableSOA	1633	n/a	n/a	1
595.8830000000	n/a	595883	NovelVariableSOA	1533	n/a	n/a	1
597.4160000000	n/a	597416	FrequentVariableSOA	1716	n/a	n/a	1
599.1330000000	n/a	599133	GoVariableSOA	1516	n/a	n/a	0
600.6500000000	n/a	600650	FrequentVariableSOA	1700	n/a	n/a	1
602.3500000000	n/a	602350	FrequentVariableSOA	1516	n/a	n/a	1
603.8660000000	n/a	603866	GoVariableSOA	575	n/a	n/a	1
605.6330000000	n/a	605633	FrequentVariableSOA	1666	n/a	n/a	1
607.2990000000	n/a	607299	NovelVariableSOA	1666	n/a	n/a	1
608.9660000000	n/a	608966	FrequentVariableSOA	1650	n/a	n/a	1
610.6160000000	n/a	610616	FrequentVariableSOA	1783	n/a	n/a	1
612.3990000000	n/a	612399	FrequentVariableSOA	1633	n/a	n/a	1
614.0330000000	n/a	614033	FrequentVariableSOA	1500	n/a	n/a	1
615.5330000000	n/a	615533	FrequentVariableSOA	1616	n/a	n/a	1
617.1490000000	n/a	617149	GoVariableSOA	1533	n/a	n/a	0
618.6830000000	n/a	618683	FrequentVariableSOA	1750	n/a	n/a	1
620.4330000000	n/a	620433	FrequentVariableSOA	1683	n/a	n/a	1
622.1160000000	n/a	622116	NovelVariableSOA	1600	n/a	n/a	1
623.7160000000	n/a	623716	FrequentVariableSOA	1766	n/a	n/a	1
625.4830000000	n/a	625483	FrequentVariableSOA	1633	n/a	n/a	1
627.1160000000	n/a	627116	FrequentVariableSOA	1500	n/a	n/a	1
628.6160000000	n/a	628616	FrequentVariableSOA	1683	n/a	n/a	1
630.2990000000	n/a	630299	FrequentVariableSOA	1716	n/a	n/a	1
632.0160000000	n/a	632016	NovelVariableSOA	1700	n/a	n/a	1
633.7160000000	n/a	633716	FrequentVariableSOA	1533	n/a	n/a	1
635.2490000000	n/a	635249	FrequentVariableSOA	1550	n/a	n/a	1
636.7990000000	n/a	636799	FrequentVariableSOA	1550	n/a	n/a	1
638.3490000000	n/a	638349	FrequentVariableSOA	1666	n/a	n/a	1
640.0160000000	n/a	640016	GoVariableSOA	1566	n/a	n/a	0
641.5830000000	n/a	641583	FrequentVariableSOA	1700	n/a	n/a	1
643.2830000000	n/a	643283	FrequentVariableSOA	1633	n/a	n/a	1
644.9160000000	n/a	644916	NovelVariableSOA	1783	n/a	n/a	1
646.6990000000	n/a	646699	FrequentVariableSOA	1550	n/a	n/a	1
648.2490000000	n/a	648249	FrequentVariableSOA	1700	n/a	n/a	1
649.9490000000	n/a	649949	NovelVariableSOA	1550	n/a	n/a	1
651.4990000000	n/a	651499	FrequentVariableSOA	1600	n/a	n/a	1
653.0990000000	n/a	653099	FrequentVariableSOA	1633	n/a	n/a	1
654.7330000000	n/a	654733	FrequentVariableSOA	1550	n/a	n/a	1
656.2830000000	n/a	656283	FrequentVariableSOA	1633	n/a	n/a	1
657.9160000000	n/a	657916	FrequentVariableSOA	1516	n/a	n/a	1
659.4330000000	n/a	659433	GoVariableSOA	429	n/a	n/a	1
661.0830000000	n/a	661083	FrequentVariableSOA	1566	n/a	n/a	1
662.6490000000	n/a	662649	FrequentVariableSOA	1566	n/a	n/a	1
664.2160000000	n/a	664216	FrequentVariableSOA	1633	n/a	n/a	1
665.8490000000	n/a	665849	FrequentVariableSOA	1700	n/a	n/a	1
667.5490000000	n/a	667549	FrequentVariableSOA	1566	n/a	n/a	1
669.1160000000	n/a	669116	NovelVariableSOA	1616	n/a	n/a	1
670.7330000000	n/a	670733	FrequentVariableSOA	1616	n/a	n/a	1
672.3490000000	n/a	672349	GoVariableSOA	346	n/a	n/a	1
673.8660000000	n/a	673866	FrequentVariableSOA	1783	n/a	n/a	1
675.6490000000	n/a	675649	FrequentVariableSOA	1733	n/a	n/a	1
677.3830000000	n/a	677383	FrequentVariableSOA	1700	n/a	n/a	1
679.0830000000	n/a	679083	FrequentVariableSOA	1650	n/a	n/a	1
680.7330000000	n/a	680733	FrequentVariableSOA	1566	n/a	n/a	1
682.2990000000	n/a	682299	FrequentVariableSOA	1600	n/a	n/a	1
683.8990000000	n/a	683899	FrequentVariableSOA	1683	n/a	n/a	1
685.5830000000	n/a	685583	FrequentVariableSOA	1683	n/a	n/a	1
687.2660000000	n/a	687266	NovelVariableSOA	1600	n/a	n/a	1
688.8660000000	n/a	688866	FrequentVariableSOA	1733	n/a	n/a	1
690.5990000000	n/a	690599	FrequentVariableSOA	1800	n/a	n/a	1
692.3990000000	n/a	692399	GoFixedSOA	510	n/a	n/a	1
694.0330000000	n/a	694033	FrequentFixedSOA	1633	n/a	n/a	1
695.6660000000	n/a	695666	FrequentFixedSOA	1633	n/a	n/a	1
697.2990000000	n/a	697299	FrequentFixedSOA	1633	n/a	n/a	1
698.9330000000	n/a	698933	GoFixedSOA	1633	n/a	n/a	0
700.5660000000	n/a	700566	FrequentFixedSOA	1633	n/a	n/a	1
702.1990000000	n/a	702199	FrequentFixedSOA	1633	n/a	n/a	1
703.8330000000	n/a	703833	FrequentFixedSOA	1633	n/a	n/a	1
705.4660000000	n/a	705466	FrequentFixedSOA	1633	n/a	n/a	1
707.0990000000	n/a	707099	GoFixedSOA	1633	n/a	n/a	0
708.7330000000	n/a	708733	FrequentFixedSOA	1633	n/a	n/a	1
710.3660000000	n/a	710366	FrequentFixedSOA	1633	n/a	n/a	1
711.9990000000	n/a	711999	NovelFixedSOA	1633	n/a	n/a	1
713.6330000000	n/a	713633	FrequentFixedSOA	1633	n/a	n/a	1
715.2660000000	n/a	715266	FrequentFixedSOA	1633	n/a	n/a	1
716.8990000000	n/a	716899	GoFixedSOA	363	n/a	n/a	1
718.5330000000	n/a	718533	FrequentFixedSOA	1633	n/a	n/a	1
720.1660000000	n/a	720166	FrequentFixedSOA	1633	n/a	n/a	1
721.7990000000	n/a	721799	FrequentFixedSOA	1633	n/a	n/a	1
723.4330000000	n/a	723433	NovelFixedSOA	1633	n/a	n/a	1
725.0660000000	n/a	725066	FrequentFixedSOA	1633	n/a	n/a	1
726.6990000000	n/a	726699	NovelFixedSOA	1633	n/a	n/a	1
728.3330000000	n/a	728333	FrequentFixedSOA	1633	n/a	n/a	1
729.9660000000	n/a	729966	FrequentFixedSOA	1633	n/a	n/a	1
731.5990000000	n/a	731599	FrequentFixedSOA	1633	n/a	n/a	1
733.2330000000	n/a	733233	GoFixedSOA	1633	n/a	n/a	0
734.8660000000	n/a	734866	FrequentFixedSOA	1633	n/a	n/a	1
736.4990000000	n/a	736499	FrequentFixedSOA	1633	n/a	n/a	1
738.1330000000	n/a	738133	FrequentFixedSOA	1633	n/a	n/a	1
739.7660000000	n/a	739766	GoFixedSOA	447	n/a	n/a	1
741.3990000000	n/a	741399	FrequentFixedSOA	1633	n/a	n/a	1
743.0330000000	n/a	743033	FrequentFixedSOA	1633	n/a	n/a	1
744.6660000000	n/a	744666	NovelFixedSOA	1633	n/a	n/a	1
746.2990000000	n/a	746299	FrequentFixedSOA	1633	n/a	n/a	1
747.9330000000	n/a	747933	GoFixedSOA	1633	n/a	n/a	0
749.5660000000	n/a	749566	FrequentFixedSOA	1633	n/a	n/a	1
751.1990000000	n/a	751199	FrequentFixedSOA	1633	n/a	n/a	1
752.8330000000	n/a	752833	FrequentFixedSOA	1633	n/a	n/a	1
754.4660000000	n/a	754466	FrequentFixedSOA	1633	n/a	n/a	1
756.0990000000	n/a	756099	FrequentFixedSOA	1633	n/a	n/a	1
757.7330000000	n/a	757733	FrequentFixedSOA	1633	n/a	n/a	1
759.3660000000	n/a	759366	NovelFixedSOA	1633	n/a	n/a	1
760.9990000000	n/a	760999	FrequentFixedSOA	1633	n/a	n/a	1
762.6330000000	n/a	762633	FrequentFixedSOA	1633	n/a	n/a	1
764.2660000000	n/a	764266	FrequentFixedSOA	1633	n/a	n/a	1
765.8990000000	n/a	765899	GoFixedSOA	456	n/a	n/a	1
767.5330000000	n/a	767533	FrequentFixedSOA	1633	n/a	n/a	1
769.1660000000	n/a	769166	FrequentFixedSOA	1633	n/a	n/a	1
770.7990000000	n/a	770799	FrequentFixedSOA	1633	n/a	n/a	1
772.4330000000	n/a	772433	FrequentFixedSOA	1633	n/a	n/a	1
774.0660000000	n/a	774066	NovelFixedSOA	1633	n/a	n/a	1
775.6990000000	n/a	775699	FrequentFixedSOA	1633	n/a	n/a	1
777.3330000000	n/a	777333	FrequentFixedSOA	1633	n/a	n/a	1
778.9660000000	n/a	778966	NovelFixedSOA	1633	n/a	n/a	1
780.5990000000	n/a	780599	FrequentFixedSOA	1633	n/a	n/a	1
782.2330000000	n/a	782233	NovelFixedSOA	1633	n/a	n/a	1
783.8660000000	n/a	783866	FrequentFixedSOA	1633	n/a	n/a	1
785.4990000000	n/a	785499	FrequentFixedSOA	1633	n/a	n/a	1
787.1330000000	n/a	787133	FrequentFixedSOA	1633	n/a	n/a	1
788.7660000000	n/a	788766	FrequentFixedSOA	1633	n/a	n/a	1
790.3990000000	n/a	790399	FrequentFixedSOA	1633	n/a	n/a	1
792.0330000000	n/a	792033	FrequentFixedSOA	1633	n/a	n/a	1
793.6660000000	n/a	793666	FrequentFixedSOA	1633	n/a	n/a	1
795.2990000000	n/a	795299	GoFixedSOA	765	n/a	n/a	1
796.9330000000	n/a	796933	FrequentFixedSOA	1633	n/a	n/a	1
798.5660000000	n/a	798566	GoFixedSOA	534	n/a	n/a	1
800.1990000000	n/a	800199	FrequentFixedSOA	1633	n/a	n/a	1
801.8330000000	n/a	801833	FrequentFixedSOA	1633	n/a	n/a	1
803.4660000000	n/a	803466	NovelFixedSOA	1633	n/a	n/a	1
805.0990000000	n/a	805099	FrequentFixedSOA	1633	n/a	n/a	1
806.7330000000	n/a	806733	GoVariableSOA	404	n/a	n/a	1
808.3660000000	n/a	808366	FrequentVariableSOA	1783	n/a	n/a	1
810.1490000000	n/a	810149	FrequentVariableSOA	1550	n/a	n/a	1
811.6990000000	n/a	811699	FrequentVariableSOA	1716	n/a	n/a	1
813.4160000000	n/a	813416	GoVariableSOA	390	n/a	n/a	1
815.0830000000	n/a	815083	FrequentVariableSOA	1700	n/a	n/a	1
816.7830000000	n/a	816783	FrequentVariableSOA	1583	n/a	n/a	1
818.3660000000	n/a	818366	FrequentVariableSOA	1683	n/a	n/a	1
820.0490000000	n/a	820049	FrequentVariableSOA	1650	n/a	n/a	1
821.6990000000	n/a	821699	GoVariableSOA	373	n/a	n/a	1
823.3990000000	n/a	823399	FrequentVariableSOA	1683	n/a	n/a	1
825.0830000000	n/a	825083	FrequentVariableSOA	1683	n/a	n/a	1
826.7660000000	n/a	826766	NovelVariableSOA	1633	n/a	n/a	1
828.3990000000	n/a	828399	FrequentVariableSOA	1550	n/a	n/a	1
829.9490000000	n/a	829949	FrequentVariableSOA	1750	n/a	n/a	1
831.6990000000	n/a	831699	GoVariableSOA	1750	n/a	n/a	0
833.4490000000	n/a	833449	FrequentVariableSOA	1783	n/a	n/a	1
835.2320000000	n/a	835232	FrequentVariableSOA	1616	n/a	n/a	1
836.8490000000	n/a	836849	FrequentVariableSOA	1533	n/a	n/a	1
838.3820000000	n/a	838382	NovelVariableSOA	1533	n/a	n/a	1
839.9160000000	n/a	839916	FrequentVariableSOA	1633	n/a	n/a	1
841.5490000000	n/a	841549	NovelVariableSOA	1516	n/a	n/a	1
843.0660000000	n/a	843066	FrequentVariableSOA	1700	n/a	n/a	1
844.7660000000	n/a	844766	FrequentVariableSOA	1766	n/a	n/a	1
846.5320000000	n/a	846532	FrequentVariableSOA	1783	n/a	n/a	1
848.3160000000	n/a	848316	GoVariableSOA	567	n/a	n/a	1
849.9160000000	n/a	849916	FrequentVariableSOA	1750	n/a	n/a	1
851.6660000000	n/a	851666	FrequentVariableSOA	1766	n/a	n/a	1
853.4320000000	n/a	853432	FrequentVariableSOA	1783	n/a	n/a	1
855.2160000000	n/a	855216	GoVariableSOA	680	n/a	n/a	1
856.8320000000	n/a	856832	FrequentVariableSOA	1783	n/a	n/a	1
858.6160000000	n/a	858616	FrequentVariableSOA	1550	n/a	n/a	1
860.1660000000	n/a	860166	NovelVariableSOA	1616	n/a	n/a	1
861.7820000000	n/a	861782	FrequentVariableSOA	1566	n/a	n/a	1
863.3490000000	n/a	863349	GoVariableSOA	554	n/a	n/a	1
865.1320000000	n/a	865132	FrequentVariableSOA	1733	n/a	n/a	1
866.8660000000	n/a	866866	FrequentVariableSOA	1550	n/a	n/a	1
868.4160000000	n/a	868416	FrequentVariableSOA	1616	n/a	n/a	1
870.0320000000	n/a	870032	FrequentVariableSOA	1650	n/a	n/a	1
871.6820000000	n/a	871682	FrequentVariableSOA	1650	n/a	n/a	1
873.3320000000	n/a	873332	FrequentVariableSOA	1583	n/a	n/a	1
874.9160000000	n/a	874916	NovelVariableSOA	1633	n/a	n/a	1
876.5490000000	n/a	876549	FrequentVariableSOA	1766	n/a	n/a	1
878.3160000000	n/a	878316	FrequentVariableSOA	1516	n/a	n/a	1
879.8320000000	n/a	879832	FrequentVariableSOA	1583	n/a	n/a	1
881.4160000000	n/a	881416	GoVariableSOA	478	n/a	n/a	1
882.9660000000	n/a	882966	FrequentVariableSOA	1583	n/a	n/a	1
884.5490000000	n/a	884549	FrequentVariableSOA	1616	n/a	n/a	1
886.1660000000	n/a	886166	FrequentVariableSOA	1650	n/a	n/a	1
887.8160000000	n/a	887816	FrequentVariableSOA	1550	n/a	n/a	1
889.3660000000	n/a	889366	NovelVariableSOA	1733	n/a	n/a	1
891.0990000000	n/a	891099	FrequentVariableSOA	1716	n/a	n/a	1
892.8160000000	n/a	892816	FrequentVariableSOA	1783	n/a	n/a	1
894.5990000000	n/a	894599	NovelVariableSOA	1700	n/a	n/a	1
896.2990000000	n/a	896299	FrequentVariableSOA	1550	n/a	n/a	1
897.8490000000	n/a	897849	NovelVariableSOA	1633	n/a	n/a	1
899.4820000000	n/a	899482	FrequentVariableSOA	1616	n/a	n/a	1
901.0990000000	n/a	901099	FrequentVariableSOA	1700	n/a	n/a	1
902.7990000000	n/a	902799	FrequentVariableSOA	1533	n/a	n/a	1
904.3320000000	n/a	904332	FrequentVariableSOA	1600	n/a	n/a	1
905.9320000000	n/a	905932	FrequentVariableSOA	1766	n/a	n/a	1
907.6990000000	n/a	907699	FrequentVariableSOA	1666	n/a	n/a	1
909.3660000000	n/a	909366	FrequentVariableSOA	1733	n/a	n/a	1
911.0990000000	n/a	911099	GoVariableSOA	291	n/a	n/a	1
912.6990000000	n/a	912699	FrequentVariableSOA	1783	n/a	n/a	1
914.4820000000	n/a	914482	GoVariableSOA	456	n/a	n/a	1
916.0320000000	n/a	916032	FrequentVariableSOA	1566	n/a	n/a	1
917.5990000000	n/a	917599	FrequentVariableSOA	1600	n/a	n/a	1
919.1990000000	n/a	919199	NovelVariableSOA	1716	n/a	n/a	1
920.9160000000	n/a	920916	FrequentVariableSOA	1600	n/a	n/a	1
