onset	duration	sample	trial_type	response_time	stim_file	value	correct
0.9840000000	n/a	984	ignore	2597	n/a	n/a	1
4.6500000000	n/a	4650	ignore	1000	n/a	n/a	1
6.6500000000	n/a	6650	ignore	1700	n/a	n/a	1
8.3500000000	n/a	8350	ignore	1164	n/a	n/a	1
10.5840000000	n/a	10584	ignore	1000	n/a	n/a	1
12.5840000000	n/a	12584	ignore	1700	n/a	n/a	1
14.2840000000	n/a	14284	ignore	934	n/a	n/a	1
16.2840000000	n/a	16284	ignore	1000	n/a	n/a	1
18.2840000000	n/a	18284	ignore	1700	n/a	n/a	1
19.9840000000	n/a	19984	ignore	1005	n/a	n/a	1
22.0670000000	n/a	22067	ignore	1000	n/a	n/a	1
24.0670000000	n/a	24067	ignore	1700	n/a	n/a	1
25.7670000000	n/a	25767	ignore	1013	n/a	n/a	1
27.8500000000	n/a	27850	ignore	1000	n/a	n/a	1
29.8500000000	n/a	29850	ignore	1700	n/a	n/a	1
31.5500000000	n/a	31550	ignore	772	n/a	n/a	1
33.4000000000	n/a	33400	ignore	1000	n/a	n/a	1
35.4000000000	n/a	35400	STATUS	1700	n/a	n/a	1
37.1000000000	n/a	37100	ignore	643	n/a	n/a	1
38.8170000000	n/a	38817	ignore	1000	n/a	n/a	1
40.8170000000	n/a	40817	STATUS	1700	n/a	n/a	1
42.5170000000	n/a	42517	ignore	864	n/a	n/a	1
44.4500000000	n/a	44450	ignore	1000	n/a	n/a	1
46.4500000000	n/a	46450	STATUS	1700	n/a	n/a	1
48.1500000000	n/a	48150	ignore	4814	n/a	n/a	1
53.0340000000	n/a	53034	ignore 	2000	n/a	n/a	1
60.1500000000	n/a	60150	ignore	1000	n/a	n/a	1
62.1500000000	n/a	62150	STATUS	1700	n/a	n/a	1
63.8500000000	n/a	63850	ignore	1029	n/a	n/a	0
65.9500000000	n/a	65950	ignore	1000	n/a	n/a	1
67.9500000000	n/a	67950	STATUS	1700	n/a	n/a	1
69.6500000000	n/a	69650	ignore	479	n/a	n/a	1
71.2000000000	n/a	71200	ignore	1000	n/a	n/a	1
73.2000000000	n/a	73200	STATUS	1700	n/a	n/a	1
74.9000000000	n/a	74900	ignore	807	n/a	n/a	1
76.7830000000	n/a	76783	ignore	1000	n/a	n/a	1
78.7830000000	n/a	78783	ignore	1700	n/a	n/a	1
80.4830000000	n/a	80483	ignore	998	n/a	n/a	1
82.5500000000	n/a	82550	ignore	1000	n/a	n/a	1
84.5500000000	n/a	84550	ignore	1700	n/a	n/a	1
86.2500000000	n/a	86250	ignore	878	n/a	n/a	1
88.2000000000	n/a	88200	ignore	1000	n/a	n/a	1
90.2000000000	n/a	90200	ignore	1700	n/a	n/a	1
91.9000000000	n/a	91900	ignore	911	n/a	n/a	1
93.8830000000	n/a	93883	ignore	1000	n/a	n/a	1
95.8830000000	n/a	95883	ignore	1700	n/a	n/a	1
97.5830000000	n/a	97583	ignore	807	n/a	n/a	1
99.4670000000	n/a	99467	ignore	1000	n/a	n/a	1
101.4670000000	n/a	101467	ignore	1700	n/a	n/a	1
103.1670000000	n/a	103167	ignore	1213	n/a	n/a	1
104.4500000000	n/a	104450	ignore 	2000	n/a	n/a	1
138.2170000000	n/a	138217	PenaltyB1	1061	n/a	n/a	1
140.3500000000	n/a	140350	NeuCorrB1	1000	n/a	n/a	1
142.3500000000	n/a	142350	ignore	1700	n/a	n/a	1
144.0500000000	n/a	144050	PenaltyB1	2584	n/a	n/a	1
147.7000000000	n/a	147700	NeuCorrB1	1000	n/a	n/a	1
149.7000000000	n/a	149700	ignore	1700	n/a	n/a	1
151.4000000000	n/a	151400	PenaltyB1	598	n/a	n/a	1
153.0670000000	n/a	153067	NeuCorrB1	1000	n/a	n/a	1
155.0670000000	n/a	155067	ignore	1700	n/a	n/a	1
156.7670000000	n/a	156767	RewardB1	2967	n/a	n/a	1
160.8000000000	n/a	160800	RewardCorrB1	1000	n/a	n/a	1
162.8000000000	n/a	162800	ignore	1700	n/a	n/a	1
164.5000000000	n/a	164500	RewardB1	598	n/a	n/a	1
166.1670000000	n/a	166167	RewardCorrB1	1000	n/a	n/a	1
168.1670000000	n/a	168167	ignore	1700	n/a	n/a	1
169.8670000000	n/a	169867	PenaltyB1	1034	n/a	n/a	1
171.9670000000	n/a	171967	NeuCorrB1	1000	n/a	n/a	1
173.9670000000	n/a	173967	ignore	1700	n/a	n/a	1
175.6670000000	n/a	175667	PenaltyB1	1668	n/a	n/a	0
178.4000000000	n/a	178400	PunIncorrB1	1000	n/a	n/a	1
180.4000000000	n/a	180400	ignore	1700	n/a	n/a	1
182.1000000000	n/a	182100	PenaltyB1	902	n/a	n/a	1
184.0670000000	n/a	184067	NeuCorrB1	1000	n/a	n/a	1
186.0670000000	n/a	186067	ignore	1700	n/a	n/a	1
187.7670000000	n/a	187767	PenaltyB1	583	n/a	n/a	1
189.4170000000	n/a	189417	PunCorrB1	1000	n/a	n/a	1
191.4170000000	n/a	191417	ignore	1700	n/a	n/a	1
193.1170000000	n/a	193117	RewardB1	952	n/a	n/a	1
195.1330000000	n/a	195133	RewardCorrB1	1000	n/a	n/a	1
197.1330000000	n/a	197133	ignore	1700	n/a	n/a	1
198.8330000000	n/a	198833	PenaltyB1	3135	n/a	n/a	1
203.0330000000	n/a	203033	NeuCorrB1	1000	n/a	n/a	1
205.0330000000	n/a	205033	ignore	1700	n/a	n/a	1
206.7330000000	n/a	206733	RewardB1	932	n/a	n/a	1
208.7330000000	n/a	208733	NeuCorrB1	1000	n/a	n/a	1
210.7330000000	n/a	210733	ignore	1700	n/a	n/a	1
212.4330000000	n/a	212433	PenaltyB1	590	n/a	n/a	1
214.1000000000	n/a	214100	NeuCorrB1	1000	n/a	n/a	1
216.1000000000	n/a	216100	ignore	1700	n/a	n/a	1
217.8000000000	n/a	217800	RewardB1	580	n/a	n/a	1
219.4500000000	n/a	219450	RewardCorrB1	1000	n/a	n/a	1
221.4500000000	n/a	221450	ignore	1700	n/a	n/a	1
223.1500000000	n/a	223150	PenaltyB1	579	n/a	n/a	1
224.8000000000	n/a	224800	NeuCorrB1	1000	n/a	n/a	1
226.8000000000	n/a	226800	ignore	1700	n/a	n/a	1
228.5000000000	n/a	228500	PenaltyB1	1084	n/a	n/a	0
230.6500000000	n/a	230650	PunIncorrB1	1000	n/a	n/a	1
232.6500000000	n/a	232650	ignore	1700	n/a	n/a	1
234.3500000000	n/a	234350	RewardB1	588	n/a	n/a	1
236.0000000000	n/a	236000	NeuCorrB1	1000	n/a	n/a	1
238.0000000000	n/a	238000	ignore	1700	n/a	n/a	1
239.7000000000	n/a	239700	PenaltyB1	790	n/a	n/a	0
241.5660000000	n/a	241566	PunIncorrB1	1000	n/a	n/a	1
243.5670000000	n/a	243567	ignore	1700	n/a	n/a	1
245.2660000000	n/a	245266	RewardB1	589	n/a	n/a	1
246.9330000000	n/a	246933	RewardCorrB1	1000	n/a	n/a	1
248.9330000000	n/a	248933	ignore	1700	n/a	n/a	1
250.6330000000	n/a	250633	RewardB1	550	n/a	n/a	1
252.2500000000	n/a	252250	RewardCorrB1	1000	n/a	n/a	1
254.2500000000	n/a	254250	ignore	1700	n/a	n/a	1
255.9500000000	n/a	255950	RewardB1	1013	n/a	n/a	1
258.0330000000	n/a	258033	NeuCorrB1	1000	n/a	n/a	1
260.0330000000	n/a	260033	ignore	1700	n/a	n/a	1
261.7330000000	n/a	261733	RewardB1	601	n/a	n/a	1
263.4000000000	n/a	263400	RewardCorrB1	1000	n/a	n/a	1
265.4000000000	n/a	265400	ignore	1700	n/a	n/a	1
267.1000000000	n/a	267100	RewardB1	725	n/a	n/a	1
268.9000000000	n/a	268900	RewardCorrB1	1000	n/a	n/a	1
270.9000000000	n/a	270900	ignore	1700	n/a	n/a	1
272.6000000000	n/a	272600	PenaltyB1	706	n/a	n/a	1
274.3830000000	n/a	274383	NeuCorrB1	1000	n/a	n/a	1
276.3830000000	n/a	276383	ignore	1700	n/a	n/a	1
278.0830000000	n/a	278083	RewardB1	1231	n/a	n/a	1
280.3830000000	n/a	280383	RewardCorrB1	1000	n/a	n/a	1
282.3830000000	n/a	282383	ignore	1700	n/a	n/a	1
284.0830000000	n/a	284083	PenaltyB1	711	n/a	n/a	0
285.8660000000	n/a	285866	NeuIncorrB1	1000	n/a	n/a	1
287.8660000000	n/a	287866	ignore	1700	n/a	n/a	1
289.5660000000	n/a	289566	RewardB1	713	n/a	n/a	1
291.3500000000	n/a	291350	RewardCorrB1	1000	n/a	n/a	1
293.3500000000	n/a	293350	ignore	1700	n/a	n/a	1
295.0500000000	n/a	295050	RewardB1	641	n/a	n/a	1
296.7660000000	n/a	296766	RewardCorrB1	1000	n/a	n/a	1
298.7660000000	n/a	298766	ignore	1700	n/a	n/a	1
300.4660000000	n/a	300466	RewardB1	567	n/a	n/a	1
302.1000000000	n/a	302100	RewardCorrB1	1000	n/a	n/a	1
304.1000000000	n/a	304100	STATUS	1700	n/a	n/a	1
305.8000000000	n/a	305800	PenaltyB1	709	n/a	n/a	0
307.5830000000	n/a	307583	PunIncorrB1	1000	n/a	n/a	1
309.5830000000	n/a	309583	ignore	1700	n/a	n/a	1
311.2830000000	n/a	311283	RewardB1	788	n/a	n/a	1
313.1330000000	n/a	313133	NeuCorrB1	1000	n/a	n/a	1
315.1330000000	n/a	315133	ignore	1700	n/a	n/a	1
316.8330000000	n/a	316833	PenaltyB1	905	n/a	n/a	1
318.8000000000	n/a	318800	NeuCorrB1	1000	n/a	n/a	1
320.8000000000	n/a	320800	ignore	1700	n/a	n/a	1
322.5000000000	n/a	322500	RewardB1	865	n/a	n/a	1
324.4330000000	n/a	324433	RewardCorrB1	1000	n/a	n/a	1
326.4330000000	n/a	326433	STATUS	1700	n/a	n/a	1
328.1330000000	n/a	328133	PenaltyB1	727	n/a	n/a	0
329.9330000000	n/a	329933	NeuIncorrB1	1000	n/a	n/a	1
331.9330000000	n/a	331933	STATUS	1700	n/a	n/a	1
333.6330000000	n/a	333633	RewardB1	895	n/a	n/a	1
335.6000000000	n/a	335600	RewardCorrB1	1000	n/a	n/a	1
337.6000000000	n/a	337600	STATUS	1700	n/a	n/a	1
339.3000000000	n/a	339300	PenaltyB1	829	n/a	n/a	0
341.2000000000	n/a	341200	PunIncorrB1	1000	n/a	n/a	1
343.2000000000	n/a	343200	STATUS	1700	n/a	n/a	1
344.9000000000	n/a	344900	PenaltyB1	672	n/a	n/a	1
346.6500000000	n/a	346650	NeuCorrB1	1000	n/a	n/a	1
348.6500000000	n/a	348650	STATUS	1700	n/a	n/a	1
350.3500000000	n/a	350350	RewardB1	784	n/a	n/a	1
352.2000000000	n/a	352200	RewardCorrB1	1000	n/a	n/a	1
354.2000000000	n/a	354200	STATUS	1700	n/a	n/a	1
355.9000000000	n/a	355900	PenaltyB1	867	n/a	n/a	1
357.8330000000	n/a	357833	PunCorrB1	1000	n/a	n/a	1
359.8330000000	n/a	359833	STATUS	1700	n/a	n/a	1
361.5330000000	n/a	361533	RewardB1	558	n/a	n/a	1
363.1660000000	n/a	363166	RewardCorrB1	1000	n/a	n/a	1
365.1660000000	n/a	365166	STATUS	1700	n/a	n/a	1
369.5660000000	n/a	369566	RewardB2	702	n/a	n/a	1
371.3330000000	n/a	371333	RewardCorrB2	1000	n/a	n/a	1
373.3330000000	n/a	373333	STATUS	1700	n/a	n/a	1
375.0330000000	n/a	375033	PenaltyB2	2958	n/a	n/a	1
379.0660000000	n/a	379066	NeuCorrB2	1000	n/a	n/a	1
381.0660000000	n/a	381066	STATUS	1700	n/a	n/a	1
382.7660000000	n/a	382766	RewardB2	561	n/a	n/a	1
384.4000000000	n/a	384400	RewardCorrB2	1000	n/a	n/a	1
386.4000000000	n/a	386400	STATUS	1700	n/a	n/a	1
388.1000000000	n/a	388100	RewardB2	724	n/a	n/a	1
389.9000000000	n/a	389900	NeuCorrB2	1000	n/a	n/a	1
391.9000000000	n/a	391900	STATUS	1700	n/a	n/a	1
393.6000000000	n/a	393600	PenaltyB2	1591	n/a	n/a	0
396.2660000000	n/a	396266	PunIncorrB2	1000	n/a	n/a	1
398.2660000000	n/a	398266	STATUS	1700	n/a	n/a	1
399.9660000000	n/a	399966	RewardB2	699	n/a	n/a	1
401.7330000000	n/a	401733	RewardCorrB2	1000	n/a	n/a	1
403.7330000000	n/a	403733	STATUS	1700	n/a	n/a	1
405.4330000000	n/a	405433	PenaltyB2	1294	n/a	n/a	1
407.7990000000	n/a	407799	NeuCorrB2	1000	n/a	n/a	1
409.8000000000	n/a	409800	STATUS	1700	n/a	n/a	1
411.4990000000	n/a	411499	RewardB2	640	n/a	n/a	1
413.2160000000	n/a	413216	RewardCorrB2	1000	n/a	n/a	1
415.2160000000	n/a	415216	STATUS	1700	n/a	n/a	1
416.9160000000	n/a	416916	PenaltyB2	1242	n/a	n/a	1
419.2330000000	n/a	419233	NeuCorrB2	1000	n/a	n/a	1
421.2330000000	n/a	421233	STATUS	1700	n/a	n/a	1
422.9330000000	n/a	422933	RewardB2	584	n/a	n/a	1
424.5830000000	n/a	424583	RewardCorrB2	1000	n/a	n/a	1
426.5830000000	n/a	426583	STATUS	1700	n/a	n/a	1
428.2830000000	n/a	428283	PenaltyB2	1042	n/a	n/a	1
430.3990000000	n/a	430399	PunCorrB2	1000	n/a	n/a	1
432.4000000000	n/a	432400	STATUS	1700	n/a	n/a	1
434.0990000000	n/a	434099	RewardB2	553	n/a	n/a	1
435.7160000000	n/a	435716	RewardCorrB2	1000	n/a	n/a	1
437.7160000000	n/a	437716	STATUS	1700	n/a	n/a	1
439.4160000000	n/a	439416	PenaltyB2	676	n/a	n/a	0
441.1660000000	n/a	441166	PunIncorrB2	1000	n/a	n/a	1
443.1660000000	n/a	443166	STATUS	1700	n/a	n/a	1
444.8660000000	n/a	444866	RewardB2	631	n/a	n/a	1
446.5660000000	n/a	446566	RewardCorrB2	1000	n/a	n/a	1
448.5660000000	n/a	448566	STATUS	1700	n/a	n/a	1
450.2660000000	n/a	450266	PenaltyB2	454	n/a	n/a	1
451.7830000000	n/a	451783	NeuCorrB2	1000	n/a	n/a	1
453.7830000000	n/a	453783	STATUS	1700	n/a	n/a	1
455.4830000000	n/a	455483	RewardB2	795	n/a	n/a	1
457.3490000000	n/a	457349	NeuCorrB2	1000	n/a	n/a	1
459.3490000000	n/a	459349	STATUS	1700	n/a	n/a	1
461.0490000000	n/a	461049	PenaltyB2	940	n/a	n/a	1
463.0660000000	n/a	463066	NeuCorrB2	1000	n/a	n/a	1
465.0660000000	n/a	465066	STATUS	1700	n/a	n/a	1
466.7660000000	n/a	466766	RewardB2	567	n/a	n/a	1
468.3990000000	n/a	468399	RewardCorrB2	1000	n/a	n/a	1
470.3990000000	n/a	470399	STATUS	1700	n/a	n/a	1
472.0990000000	n/a	472099	PenaltyB2	1068	n/a	n/a	1
474.2330000000	n/a	474233	NeuCorrB2	1000	n/a	n/a	1
476.2330000000	n/a	476233	STATUS	1700	n/a	n/a	1
477.9330000000	n/a	477933	RewardB2	559	n/a	n/a	1
479.5660000000	n/a	479566	RewardCorrB2	1000	n/a	n/a	1
481.5660000000	n/a	481566	STATUS	1700	n/a	n/a	1
483.2660000000	n/a	483266	PenaltyB2	1649	n/a	n/a	1
485.9830000000	n/a	485983	PunCorrB2	1000	n/a	n/a	1
487.9830000000	n/a	487983	STATUS	1700	n/a	n/a	1
489.6830000000	n/a	489683	PenaltyB2	579	n/a	n/a	1
491.3330000000	n/a	491333	NeuCorrB2	1000	n/a	n/a	1
493.3330000000	n/a	493333	STATUS	1700	n/a	n/a	1
495.0330000000	n/a	495033	PenaltyB2	959	n/a	n/a	0
497.0660000000	n/a	497066	PunIncorrB2	1000	n/a	n/a	1
499.0660000000	n/a	499066	STATUS	1700	n/a	n/a	1
500.7660000000	n/a	500766	RewardB2	630	n/a	n/a	1
502.4660000000	n/a	502466	RewardCorrB2	1000	n/a	n/a	1
504.4660000000	n/a	504466	STATUS	1700	n/a	n/a	1
506.1660000000	n/a	506166	RewardB2	494	n/a	n/a	1
507.7330000000	n/a	507733	NeuCorrB2	1000	n/a	n/a	1
509.7330000000	n/a	509733	STATUS	1700	n/a	n/a	1
511.4330000000	n/a	511433	RewardB2	423	n/a	n/a	1
512.9330000000	n/a	512933	RewardCorrB2	1000	n/a	n/a	1
514.9330000000	n/a	514933	STATUS	1700	n/a	n/a	1
516.6330000000	n/a	516633	PenaltyB2	1019	n/a	n/a	1
518.7160000000	n/a	518716	NeuCorrB2	1000	n/a	n/a	1
520.7160000000	n/a	520716	STATUS	1700	n/a	n/a	1
522.4160000000	n/a	522416	PenaltyB2	638	n/a	n/a	1
524.1160000000	n/a	524116	NeuCorrB2	1000	n/a	n/a	1
526.1160000000	n/a	526116	STATUS	1700	n/a	n/a	1
527.8160000000	n/a	527816	RewardB2	575	n/a	n/a	1
529.4660000000	n/a	529466	RewardCorrB2	1000	n/a	n/a	1
531.4660000000	n/a	531466	STATUS	1700	n/a	n/a	1
533.1660000000	n/a	533166	PenaltyB2	859	n/a	n/a	1
535.0990000000	n/a	535099	NeuCorrB2	1000	n/a	n/a	1
537.0990000000	n/a	537099	STATUS	1700	n/a	n/a	1
538.7990000000	n/a	538799	RewardB2	559	n/a	n/a	1
540.4330000000	n/a	540433	NeuCorrB2	1000	n/a	n/a	1
542.4330000000	n/a	542433	STATUS	1700	n/a	n/a	1
544.1330000000	n/a	544133	PenaltyB2	646	n/a	n/a	1
545.8490000000	n/a	545849	NeuCorrB2	1000	n/a	n/a	1
547.8490000000	n/a	547849	STATUS	1700	n/a	n/a	1
549.5490000000	n/a	549549	RewardB2	817	n/a	n/a	1
551.4330000000	n/a	551433	RewardCorrB2	1000	n/a	n/a	1
553.4330000000	n/a	553433	STATUS	1700	n/a	n/a	1
555.1330000000	n/a	555133	PenaltyB2	2226	n/a	n/a	1
558.4330000000	n/a	558433	NeuCorrB2	1000	n/a	n/a	1
560.4330000000	n/a	560433	STATUS	1700	n/a	n/a	1
562.1330000000	n/a	562133	PenaltyB2	634	n/a	n/a	1
563.8330000000	n/a	563833	PunCorrB2	1000	n/a	n/a	1
565.8330000000	n/a	565833	STATUS	1700	n/a	n/a	1
567.5330000000	n/a	567533	RewardB2	580	n/a	n/a	1
569.1830000000	n/a	569183	RewardCorrB2	1000	n/a	n/a	1
571.1830000000	n/a	571183	STATUS	1700	n/a	n/a	1
572.8830000000	n/a	572883	PenaltyB2	1115	n/a	n/a	1
575.0660000000	n/a	575066	NeuCorrB2	1000	n/a	n/a	1
577.0660000000	n/a	577066	STATUS	1700	n/a	n/a	1
578.7660000000	n/a	578766	RewardB2	436	n/a	n/a	1
580.2660000000	n/a	580266	RewardCorrB2	1000	n/a	n/a	1
582.2660000000	n/a	582266	STATUS	1700	n/a	n/a	1
583.9660000000	n/a	583966	PenaltyB2	872	n/a	n/a	1
585.9160000000	n/a	585916	PunCorrB2	1000	n/a	n/a	1
587.9160000000	n/a	587916	STATUS	1700	n/a	n/a	1
589.6160000000	n/a	589616	RewardB2	762	n/a	n/a	1
591.4490000000	n/a	591449	RewardCorrB2	1000	n/a	n/a	1
593.4490000000	n/a	593449	STATUS	1700	n/a	n/a	1
597.2660000000	n/a	597266	RewardB3	583	n/a	n/a	1
598.9160000000	n/a	598916	RewardCorrB3	1000	n/a	n/a	1
600.9160000000	n/a	600916	STATUS	1700	n/a	n/a	1
602.6160000000	n/a	602616	PenaltyB3	697	n/a	n/a	1
604.3820000000	n/a	604382	PunCorrB3	1000	n/a	n/a	1
606.3830000000	n/a	606383	STATUS	1700	n/a	n/a	1
608.0820000000	n/a	608082	RewardB3	672	n/a	n/a	1
609.8320000000	n/a	609832	RewardCorrB3	1000	n/a	n/a	1
611.8330000000	n/a	611833	STATUS	1700	n/a	n/a	1
613.5320000000	n/a	613532	PenaltyB3	2882	n/a	n/a	1
617.4820000000	n/a	617482	NeuCorrB3	1000	n/a	n/a	1
619.4830000000	n/a	619483	STATUS	1700	n/a	n/a	1
621.1820000000	n/a	621182	PenaltyB3	804	n/a	n/a	1
623.0490000000	n/a	623049	NeuCorrB3	1000	n/a	n/a	1
625.0490000000	n/a	625049	STATUS	1700	n/a	n/a	1
626.7490000000	n/a	626749	RewardB3	944	n/a	n/a	1
628.7660000000	n/a	628766	RewardCorrB3	1000	n/a	n/a	1
630.7660000000	n/a	630766	STATUS	1700	n/a	n/a	1
632.4660000000	n/a	632466	PenaltyB3	712	n/a	n/a	1
634.2490000000	n/a	634249	PunCorrB3	1000	n/a	n/a	1
636.2490000000	n/a	636249	STATUS	1700	n/a	n/a	1
637.9490000000	n/a	637949	RewardB3	504	n/a	n/a	1
639.5160000000	n/a	639516	RewardCorrB3	1000	n/a	n/a	1
641.5160000000	n/a	641516	STATUS	1700	n/a	n/a	1
643.2160000000	n/a	643216	PenaltyB3	594	n/a	n/a	1
644.8820000000	n/a	644882	NeuCorrB3	1000	n/a	n/a	1
646.8820000000	n/a	646882	STATUS	1700	n/a	n/a	1
648.5820000000	n/a	648582	RewardB3	1007	n/a	n/a	1
650.6660000000	n/a	650666	NeuCorrB3	1000	n/a	n/a	1
652.6660000000	n/a	652666	STATUS	1700	n/a	n/a	1
654.3660000000	n/a	654366	PenaltyB3	855	n/a	n/a	1
656.2990000000	n/a	656299	NeuCorrB3	1000	n/a	n/a	1
658.2990000000	n/a	658299	STATUS	1700	n/a	n/a	1
659.9990000000	n/a	659999	RewardB3	833	n/a	n/a	1
661.8990000000	n/a	661899	RewardCorrB3	1000	n/a	n/a	1
663.8990000000	n/a	663899	STATUS	1700	n/a	n/a	1
665.5990000000	n/a	665599	RewardB3	600	n/a	n/a	1
667.2660000000	n/a	667266	RewardCorrB3	1000	n/a	n/a	1
669.2660000000	n/a	669266	STATUS	1700	n/a	n/a	1
670.9660000000	n/a	670966	RewardB3	690	n/a	n/a	1
672.7320000000	n/a	672732	RewardCorrB3	1000	n/a	n/a	1
674.7320000000	n/a	674732	STATUS	1700	n/a	n/a	1
676.4320000000	n/a	676432	PenaltyB3	1860	n/a	n/a	1
679.3660000000	n/a	679366	PunCorrB3	1000	n/a	n/a	1
681.3660000000	n/a	681366	STATUS	1700	n/a	n/a	1
683.0660000000	n/a	683066	RewardB3	720	n/a	n/a	1
684.8490000000	n/a	684849	RewardCorrB3	1000	n/a	n/a	1
686.8490000000	n/a	686849	STATUS	1700	n/a	n/a	1
688.5490000000	n/a	688549	PenaltyB3	833	n/a	n/a	1
690.4490000000	n/a	690449	NeuCorrB3	1000	n/a	n/a	1
692.4490000000	n/a	692449	STATUS	1700	n/a	n/a	1
694.1490000000	n/a	694149	RewardB3	547	n/a	n/a	1
695.7660000000	n/a	695766	RewardCorrB3	1000	n/a	n/a	1
697.7660000000	n/a	697766	STATUS	1700	n/a	n/a	1
699.4660000000	n/a	699466	RewardB3	815	n/a	n/a	1
701.3490000000	n/a	701349	RewardCorrB3	1000	n/a	n/a	1
703.3490000000	n/a	703349	STATUS	1700	n/a	n/a	1
705.0490000000	n/a	705049	RewardB3	709	n/a	n/a	1
706.8320000000	n/a	706832	NeuCorrB3	1000	n/a	n/a	1
708.8320000000	n/a	708832	STATUS	1700	n/a	n/a	1
710.5320000000	n/a	710532	RewardB3	496	n/a	n/a	1
712.0990000000	n/a	712099	RewardCorrB3	1000	n/a	n/a	1
714.0990000000	n/a	714099	STATUS	1700	n/a	n/a	1
715.7990000000	n/a	715799	RewardB3	544	n/a	n/a	1
717.4160000000	n/a	717416	RewardCorrB3	1000	n/a	n/a	1
719.4160000000	n/a	719416	STATUS	1700	n/a	n/a	1
721.1160000000	n/a	721116	PenaltyB3	813	n/a	n/a	1
722.9990000000	n/a	722999	NeuCorrB3	1000	n/a	n/a	1
724.9990000000	n/a	724999	STATUS	1700	n/a	n/a	1
726.6990000000	n/a	726699	RewardB3	643	n/a	n/a	1
728.4160000000	n/a	728416	NeuCorrB3	1000	n/a	n/a	1
730.4160000000	n/a	730416	STATUS	1700	n/a	n/a	1
732.1160000000	n/a	732116	PenaltyB3	627	n/a	n/a	1
733.8160000000	n/a	733816	NeuCorrB3	1000	n/a	n/a	1
735.8160000000	n/a	735816	STATUS	1700	n/a	n/a	1
737.5160000000	n/a	737516	PenaltyB3	619	n/a	n/a	1
739.1990000000	n/a	739199	NeuCorrB3	1000	n/a	n/a	1
741.1990000000	n/a	741199	STATUS	1700	n/a	n/a	1
742.8990000000	n/a	742899	RewardB3	567	n/a	n/a	1
744.5320000000	n/a	744532	RewardCorrB3	1000	n/a	n/a	1
746.5320000000	n/a	746532	STATUS	1700	n/a	n/a	1
748.2320000000	n/a	748232	PenaltyB3	721	n/a	n/a	1
750.0160000000	n/a	750016	NeuCorrB3	1000	n/a	n/a	1
752.0160000000	n/a	752016	STATUS	1700	n/a	n/a	1
753.7160000000	n/a	753716	RewardB3	449	n/a	n/a	1
755.2320000000	n/a	755232	NeuCorrB3	1000	n/a	n/a	1
757.2320000000	n/a	757232	STATUS	1700	n/a	n/a	1
758.9320000000	n/a	758932	PenaltyB3	812	n/a	n/a	1
760.8160000000	n/a	760816	NeuCorrB3	1000	n/a	n/a	1
762.8160000000	n/a	762816	STATUS	1700	n/a	n/a	1
764.5160000000	n/a	764516	RewardB3	701	n/a	n/a	1
766.2820000000	n/a	766282	RewardCorrB3	1000	n/a	n/a	1
768.2820000000	n/a	768282	STATUS	1700	n/a	n/a	1
769.9820000000	n/a	769982	PenaltyB3	702	n/a	n/a	1
771.7490000000	n/a	771749	PunCorrB3	1000	n/a	n/a	1
773.7490000000	n/a	773749	STATUS	1700	n/a	n/a	1
775.4490000000	n/a	775449	PenaltyB3	678	n/a	n/a	1
777.1990000000	n/a	777199	NeuCorrB3	1000	n/a	n/a	1
779.1990000000	n/a	779199	STATUS	1700	n/a	n/a	1
780.8990000000	n/a	780899	PenaltyB3	900	n/a	n/a	1
782.8660000000	n/a	782866	NeuCorrB3	1000	n/a	n/a	1
784.8660000000	n/a	784866	STATUS	1700	n/a	n/a	1
786.5650000000	n/a	786565	PenaltyB3	604	n/a	n/a	0
788.2320000000	n/a	788232	PunIncorrB3	1000	n/a	n/a	1
790.2320000000	n/a	790232	STATUS	1700	n/a	n/a	1
791.9320000000	n/a	791932	RewardB3	543	n/a	n/a	1
793.5490000000	n/a	793549	RewardCorrB3	1000	n/a	n/a	1
795.5490000000	n/a	795549	STATUS	1700	n/a	n/a	1
797.2490000000	n/a	797249	RewardB3	599	n/a	n/a	1
798.9150000000	n/a	798915	RewardCorrB3	1000	n/a	n/a	1
800.9160000000	n/a	800916	STATUS	1700	n/a	n/a	1
802.6150000000	n/a	802615	PenaltyB3	845	n/a	n/a	1
804.5320000000	n/a	804532	NeuCorrB3	1000	n/a	n/a	1
806.5320000000	n/a	806532	STATUS	1700	n/a	n/a	1
808.2320000000	n/a	808232	PenaltyB3	749	n/a	n/a	1
810.0490000000	n/a	810049	NeuCorrB3	1000	n/a	n/a	1
812.0490000000	n/a	812049	STATUS	1700	n/a	n/a	1
813.7490000000	n/a	813749	PenaltyB3	604	n/a	n/a	1
815.4150000000	n/a	815415	NeuCorrB3	1000	n/a	n/a	1
817.4160000000	n/a	817416	STATUS	1700	n/a	n/a	1
821.2490000000	n/a	821249	RewardB4	787	n/a	n/a	1
823.0990000000	n/a	823099	RewardCorrB4	1000	n/a	n/a	1
825.0990000000	n/a	825099	STATUS	1700	n/a	n/a	1
826.7990000000	n/a	826799	PenaltyB4	1051	n/a	n/a	1
828.9150000000	n/a	828915	PunCorrB4	1000	n/a	n/a	1
830.9150000000	n/a	830915	STATUS	1700	n/a	n/a	1
832.6150000000	n/a	832615	RewardB4	651	n/a	n/a	1
834.3320000000	n/a	834332	RewardCorrB4	1000	n/a	n/a	1
836.3320000000	n/a	836332	STATUS	1700	n/a	n/a	1
838.0320000000	n/a	838032	PenaltyB4	1046	n/a	n/a	1
840.1490000000	n/a	840149	NeuCorrB4	1000	n/a	n/a	1
842.1490000000	n/a	842149	STATUS	1700	n/a	n/a	1
843.8490000000	n/a	843849	RewardB4	584	n/a	n/a	1
845.4990000000	n/a	845499	RewardCorrB4	1000	n/a	n/a	1
847.4990000000	n/a	847499	STATUS	1700	n/a	n/a	1
849.1990000000	n/a	849199	PenaltyB4	1668	n/a	n/a	1
851.9320000000	n/a	851932	PunCorrB4	1000	n/a	n/a	1
853.9320000000	n/a	853932	STATUS	1700	n/a	n/a	1
855.6320000000	n/a	855632	PenaltyB4	712	n/a	n/a	1
857.4150000000	n/a	857415	NeuCorrB4	1000	n/a	n/a	1
859.4150000000	n/a	859415	STATUS	1700	n/a	n/a	1
861.1150000000	n/a	861115	RewardB4	783	n/a	n/a	1
862.9650000000	n/a	862965	RewardCorrB4	1000	n/a	n/a	1
864.9650000000	n/a	864965	STATUS	1700	n/a	n/a	1
866.6650000000	n/a	866665	PenaltyB4	712	n/a	n/a	1
868.4490000000	n/a	868449	NeuCorrB4	1000	n/a	n/a	1
870.4490000000	n/a	870449	STATUS	1700	n/a	n/a	1
872.1490000000	n/a	872149	RewardB4	543	n/a	n/a	1
873.7650000000	n/a	873765	NeuCorrB4	1000	n/a	n/a	1
875.7650000000	n/a	875765	STATUS	1700	n/a	n/a	1
877.4650000000	n/a	877465	PenaltyB4	809	n/a	n/a	1
879.3490000000	n/a	879349	NeuCorrB4	1000	n/a	n/a	1
881.3490000000	n/a	881349	STATUS	1700	n/a	n/a	1
883.0490000000	n/a	883049	RewardB4	705	n/a	n/a	1
884.8320000000	n/a	884832	RewardCorrB4	1000	n/a	n/a	1
886.8320000000	n/a	886832	STATUS	1700	n/a	n/a	1
888.5320000000	n/a	888532	PenaltyB4	678	n/a	n/a	1
890.2820000000	n/a	890282	NeuCorrB4	1000	n/a	n/a	1
892.2820000000	n/a	892282	STATUS	1700	n/a	n/a	1
893.9820000000	n/a	893982	PenaltyB4	745	n/a	n/a	1
895.7990000000	n/a	895799	NeuCorrB4	1000	n/a	n/a	1
897.7990000000	n/a	897799	STATUS	1700	n/a	n/a	1
899.4990000000	n/a	899499	RewardB4	581	n/a	n/a	1
901.1490000000	n/a	901149	RewardCorrB4	1000	n/a	n/a	1
903.1490000000	n/a	903149	STATUS	1700	n/a	n/a	1
904.8490000000	n/a	904849	RewardB4	540	n/a	n/a	1
906.4650000000	n/a	906465	NeuCorrB4	1000	n/a	n/a	1
908.4650000000	n/a	908465	STATUS	1700	n/a	n/a	1
910.1650000000	n/a	910165	RewardB4	814	n/a	n/a	1
912.0490000000	n/a	912049	RewardCorrB4	1000	n/a	n/a	1
914.0490000000	n/a	914049	STATUS	1700	n/a	n/a	1
915.7490000000	n/a	915749	PenaltyB4	676	n/a	n/a	1
917.4990000000	n/a	917499	NeuCorrB4	1000	n/a	n/a	1
919.4990000000	n/a	919499	STATUS	1700	n/a	n/a	1
921.1990000000	n/a	921199	PenaltyB4	1503	n/a	n/a	1
923.7650000000	n/a	923765	NeuCorrB4	1000	n/a	n/a	1
925.7650000000	n/a	925765	STATUS	1700	n/a	n/a	1
927.4650000000	n/a	927465	PenaltyB4	551	n/a	n/a	1
929.0820000000	n/a	929082	PunCorrB4	1000	n/a	n/a	1
931.0820000000	n/a	931082	STATUS	1700	n/a	n/a	1
932.7820000000	n/a	932782	RewardB4	576	n/a	n/a	1
934.4320000000	n/a	934432	RewardCorrB4	1000	n/a	n/a	1
936.4320000000	n/a	936432	STATUS	1700	n/a	n/a	1
938.1320000000	n/a	938132	PenaltyB4	565	n/a	n/a	1
939.7650000000	n/a	939765	NeuCorrB4	1000	n/a	n/a	1
941.7650000000	n/a	941765	STATUS	1700	n/a	n/a	1
943.4650000000	n/a	943465	RewardB4	596	n/a	n/a	1
945.1320000000	n/a	945132	RewardCorrB4	1000	n/a	n/a	1
947.1320000000	n/a	947132	STATUS	1700	n/a	n/a	1
948.8320000000	n/a	948832	PenaltyB4	666	n/a	n/a	1
950.5650000000	n/a	950565	NeuCorrB4	1000	n/a	n/a	1
952.5650000000	n/a	952565	STATUS	1700	n/a	n/a	1
954.2650000000	n/a	954265	RewardB4	1336	n/a	n/a	1
956.6650000000	n/a	956665	NeuCorrB4	1000	n/a	n/a	1
958.6650000000	n/a	958665	STATUS	1700	n/a	n/a	1
960.3650000000	n/a	960365	PenaltyB4	815	n/a	n/a	1
962.2490000000	n/a	962249	NeuCorrB4	1000	n/a	n/a	1
964.2490000000	n/a	964249	STATUS	1700	n/a	n/a	1
965.9490000000	n/a	965949	RewardB4	724	n/a	n/a	1
967.7490000000	n/a	967749	RewardCorrB4	1000	n/a	n/a	1
969.7490000000	n/a	969749	STATUS	1700	n/a	n/a	1
971.4490000000	n/a	971449	PenaltyB4	626	n/a	n/a	1
973.1480000000	n/a	973148	NeuCorrB4	1000	n/a	n/a	1
975.1490000000	n/a	975149	STATUS	1700	n/a	n/a	1
976.8480000000	n/a	976848	RewardB4	594	n/a	n/a	1
978.5150000000	n/a	978515	RewardCorrB4	1000	n/a	n/a	1
980.5150000000	n/a	980515	STATUS	1700	n/a	n/a	1
982.2150000000	n/a	982215	PenaltyB4	707	n/a	n/a	1
983.9980000000	n/a	983998	PunCorrB4	1000	n/a	n/a	1
985.9990000000	n/a	985999	STATUS	1700	n/a	n/a	1
987.6980000000	n/a	987698	RewardB4	1364	n/a	n/a	1
990.1320000000	n/a	990132	RewardCorrB4	1000	n/a	n/a	1
992.1320000000	n/a	992132	STATUS	1700	n/a	n/a	1
993.8320000000	n/a	993832	PenaltyB4	1363	n/a	n/a	1
996.2650000000	n/a	996265	NeuCorrB4	1000	n/a	n/a	1
998.2650000000	n/a	998265	STATUS	1700	n/a	n/a	1
999.9650000000	n/a	999965	RewardB4	1008	n/a	n/a	1
1002.0480000000	n/a	1002048	RewardCorrB4	1000	n/a	n/a	1
1004.0490000000	n/a	1004049	STATUS	1700	n/a	n/a	1
1005.7480000000	n/a	1005748	PenaltyB4	658	n/a	n/a	1
1007.4820000000	n/a	1007482	NeuCorrB4	1000	n/a	n/a	1
1009.4820000000	n/a	1009482	STATUS	1700	n/a	n/a	1
1011.1820000000	n/a	1011182	RewardB4	675	n/a	n/a	1
1012.9320000000	n/a	1012932	RewardCorrB4	1000	n/a	n/a	1
1014.9320000000	n/a	1014932	STATUS	1700	n/a	n/a	1
1016.6320000000	n/a	1016632	PenaltyB4	3397	n/a	n/a	1
1021.0980000000	n/a	1021098	NeuCorrB4	1000	n/a	n/a	1
1023.0980000000	n/a	1023098	STATUS	1700	n/a	n/a	1
1024.7980000000	n/a	1024798	RewardB4	637	n/a	n/a	1
1026.4980000000	n/a	1026498	NeuCorrB4	1000	n/a	n/a	1
1028.4980000000	n/a	1028498	STATUS	1700	n/a	n/a	1
1030.1980000000	n/a	1030198	RewardB4	550	n/a	n/a	1
1031.8150000000	n/a	1031815	RewardCorrB4	1000	n/a	n/a	1
1033.8150000000	n/a	1033815	STATUS	1700	n/a	n/a	1
1035.5150000000	n/a	1035515	PenaltyB4	693	n/a	n/a	1
1037.2820000000	n/a	1037282	NeuCorrB4	1000	n/a	n/a	1
1039.2820000000	n/a	1039282	STATUS	1700	n/a	n/a	1
1040.9820000000	n/a	1040982	RewardB4	538	n/a	n/a	1
1042.5820000000	n/a	1042582	RewardCorrB4	1000	n/a	n/a	1
1044.5820000000	n/a	1044582	STATUS	1700	n/a	n/a	1
1049.4980000000	n/a	1049498	STATUS	1700	n/a	n/a	1
