onset	duration	sample	trial_type	response_time	stim_file	value	correct
3.3570000000	n/a	3357	FrequentFixedSOA	1633	n/a	n/a	1
4.9900000000	n/a	4990	FrequentFixedSOA	1633	n/a	n/a	1
6.6240000000	n/a	6624	FrequentFixedSOA	1633	n/a	n/a	1
8.2570000000	n/a	8257	FrequentFixedSOA	1633	n/a	n/a	1
9.8900000000	n/a	9890	FrequentFixedSOA	1633	n/a	n/a	1
11.5240000000	n/a	11524	FrequentFixedSOA	1633	n/a	n/a	1
13.1570000000	n/a	13157	FrequentFixedSOA	1633	n/a	n/a	1
14.7900000000	n/a	14790	FrequentFixedSOA	1633	n/a	n/a	1
16.4240000000	n/a	16424	FrequentFixedSOA	1633	n/a	n/a	1
18.0570000000	n/a	18057	FrequentFixedSOA	1633	n/a	n/a	1
19.6900000000	n/a	19690	NovelFixedSOA	356	n/a	n/a	0
21.3240000000	n/a	21324	FrequentFixedSOA	1633	n/a	n/a	1
22.9570000000	n/a	22957	GoFixedSOA	446	n/a	n/a	1
24.5900000000	n/a	24590	FrequentFixedSOA	1633	n/a	n/a	1
26.2240000000	n/a	26224	FrequentFixedSOA	1633	n/a	n/a	1
27.8570000000	n/a	27857	FrequentFixedSOA	1633	n/a	n/a	1
29.4900000000	n/a	29490	GoFixedSOA	428	n/a	n/a	1
31.1240000000	n/a	31124	FrequentFixedSOA	1633	n/a	n/a	1
32.7570000000	n/a	32757	FrequentFixedSOA	1633	n/a	n/a	1
34.3900000000	n/a	34390	FrequentFixedSOA	1633	n/a	n/a	1
36.0240000000	n/a	36024	NovelFixedSOA	1633	n/a	n/a	1
37.6570000000	n/a	37657	FrequentFixedSOA	1633	n/a	n/a	1
39.2900000000	n/a	39290	FrequentFixedSOA	1633	n/a	n/a	1
40.9240000000	n/a	40924	FrequentFixedSOA	1633	n/a	n/a	1
42.5570000000	n/a	42557	GoFixedSOA	364	n/a	n/a	1
44.1900000000	n/a	44190	FrequentFixedSOA	1633	n/a	n/a	1
45.8240000000	n/a	45824	NovelFixedSOA	1633	n/a	n/a	1
47.4570000000	n/a	47457	FrequentFixedSOA	1633	n/a	n/a	1
49.0900000000	n/a	49090	FrequentFixedSOA	1633	n/a	n/a	1
50.7240000000	n/a	50724	FrequentFixedSOA	1633	n/a	n/a	1
52.3570000000	n/a	52357	GoFixedSOA	377	n/a	n/a	1
53.9900000000	n/a	53990	FrequentFixedSOA	1633	n/a	n/a	1
55.6240000000	n/a	55624	GoFixedSOA	417	n/a	n/a	1
57.2570000000	n/a	57257	FrequentFixedSOA	1633	n/a	n/a	1
58.8900000000	n/a	58890	FrequentFixedSOA	1633	n/a	n/a	1
60.5240000000	n/a	60524	GoFixedSOA	361	n/a	n/a	1
62.1570000000	n/a	62157	FrequentFixedSOA	1633	n/a	n/a	1
63.7900000000	n/a	63790	FrequentFixedSOA	1633	n/a	n/a	1
65.4240000000	n/a	65424	FrequentFixedSOA	1633	n/a	n/a	1
67.0570000000	n/a	67057	FrequentFixedSOA	1633	n/a	n/a	1
68.6900000000	n/a	68690	NovelFixedSOA	1633	n/a	n/a	1
70.3240000000	n/a	70324	FrequentFixedSOA	1633	n/a	n/a	1
71.9570000000	n/a	71957	NovelFixedSOA	1633	n/a	n/a	1
73.5900000000	n/a	73590	FrequentFixedSOA	1633	n/a	n/a	1
75.2240000000	n/a	75224	FrequentFixedSOA	1633	n/a	n/a	1
76.8570000000	n/a	76857	GoFixedSOA	328	n/a	n/a	1
78.4900000000	n/a	78490	FrequentFixedSOA	1633	n/a	n/a	1
80.1240000000	n/a	80124	FrequentFixedSOA	1633	n/a	n/a	1
81.7570000000	n/a	81757	FrequentFixedSOA	1633	n/a	n/a	1
83.3900000000	n/a	83390	FrequentFixedSOA	1633	n/a	n/a	1
85.0240000000	n/a	85024	NovelFixedSOA	1633	n/a	n/a	1
86.6570000000	n/a	86657	FrequentFixedSOA	1633	n/a	n/a	1
88.2900000000	n/a	88290	FrequentFixedSOA	1633	n/a	n/a	1
89.9240000000	n/a	89924	FrequentFixedSOA	1633	n/a	n/a	1
91.5570000000	n/a	91557	FrequentFixedSOA	1633	n/a	n/a	1
93.1900000000	n/a	93190	GoFixedSOA	367	n/a	n/a	1
94.8240000000	n/a	94824	FrequentFixedSOA	1633	n/a	n/a	1
96.4570000000	n/a	96457	FrequentFixedSOA	1633	n/a	n/a	1
98.0900000000	n/a	98090	NovelFixedSOA	1633	n/a	n/a	1
99.7240000000	n/a	99724	FrequentFixedSOA	1633	n/a	n/a	1
101.3570000000	n/a	101357	FrequentFixedSOA	1633	n/a	n/a	1
102.9900000000	n/a	102990	GoFixedSOA	349	n/a	n/a	1
104.6240000000	n/a	104624	FrequentFixedSOA	1633	n/a	n/a	1
106.2570000000	n/a	106257	FrequentFixedSOA	1633	n/a	n/a	1
107.8900000000	n/a	107890	FrequentFixedSOA	1633	n/a	n/a	1
109.5240000000	n/a	109524	FrequentFixedSOA	1633	n/a	n/a	1
111.1570000000	n/a	111157	NovelFixedSOA	1633	n/a	n/a	1
112.7900000000	n/a	112790	FrequentFixedSOA	1633	n/a	n/a	1
114.4240000000	n/a	114424	FrequentFixedSOA	1633	n/a	n/a	1
116.0570000000	n/a	116057	GoFixedSOA	369	n/a	n/a	1
117.6900000000	n/a	117690	FrequentVariableSOA	1783	n/a	n/a	1
119.4740000000	n/a	119474	FrequentVariableSOA	1750	n/a	n/a	1
121.2240000000	n/a	121224	FrequentVariableSOA	1666	n/a	n/a	1
122.8900000000	n/a	122890	FrequentVariableSOA	1783	n/a	n/a	1
124.6740000000	n/a	124674	FrequentVariableSOA	1566	n/a	n/a	1
126.2400000000	n/a	126240	FrequentVariableSOA	1516	n/a	n/a	1
127.7570000000	n/a	127757	FrequentVariableSOA	1600	n/a	n/a	1
129.3570000000	n/a	129357	FrequentVariableSOA	1716	n/a	n/a	1
131.0740000000	n/a	131074	FrequentVariableSOA	1666	n/a	n/a	1
132.7400000000	n/a	132740	FrequentVariableSOA	1500	n/a	n/a	1
134.2400000000	n/a	134240	NovelVariableSOA	1700	n/a	n/a	1
135.9400000000	n/a	135940	FrequentVariableSOA	1800	n/a	n/a	1
137.7400000000	n/a	137740	GoVariableSOA	419	n/a	n/a	1
139.3900000000	n/a	139390	FrequentVariableSOA	1516	n/a	n/a	1
140.9070000000	n/a	140907	FrequentVariableSOA	1500	n/a	n/a	1
142.4070000000	n/a	142407	FrequentVariableSOA	1616	n/a	n/a	1
144.0240000000	n/a	144024	GoVariableSOA	337	n/a	n/a	1
145.5400000000	n/a	145540	FrequentVariableSOA	1800	n/a	n/a	1
147.3400000000	n/a	147340	FrequentVariableSOA	1783	n/a	n/a	1
149.1240000000	n/a	149124	FrequentVariableSOA	1716	n/a	n/a	1
150.8400000000	n/a	150840	NovelVariableSOA	1700	n/a	n/a	1
152.5400000000	n/a	152540	FrequentVariableSOA	1533	n/a	n/a	1
154.0740000000	n/a	154074	FrequentVariableSOA	1566	n/a	n/a	1
155.6400000000	n/a	155640	FrequentVariableSOA	1733	n/a	n/a	1
157.3730000000	n/a	157373	GoVariableSOA	365	n/a	n/a	1
159.1070000000	n/a	159107	FrequentVariableSOA	1500	n/a	n/a	1
160.6070000000	n/a	160607	NovelVariableSOA	1533	n/a	n/a	1
162.1400000000	n/a	162140	FrequentVariableSOA	1800	n/a	n/a	1
163.9400000000	n/a	163940	FrequentVariableSOA	1566	n/a	n/a	1
165.5070000000	n/a	165507	FrequentVariableSOA	1700	n/a	n/a	1
167.2070000000	n/a	167207	GoVariableSOA	354	n/a	n/a	1
168.9570000000	n/a	168957	FrequentVariableSOA	1716	n/a	n/a	1
170.6730000000	n/a	170673	GoVariableSOA	426	n/a	n/a	1
172.3900000000	n/a	172390	FrequentVariableSOA	1600	n/a	n/a	1
173.9900000000	n/a	173990	FrequentVariableSOA	1750	n/a	n/a	1
175.7400000000	n/a	175740	GoVariableSOA	340	n/a	n/a	1
177.3400000000	n/a	177340	FrequentVariableSOA	1566	n/a	n/a	1
178.9070000000	n/a	178907	FrequentVariableSOA	1733	n/a	n/a	1
180.6400000000	n/a	180640	FrequentVariableSOA	1683	n/a	n/a	1
182.3230000000	n/a	182323	FrequentVariableSOA	1600	n/a	n/a	1
183.9230000000	n/a	183923	NovelVariableSOA	1683	n/a	n/a	1
185.6070000000	n/a	185607	FrequentVariableSOA	1516	n/a	n/a	1
187.1230000000	n/a	187123	NovelVariableSOA	1600	n/a	n/a	1
188.7230000000	n/a	188723	FrequentVariableSOA	1550	n/a	n/a	1
190.2730000000	n/a	190273	FrequentVariableSOA	1633	n/a	n/a	1
191.9070000000	n/a	191907	GoVariableSOA	312	n/a	n/a	1
193.4400000000	n/a	193440	FrequentVariableSOA	1783	n/a	n/a	1
195.2230000000	n/a	195223	FrequentVariableSOA	1650	n/a	n/a	1
196.8730000000	n/a	196873	FrequentVariableSOA	1783	n/a	n/a	1
198.6570000000	n/a	198657	FrequentVariableSOA	1566	n/a	n/a	1
200.2230000000	n/a	200223	NovelVariableSOA	1633	n/a	n/a	1
201.8570000000	n/a	201857	FrequentVariableSOA	1766	n/a	n/a	1
203.6230000000	n/a	203623	FrequentVariableSOA	1783	n/a	n/a	1
205.4070000000	n/a	205407	FrequentVariableSOA	1733	n/a	n/a	1
207.1400000000	n/a	207140	FrequentVariableSOA	1583	n/a	n/a	1
208.7230000000	n/a	208723	GoVariableSOA	362	n/a	n/a	1
210.3570000000	n/a	210357	FrequentVariableSOA	1600	n/a	n/a	1
211.9570000000	n/a	211957	FrequentVariableSOA	1683	n/a	n/a	1
213.6400000000	n/a	213640	NovelVariableSOA	1633	n/a	n/a	1
215.2730000000	n/a	215273	FrequentVariableSOA	1800	n/a	n/a	1
217.0730000000	n/a	217073	FrequentVariableSOA	1683	n/a	n/a	1
218.7570000000	n/a	218757	GoVariableSOA	408	n/a	n/a	1
220.5570000000	n/a	220557	FrequentVariableSOA	1566	n/a	n/a	1
222.1230000000	n/a	222123	FrequentVariableSOA	1666	n/a	n/a	1
223.7900000000	n/a	223790	FrequentVariableSOA	1733	n/a	n/a	1
225.5230000000	n/a	225523	FrequentVariableSOA	1600	n/a	n/a	1
227.1230000000	n/a	227123	NovelVariableSOA	1616	n/a	n/a	1
228.7400000000	n/a	228740	FrequentVariableSOA	1633	n/a	n/a	1
230.3730000000	n/a	230373	FrequentVariableSOA	1666	n/a	n/a	1
232.0400000000	n/a	232040	GoVariableSOA	355	n/a	n/a	1
233.6900000000	n/a	233690	FrequentFixedSOA	1633	n/a	n/a	1
235.3230000000	n/a	235323	FrequentFixedSOA	1633	n/a	n/a	1
236.9570000000	n/a	236957	FrequentFixedSOA	1633	n/a	n/a	1
238.5900000000	n/a	238590	GoFixedSOA	361	n/a	n/a	1
240.2230000000	n/a	240223	FrequentFixedSOA	1633	n/a	n/a	1
241.8570000000	n/a	241857	FrequentFixedSOA	1633	n/a	n/a	1
243.4900000000	n/a	243490	FrequentFixedSOA	1633	n/a	n/a	1
245.1230000000	n/a	245123	GoFixedSOA	394	n/a	n/a	1
246.7570000000	n/a	246757	FrequentFixedSOA	1633	n/a	n/a	1
248.3900000000	n/a	248390	FrequentFixedSOA	1633	n/a	n/a	1
250.0230000000	n/a	250023	FrequentFixedSOA	1633	n/a	n/a	1
251.6570000000	n/a	251657	NovelFixedSOA	1633	n/a	n/a	1
253.2900000000	n/a	253290	FrequentFixedSOA	1633	n/a	n/a	1
254.9230000000	n/a	254923	NovelFixedSOA	1633	n/a	n/a	1
256.5570000000	n/a	256557	FrequentFixedSOA	1633	n/a	n/a	1
258.1900000000	n/a	258190	FrequentFixedSOA	1633	n/a	n/a	1
259.8230000000	n/a	259823	NovelFixedSOA	1633	n/a	n/a	1
261.4570000000	n/a	261457	FrequentFixedSOA	1633	n/a	n/a	1
263.0900000000	n/a	263090	FrequentFixedSOA	1633	n/a	n/a	1
264.7230000000	n/a	264723	FrequentFixedSOA	1633	n/a	n/a	1
266.3570000000	n/a	266357	FrequentFixedSOA	1633	n/a	n/a	1
267.9900000000	n/a	267990	FrequentFixedSOA	1633	n/a	n/a	1
269.6230000000	n/a	269623	NovelFixedSOA	1633	n/a	n/a	1
271.2570000000	n/a	271257	FrequentFixedSOA	1633	n/a	n/a	1
272.8900000000	n/a	272890	FrequentFixedSOA	1633	n/a	n/a	1
274.5230000000	n/a	274523	FrequentFixedSOA	1633	n/a	n/a	1
276.1570000000	n/a	276157	FrequentFixedSOA	1633	n/a	n/a	1
277.7900000000	n/a	277790	FrequentFixedSOA	1633	n/a	n/a	1
279.4230000000	n/a	279423	GoFixedSOA	428	n/a	n/a	1
281.0570000000	n/a	281057	FrequentFixedSOA	1633	n/a	n/a	1
282.6900000000	n/a	282690	FrequentFixedSOA	1633	n/a	n/a	1
284.3230000000	n/a	284323	GoFixedSOA	424	n/a	n/a	1
285.9570000000	n/a	285957	FrequentFixedSOA	1633	n/a	n/a	1
287.5900000000	n/a	287590	NovelFixedSOA	1633	n/a	n/a	1
289.2230000000	n/a	289223	FrequentFixedSOA	1633	n/a	n/a	1
290.8570000000	n/a	290857	GoFixedSOA	319	n/a	n/a	1
292.4900000000	n/a	292490	FrequentFixedSOA	1633	n/a	n/a	1
294.1230000000	n/a	294123	GoFixedSOA	400	n/a	n/a	1
295.7570000000	n/a	295757	FrequentFixedSOA	1633	n/a	n/a	1
297.3900000000	n/a	297390	FrequentFixedSOA	1633	n/a	n/a	1
299.0230000000	n/a	299023	FrequentFixedSOA	1633	n/a	n/a	1
300.6570000000	n/a	300657	FrequentFixedSOA	1633	n/a	n/a	1
302.2900000000	n/a	302290	GoFixedSOA	319	n/a	n/a	1
303.9230000000	n/a	303923	FrequentFixedSOA	1633	n/a	n/a	1
305.5570000000	n/a	305557	FrequentFixedSOA	1633	n/a	n/a	1
307.1900000000	n/a	307190	FrequentFixedSOA	1633	n/a	n/a	1
308.8230000000	n/a	308823	NovelFixedSOA	1633	n/a	n/a	1
310.4570000000	n/a	310457	FrequentFixedSOA	1633	n/a	n/a	1
312.0900000000	n/a	312090	FrequentFixedSOA	1633	n/a	n/a	1
313.7230000000	n/a	313723	FrequentFixedSOA	1633	n/a	n/a	1
315.3570000000	n/a	315357	FrequentFixedSOA	1633	n/a	n/a	1
316.9900000000	n/a	316990	NovelFixedSOA	1633	n/a	n/a	1
318.6230000000	n/a	318623	FrequentFixedSOA	1633	n/a	n/a	1
320.2570000000	n/a	320257	FrequentFixedSOA	1633	n/a	n/a	1
321.8900000000	n/a	321890	FrequentFixedSOA	1633	n/a	n/a	1
323.5230000000	n/a	323523	FrequentFixedSOA	1633	n/a	n/a	1
325.1570000000	n/a	325157	NovelFixedSOA	1633	n/a	n/a	1
326.7900000000	n/a	326790	FrequentFixedSOA	1633	n/a	n/a	1
328.4230000000	n/a	328423	FrequentFixedSOA	1633	n/a	n/a	1
330.0570000000	n/a	330057	GoFixedSOA	358	n/a	n/a	1
331.6900000000	n/a	331690	FrequentFixedSOA	1633	n/a	n/a	1
333.3230000000	n/a	333323	FrequentFixedSOA	1633	n/a	n/a	1
334.9570000000	n/a	334957	FrequentFixedSOA	1633	n/a	n/a	1
336.5900000000	n/a	336590	FrequentFixedSOA	1633	n/a	n/a	1
338.2230000000	n/a	338223	NovelFixedSOA	1633	n/a	n/a	1
339.8560000000	n/a	339856	FrequentFixedSOA	1633	n/a	n/a	1
341.4900000000	n/a	341490	FrequentFixedSOA	1633	n/a	n/a	1
343.1230000000	n/a	343123	FrequentFixedSOA	1633	n/a	n/a	1
344.7560000000	n/a	344756	FrequentFixedSOA	1633	n/a	n/a	1
346.3900000000	n/a	346390	FrequentFixedSOA	1633	n/a	n/a	1
348.0230000000	n/a	348023	FrequentVariableSOA	1566	n/a	n/a	1
349.5900000000	n/a	349590	FrequentVariableSOA	1616	n/a	n/a	1
351.2060000000	n/a	351206	FrequentVariableSOA	1783	n/a	n/a	1
352.9900000000	n/a	352990	GoVariableSOA	330	n/a	n/a	1
354.6900000000	n/a	354690	FrequentVariableSOA	1516	n/a	n/a	1
356.2060000000	n/a	356206	FrequentVariableSOA	1633	n/a	n/a	1
357.8400000000	n/a	357840	FrequentVariableSOA	1566	n/a	n/a	1
359.4060000000	n/a	359406	GoVariableSOA	354	n/a	n/a	1
361.1900000000	n/a	361190	FrequentVariableSOA	1733	n/a	n/a	1
362.9230000000	n/a	362923	FrequentVariableSOA	1750	n/a	n/a	1
364.6730000000	n/a	364673	FrequentVariableSOA	1550	n/a	n/a	1
366.2230000000	n/a	366223	NovelVariableSOA	1500	n/a	n/a	1
367.7230000000	n/a	367723	FrequentVariableSOA	1716	n/a	n/a	1
369.4400000000	n/a	369440	NovelVariableSOA	1650	n/a	n/a	1
371.0900000000	n/a	371090	FrequentVariableSOA	1516	n/a	n/a	1
372.6060000000	n/a	372606	FrequentVariableSOA	1633	n/a	n/a	1
374.2400000000	n/a	374240	NovelVariableSOA	1683	n/a	n/a	1
375.9230000000	n/a	375923	FrequentVariableSOA	1766	n/a	n/a	1
377.6900000000	n/a	377690	FrequentVariableSOA	1733	n/a	n/a	1
379.4230000000	n/a	379423	FrequentVariableSOA	1566	n/a	n/a	1
380.9900000000	n/a	380990	FrequentVariableSOA	1566	n/a	n/a	1
382.5560000000	n/a	382556	FrequentVariableSOA	1766	n/a	n/a	1
384.3230000000	n/a	384323	NovelVariableSOA	1750	n/a	n/a	1
386.0730000000	n/a	386073	FrequentVariableSOA	1533	n/a	n/a	1
387.6060000000	n/a	387606	FrequentVariableSOA	1516	n/a	n/a	1
389.1230000000	n/a	389123	FrequentVariableSOA	1600	n/a	n/a	1
390.7230000000	n/a	390723	FrequentVariableSOA	1616	n/a	n/a	1
392.3400000000	n/a	392340	FrequentVariableSOA	1583	n/a	n/a	1
393.9230000000	n/a	393923	GoVariableSOA	374	n/a	n/a	1
395.4560000000	n/a	395456	FrequentVariableSOA	1700	n/a	n/a	1
397.1560000000	n/a	397156	FrequentVariableSOA	1616	n/a	n/a	1
398.7730000000	n/a	398773	GoVariableSOA	391	n/a	n/a	1
400.2900000000	n/a	400290	FrequentVariableSOA	1566	n/a	n/a	1
401.8560000000	n/a	401856	NovelVariableSOA	1533	n/a	n/a	1
403.3900000000	n/a	403390	FrequentVariableSOA	1566	n/a	n/a	1
404.9560000000	n/a	404956	GoVariableSOA	378	n/a	n/a	1
406.5060000000	n/a	406506	FrequentVariableSOA	1766	n/a	n/a	1
408.2730000000	n/a	408273	GoVariableSOA	429	n/a	n/a	1
409.9400000000	n/a	409940	FrequentVariableSOA	1616	n/a	n/a	1
411.5560000000	n/a	411556	FrequentVariableSOA	1766	n/a	n/a	1
413.3230000000	n/a	413323	FrequentVariableSOA	1766	n/a	n/a	1
415.0900000000	n/a	415090	FrequentVariableSOA	1683	n/a	n/a	1
416.7730000000	n/a	416773	GoVariableSOA	296	n/a	n/a	1
418.5400000000	n/a	418540	FrequentVariableSOA	1800	n/a	n/a	1
420.3400000000	n/a	420340	FrequentVariableSOA	1550	n/a	n/a	1
421.8900000000	n/a	421890	FrequentVariableSOA	1583	n/a	n/a	1
423.4730000000	n/a	423473	NovelVariableSOA	1583	n/a	n/a	1
425.0560000000	n/a	425056	FrequentVariableSOA	1566	n/a	n/a	1
426.6230000000	n/a	426623	FrequentVariableSOA	1533	n/a	n/a	1
428.1560000000	n/a	428156	FrequentVariableSOA	1733	n/a	n/a	1
429.8900000000	n/a	429890	FrequentVariableSOA	1566	n/a	n/a	1
431.4560000000	n/a	431456	NovelVariableSOA	1733	n/a	n/a	1
433.1900000000	n/a	433190	FrequentVariableSOA	1683	n/a	n/a	1
434.8730000000	n/a	434873	FrequentVariableSOA	1600	n/a	n/a	1
436.4730000000	n/a	436473	FrequentVariableSOA	1566	n/a	n/a	1
438.0400000000	n/a	438040	FrequentVariableSOA	1600	n/a	n/a	1
439.6400000000	n/a	439640	NovelVariableSOA	1766	n/a	n/a	1
441.4060000000	n/a	441406	FrequentVariableSOA	1633	n/a	n/a	1
443.0400000000	n/a	443040	FrequentVariableSOA	1716	n/a	n/a	1
444.7560000000	n/a	444756	GoVariableSOA	477	n/a	n/a	1
446.5230000000	n/a	446523	FrequentVariableSOA	1566	n/a	n/a	1
448.0900000000	n/a	448090	FrequentVariableSOA	1783	n/a	n/a	1
449.8730000000	n/a	449873	FrequentVariableSOA	1616	n/a	n/a	1
451.4900000000	n/a	451490	FrequentVariableSOA	1783	n/a	n/a	1
453.2730000000	n/a	453273	NovelVariableSOA	1566	n/a	n/a	1
454.8400000000	n/a	454840	FrequentVariableSOA	1683	n/a	n/a	1
456.5230000000	n/a	456523	FrequentVariableSOA	1783	n/a	n/a	1
458.3060000000	n/a	458306	FrequentVariableSOA	1583	n/a	n/a	1
459.8900000000	n/a	459890	FrequentVariableSOA	1533	n/a	n/a	1
461.4230000000	n/a	461423	FrequentVariableSOA	1500	n/a	n/a	1
462.9230000000	n/a	462923	GoFixedSOA	367	n/a	n/a	1
464.5560000000	n/a	464556	FrequentFixedSOA	1633	n/a	n/a	1
466.1900000000	n/a	466190	FrequentFixedSOA	1633	n/a	n/a	1
467.8230000000	n/a	467823	FrequentFixedSOA	1633	n/a	n/a	1
469.4560000000	n/a	469456	FrequentFixedSOA	1633	n/a	n/a	1
471.0900000000	n/a	471090	FrequentFixedSOA	1633	n/a	n/a	1
472.7230000000	n/a	472723	FrequentFixedSOA	1633	n/a	n/a	1
474.3560000000	n/a	474356	NovelFixedSOA	1633	n/a	n/a	1
475.9900000000	n/a	475990	FrequentFixedSOA	1633	n/a	n/a	1
477.6230000000	n/a	477623	FrequentFixedSOA	1633	n/a	n/a	1
479.2560000000	n/a	479256	FrequentFixedSOA	1633	n/a	n/a	1
480.8900000000	n/a	480890	NovelFixedSOA	1633	n/a	n/a	1
482.5230000000	n/a	482523	FrequentFixedSOA	1633	n/a	n/a	1
484.1560000000	n/a	484156	GoFixedSOA	383	n/a	n/a	1
485.7900000000	n/a	485790	FrequentFixedSOA	1633	n/a	n/a	1
487.4230000000	n/a	487423	FrequentFixedSOA	1633	n/a	n/a	1
489.0560000000	n/a	489056	GoFixedSOA	429	n/a	n/a	1
490.6900000000	n/a	490690	FrequentFixedSOA	1633	n/a	n/a	1
492.3230000000	n/a	492323	NovelFixedSOA	1633	n/a	n/a	1
493.9560000000	n/a	493956	FrequentFixedSOA	1633	n/a	n/a	1
495.5900000000	n/a	495590	FrequentFixedSOA	1633	n/a	n/a	1
497.2230000000	n/a	497223	FrequentFixedSOA	1633	n/a	n/a	1
498.8560000000	n/a	498856	FrequentFixedSOA	1633	n/a	n/a	1
500.4900000000	n/a	500490	FrequentFixedSOA	1633	n/a	n/a	1
502.1230000000	n/a	502123	GoFixedSOA	326	n/a	n/a	1
503.7560000000	n/a	503756	FrequentFixedSOA	1633	n/a	n/a	1
505.3900000000	n/a	505390	FrequentFixedSOA	1633	n/a	n/a	1
507.0230000000	n/a	507023	NovelFixedSOA	1633	n/a	n/a	1
508.6560000000	n/a	508656	FrequentFixedSOA	1633	n/a	n/a	1
510.2900000000	n/a	510290	FrequentFixedSOA	1633	n/a	n/a	1
511.9230000000	n/a	511923	FrequentFixedSOA	1633	n/a	n/a	1
513.5560000000	n/a	513556	FrequentFixedSOA	1633	n/a	n/a	1
515.1900000000	n/a	515190	FrequentFixedSOA	1633	n/a	n/a	1
516.8230000000	n/a	516823	NovelFixedSOA	1633	n/a	n/a	1
518.4560000000	n/a	518456	FrequentFixedSOA	1633	n/a	n/a	1
520.0890000000	n/a	520089	FrequentFixedSOA	1633	n/a	n/a	1
521.7230000000	n/a	521723	FrequentFixedSOA	1633	n/a	n/a	1
523.3560000000	n/a	523356	FrequentFixedSOA	1633	n/a	n/a	1
524.9890000000	n/a	524989	GoFixedSOA	337	n/a	n/a	1
526.6230000000	n/a	526623	FrequentFixedSOA	1633	n/a	n/a	1
528.2560000000	n/a	528256	FrequentFixedSOA	1633	n/a	n/a	1
529.8890000000	n/a	529889	NovelFixedSOA	1633	n/a	n/a	1
531.5230000000	n/a	531523	FrequentFixedSOA	1633	n/a	n/a	1
533.1560000000	n/a	533156	FrequentFixedSOA	1633	n/a	n/a	1
534.7890000000	n/a	534789	NovelFixedSOA	1633	n/a	n/a	1
536.4230000000	n/a	536423	FrequentFixedSOA	1633	n/a	n/a	1
538.0560000000	n/a	538056	FrequentFixedSOA	1633	n/a	n/a	1
539.6890000000	n/a	539689	FrequentFixedSOA	1633	n/a	n/a	1
541.3230000000	n/a	541323	FrequentFixedSOA	1633	n/a	n/a	1
542.9560000000	n/a	542956	FrequentFixedSOA	1633	n/a	n/a	1
544.5890000000	n/a	544589	GoFixedSOA	309	n/a	n/a	1
546.2230000000	n/a	546223	FrequentFixedSOA	1633	n/a	n/a	1
547.8560000000	n/a	547856	FrequentFixedSOA	1633	n/a	n/a	1
549.4890000000	n/a	549489	FrequentFixedSOA	1633	n/a	n/a	1
551.1230000000	n/a	551123	FrequentFixedSOA	1633	n/a	n/a	1
552.7560000000	n/a	552756	FrequentFixedSOA	1633	n/a	n/a	1
554.3890000000	n/a	554389	NovelFixedSOA	1633	n/a	n/a	1
556.0230000000	n/a	556023	FrequentFixedSOA	1633	n/a	n/a	1
557.6560000000	n/a	557656	GoFixedSOA	345	n/a	n/a	1
559.2890000000	n/a	559289	FrequentFixedSOA	1633	n/a	n/a	1
560.9230000000	n/a	560923	FrequentFixedSOA	1633	n/a	n/a	1
562.5560000000	n/a	562556	FrequentFixedSOA	1633	n/a	n/a	1
564.1890000000	n/a	564189	FrequentFixedSOA	1633	n/a	n/a	1
565.8230000000	n/a	565823	FrequentFixedSOA	1633	n/a	n/a	1
567.4560000000	n/a	567456	FrequentFixedSOA	1633	n/a	n/a	1
569.0890000000	n/a	569089	FrequentFixedSOA	1633	n/a	n/a	1
570.7230000000	n/a	570723	FrequentFixedSOA	1633	n/a	n/a	1
572.3560000000	n/a	572356	NovelFixedSOA	1633	n/a	n/a	1
573.9890000000	n/a	573989	FrequentFixedSOA	1633	n/a	n/a	1
575.6230000000	n/a	575623	FrequentFixedSOA	1633	n/a	n/a	1
577.2560000000	n/a	577256	GoVariableSOA	403	n/a	n/a	1
578.7890000000	n/a	578789	FrequentVariableSOA	1516	n/a	n/a	1
580.3060000000	n/a	580306	FrequentVariableSOA	1583	n/a	n/a	1
581.8890000000	n/a	581889	FrequentVariableSOA	1600	n/a	n/a	1
583.4890000000	n/a	583489	FrequentVariableSOA	1583	n/a	n/a	1
585.0730000000	n/a	585073	FrequentVariableSOA	1800	n/a	n/a	1
586.8730000000	n/a	586873	FrequentVariableSOA	1683	n/a	n/a	1
588.5560000000	n/a	588556	NovelVariableSOA	1583	n/a	n/a	1
590.1390000000	n/a	590139	FrequentVariableSOA	1633	n/a	n/a	1
591.7730000000	n/a	591773	FrequentVariableSOA	1783	n/a	n/a	1
593.5560000000	n/a	593556	FrequentVariableSOA	1566	n/a	n/a	1
595.1230000000	n/a	595123	NovelVariableSOA	1783	n/a	n/a	1
596.9060000000	n/a	596906	FrequentVariableSOA	1666	n/a	n/a	1
598.5730000000	n/a	598573	GoVariableSOA	361	n/a	n/a	1
600.2560000000	n/a	600256	FrequentVariableSOA	1500	n/a	n/a	1
601.7560000000	n/a	601756	FrequentVariableSOA	1633	n/a	n/a	1
603.3890000000	n/a	603389	GoVariableSOA	394	n/a	n/a	1
605.0560000000	n/a	605056	FrequentVariableSOA	1666	n/a	n/a	1
606.7230000000	n/a	606723	NovelVariableSOA	1533	n/a	n/a	1
608.2560000000	n/a	608256	FrequentVariableSOA	1583	n/a	n/a	1
609.8390000000	n/a	609839	FrequentVariableSOA	1750	n/a	n/a	1
611.5890000000	n/a	611589	FrequentVariableSOA	1566	n/a	n/a	1
613.1560000000	n/a	613156	FrequentVariableSOA	1766	n/a	n/a	1
614.9230000000	n/a	614923	FrequentVariableSOA	1683	n/a	n/a	1
616.6060000000	n/a	616606	GoVariableSOA	359	n/a	n/a	1
618.2560000000	n/a	618256	FrequentVariableSOA	1633	n/a	n/a	1
619.8890000000	n/a	619889	FrequentVariableSOA	1700	n/a	n/a	1
621.5890000000	n/a	621589	NovelVariableSOA	1583	n/a	n/a	1
623.1730000000	n/a	623173	FrequentVariableSOA	1666	n/a	n/a	1
624.8390000000	n/a	624839	FrequentVariableSOA	1783	n/a	n/a	1
626.6230000000	n/a	626623	FrequentVariableSOA	1566	n/a	n/a	1
628.1890000000	n/a	628189	FrequentVariableSOA	1716	n/a	n/a	1
629.9060000000	n/a	629906	FrequentVariableSOA	1733	n/a	n/a	1
631.6390000000	n/a	631639	NovelVariableSOA	1566	n/a	n/a	1
633.2060000000	n/a	633206	FrequentVariableSOA	1633	n/a	n/a	1
634.8390000000	n/a	634839	FrequentVariableSOA	1600	n/a	n/a	1
636.4390000000	n/a	636439	FrequentVariableSOA	1616	n/a	n/a	1
638.0560000000	n/a	638056	FrequentVariableSOA	1533	n/a	n/a	1
639.5890000000	n/a	639589	GoVariableSOA	364	n/a	n/a	1
641.3230000000	n/a	641323	FrequentVariableSOA	1583	n/a	n/a	1
642.9060000000	n/a	642906	FrequentVariableSOA	1733	n/a	n/a	1
644.6390000000	n/a	644639	NovelVariableSOA	1616	n/a	n/a	1
646.2560000000	n/a	646256	FrequentVariableSOA	1533	n/a	n/a	1
647.7890000000	n/a	647789	FrequentVariableSOA	1533	n/a	n/a	1
649.3230000000	n/a	649323	NovelVariableSOA	1716	n/a	n/a	1
651.0390000000	n/a	651039	FrequentVariableSOA	1583	n/a	n/a	1
652.6230000000	n/a	652623	FrequentVariableSOA	1766	n/a	n/a	1
654.3890000000	n/a	654389	FrequentVariableSOA	1800	n/a	n/a	1
656.1890000000	n/a	656189	FrequentVariableSOA	1800	n/a	n/a	1
657.9890000000	n/a	657989	FrequentVariableSOA	1683	n/a	n/a	1
659.6730000000	n/a	659673	GoVariableSOA	361	n/a	n/a	1
661.3390000000	n/a	661339	FrequentVariableSOA	1566	n/a	n/a	1
662.9060000000	n/a	662906	FrequentVariableSOA	1750	n/a	n/a	1
664.6560000000	n/a	664656	FrequentVariableSOA	1633	n/a	n/a	1
666.2890000000	n/a	666289	FrequentVariableSOA	1666	n/a	n/a	1
667.9560000000	n/a	667956	FrequentVariableSOA	1683	n/a	n/a	1
669.6390000000	n/a	669639	NovelVariableSOA	1516	n/a	n/a	1
671.1560000000	n/a	671156	FrequentVariableSOA	1683	n/a	n/a	1
672.8390000000	n/a	672839	GoVariableSOA	351	n/a	n/a	1
674.4730000000	n/a	674473	FrequentVariableSOA	1600	n/a	n/a	1
676.0730000000	n/a	676073	FrequentVariableSOA	1616	n/a	n/a	1
677.6890000000	n/a	677689	FrequentVariableSOA	1583	n/a	n/a	1
679.2730000000	n/a	679273	FrequentVariableSOA	1716	n/a	n/a	1
680.9890000000	n/a	680989	FrequentVariableSOA	1516	n/a	n/a	1
682.5060000000	n/a	682506	FrequentVariableSOA	1600	n/a	n/a	1
684.1060000000	n/a	684106	FrequentVariableSOA	1566	n/a	n/a	1
685.6730000000	n/a	685673	FrequentVariableSOA	1733	n/a	n/a	1
687.4060000000	n/a	687406	NovelVariableSOA	1516	n/a	n/a	1
688.9230000000	n/a	688923	FrequentVariableSOA	1550	n/a	n/a	1
690.4730000000	n/a	690473	FrequentVariableSOA	1733	n/a	n/a	1
692.2060000000	n/a	692206	GoFixedSOA	344	n/a	n/a	1
693.8390000000	n/a	693839	FrequentFixedSOA	1633	n/a	n/a	1
695.4730000000	n/a	695473	FrequentFixedSOA	1633	n/a	n/a	1
697.1060000000	n/a	697106	FrequentFixedSOA	1633	n/a	n/a	1
698.7390000000	n/a	698739	GoFixedSOA	456	n/a	n/a	1
700.3720000000	n/a	700372	FrequentFixedSOA	1633	n/a	n/a	1
702.0060000000	n/a	702006	FrequentFixedSOA	1633	n/a	n/a	1
703.6390000000	n/a	703639	FrequentFixedSOA	1633	n/a	n/a	1
705.2720000000	n/a	705272	FrequentFixedSOA	1633	n/a	n/a	1
706.9060000000	n/a	706906	GoFixedSOA	315	n/a	n/a	1
708.5390000000	n/a	708539	FrequentFixedSOA	1633	n/a	n/a	1
710.1720000000	n/a	710172	FrequentFixedSOA	1633	n/a	n/a	1
711.8060000000	n/a	711806	NovelFixedSOA	1633	n/a	n/a	1
713.4390000000	n/a	713439	FrequentFixedSOA	1633	n/a	n/a	1
715.0720000000	n/a	715072	FrequentFixedSOA	1633	n/a	n/a	1
716.7060000000	n/a	716706	GoFixedSOA	328	n/a	n/a	1
718.3390000000	n/a	718339	FrequentFixedSOA	1633	n/a	n/a	1
719.9720000000	n/a	719972	FrequentFixedSOA	1633	n/a	n/a	1
721.6060000000	n/a	721606	FrequentFixedSOA	1633	n/a	n/a	1
723.2390000000	n/a	723239	NovelFixedSOA	1633	n/a	n/a	1
724.8720000000	n/a	724872	FrequentFixedSOA	1633	n/a	n/a	1
726.5060000000	n/a	726506	NovelFixedSOA	1633	n/a	n/a	1
728.1390000000	n/a	728139	FrequentFixedSOA	1633	n/a	n/a	1
729.7720000000	n/a	729772	FrequentFixedSOA	1633	n/a	n/a	1
731.4060000000	n/a	731406	FrequentFixedSOA	1633	n/a	n/a	1
733.0390000000	n/a	733039	GoFixedSOA	398	n/a	n/a	1
734.6720000000	n/a	734672	FrequentFixedSOA	1633	n/a	n/a	1
736.3060000000	n/a	736306	FrequentFixedSOA	1633	n/a	n/a	1
737.9390000000	n/a	737939	FrequentFixedSOA	1633	n/a	n/a	1
739.5720000000	n/a	739572	GoFixedSOA	339	n/a	n/a	1
741.2060000000	n/a	741206	FrequentFixedSOA	1633	n/a	n/a	1
742.8390000000	n/a	742839	FrequentFixedSOA	1633	n/a	n/a	1
744.4720000000	n/a	744472	NovelFixedSOA	1633	n/a	n/a	1
746.1060000000	n/a	746106	FrequentFixedSOA	1633	n/a	n/a	1
747.7390000000	n/a	747739	GoFixedSOA	315	n/a	n/a	1
749.3720000000	n/a	749372	FrequentFixedSOA	1633	n/a	n/a	1
751.0060000000	n/a	751006	FrequentFixedSOA	1633	n/a	n/a	1
752.6390000000	n/a	752639	FrequentFixedSOA	1633	n/a	n/a	1
754.2720000000	n/a	754272	FrequentFixedSOA	1633	n/a	n/a	1
755.9060000000	n/a	755906	FrequentFixedSOA	1633	n/a	n/a	1
757.5390000000	n/a	757539	FrequentFixedSOA	1633	n/a	n/a	1
759.1720000000	n/a	759172	NovelFixedSOA	1633	n/a	n/a	1
760.8060000000	n/a	760806	FrequentFixedSOA	1633	n/a	n/a	1
762.4390000000	n/a	762439	FrequentFixedSOA	1633	n/a	n/a	1
764.0720000000	n/a	764072	FrequentFixedSOA	1633	n/a	n/a	1
765.7060000000	n/a	765706	GoFixedSOA	414	n/a	n/a	1
767.3390000000	n/a	767339	FrequentFixedSOA	1633	n/a	n/a	1
768.9720000000	n/a	768972	FrequentFixedSOA	1633	n/a	n/a	1
770.6060000000	n/a	770606	FrequentFixedSOA	1633	n/a	n/a	1
772.2390000000	n/a	772239	FrequentFixedSOA	1633	n/a	n/a	1
773.8720000000	n/a	773872	NovelFixedSOA	1633	n/a	n/a	1
775.5060000000	n/a	775506	FrequentFixedSOA	1633	n/a	n/a	1
777.1390000000	n/a	777139	FrequentFixedSOA	1633	n/a	n/a	1
778.7720000000	n/a	778772	NovelFixedSOA	1633	n/a	n/a	1
780.4060000000	n/a	780406	FrequentFixedSOA	1633	n/a	n/a	1
782.0390000000	n/a	782039	NovelFixedSOA	1633	n/a	n/a	1
783.6720000000	n/a	783672	FrequentFixedSOA	1633	n/a	n/a	1
785.3060000000	n/a	785306	FrequentFixedSOA	1633	n/a	n/a	1
786.9390000000	n/a	786939	FrequentFixedSOA	1633	n/a	n/a	1
788.5720000000	n/a	788572	FrequentFixedSOA	1633	n/a	n/a	1
790.2060000000	n/a	790206	FrequentFixedSOA	1633	n/a	n/a	1
791.8390000000	n/a	791839	FrequentFixedSOA	1633	n/a	n/a	1
793.4720000000	n/a	793472	FrequentFixedSOA	1633	n/a	n/a	1
795.1060000000	n/a	795106	GoFixedSOA	400	n/a	n/a	1
796.7390000000	n/a	796739	FrequentFixedSOA	1633	n/a	n/a	1
798.3720000000	n/a	798372	GoFixedSOA	445	n/a	n/a	1
800.0060000000	n/a	800006	FrequentFixedSOA	1633	n/a	n/a	1
801.6390000000	n/a	801639	FrequentFixedSOA	1633	n/a	n/a	1
803.2720000000	n/a	803272	NovelFixedSOA	1633	n/a	n/a	1
804.9060000000	n/a	804906	FrequentFixedSOA	1633	n/a	n/a	1
806.5390000000	n/a	806539	GoVariableSOA	336	n/a	n/a	1
808.2890000000	n/a	808289	FrequentVariableSOA	1633	n/a	n/a	1
809.9220000000	n/a	809922	FrequentVariableSOA	1716	n/a	n/a	1
811.6390000000	n/a	811639	FrequentVariableSOA	1516	n/a	n/a	1
813.1560000000	n/a	813156	GoVariableSOA	406	n/a	n/a	1
814.8390000000	n/a	814839	FrequentVariableSOA	1533	n/a	n/a	1
816.3720000000	n/a	816372	FrequentVariableSOA	1650	n/a	n/a	1
818.0220000000	n/a	818022	FrequentVariableSOA	1700	n/a	n/a	1
819.7220000000	n/a	819722	FrequentVariableSOA	1783	n/a	n/a	1
821.5060000000	n/a	821506	GoVariableSOA	380	n/a	n/a	1
823.0390000000	n/a	823039	FrequentVariableSOA	1533	n/a	n/a	1
824.5720000000	n/a	824572	FrequentVariableSOA	1516	n/a	n/a	1
826.0890000000	n/a	826089	NovelVariableSOA	1750	n/a	n/a	1
827.8390000000	n/a	827839	FrequentVariableSOA	1733	n/a	n/a	1
829.5720000000	n/a	829572	FrequentVariableSOA	1650	n/a	n/a	1
831.2220000000	n/a	831222	GoVariableSOA	342	n/a	n/a	1
832.7720000000	n/a	832772	FrequentVariableSOA	1766	n/a	n/a	1
834.5390000000	n/a	834539	FrequentVariableSOA	1650	n/a	n/a	1
836.1890000000	n/a	836189	FrequentVariableSOA	1766	n/a	n/a	1
837.9560000000	n/a	837956	NovelVariableSOA	1633	n/a	n/a	1
839.5890000000	n/a	839589	FrequentVariableSOA	1550	n/a	n/a	1
841.1390000000	n/a	841139	NovelVariableSOA	1550	n/a	n/a	1
842.6890000000	n/a	842689	FrequentVariableSOA	1716	n/a	n/a	1
844.4060000000	n/a	844406	FrequentVariableSOA	1766	n/a	n/a	1
846.1720000000	n/a	846172	FrequentVariableSOA	1633	n/a	n/a	1
847.8060000000	n/a	847806	GoVariableSOA	391	n/a	n/a	1
849.3560000000	n/a	849356	FrequentVariableSOA	1783	n/a	n/a	1
851.1390000000	n/a	851139	FrequentVariableSOA	1600	n/a	n/a	1
852.7390000000	n/a	852739	FrequentVariableSOA	1533	n/a	n/a	1
854.2720000000	n/a	854272	GoVariableSOA	374	n/a	n/a	1
856.0560000000	n/a	856056	FrequentVariableSOA	1616	n/a	n/a	1
857.6720000000	n/a	857672	FrequentVariableSOA	1716	n/a	n/a	1
859.3890000000	n/a	859389	NovelVariableSOA	1733	n/a	n/a	1
861.1220000000	n/a	861122	FrequentVariableSOA	1650	n/a	n/a	1
862.7720000000	n/a	862772	GoVariableSOA	342	n/a	n/a	1
864.4060000000	n/a	864406	FrequentVariableSOA	1533	n/a	n/a	1
865.9390000000	n/a	865939	FrequentVariableSOA	1550	n/a	n/a	1
867.4890000000	n/a	867489	FrequentVariableSOA	1750	n/a	n/a	1
869.2390000000	n/a	869239	FrequentVariableSOA	1683	n/a	n/a	1
870.9220000000	n/a	870922	FrequentVariableSOA	1766	n/a	n/a	1
872.6890000000	n/a	872689	FrequentVariableSOA	1800	n/a	n/a	1
874.4890000000	n/a	874489	NovelVariableSOA	1700	n/a	n/a	1
876.1890000000	n/a	876189	FrequentVariableSOA	1750	n/a	n/a	1
877.9390000000	n/a	877939	FrequentVariableSOA	1533	n/a	n/a	1
879.4720000000	n/a	879472	FrequentVariableSOA	1583	n/a	n/a	1
881.0560000000	n/a	881056	GoVariableSOA	328	n/a	n/a	1
882.6720000000	n/a	882672	FrequentVariableSOA	1716	n/a	n/a	1
884.3890000000	n/a	884389	FrequentVariableSOA	1566	n/a	n/a	1
885.9560000000	n/a	885956	FrequentVariableSOA	1666	n/a	n/a	1
887.6220000000	n/a	887622	FrequentVariableSOA	1583	n/a	n/a	1
889.2050000000	n/a	889205	NovelVariableSOA	1566	n/a	n/a	1
890.7720000000	n/a	890772	FrequentVariableSOA	1633	n/a	n/a	1
892.4050000000	n/a	892405	FrequentVariableSOA	1566	n/a	n/a	1
893.9720000000	n/a	893972	NovelVariableSOA	1550	n/a	n/a	1
895.5220000000	n/a	895522	FrequentVariableSOA	1716	n/a	n/a	1
897.2390000000	n/a	897239	NovelVariableSOA	1650	n/a	n/a	1
898.8890000000	n/a	898889	FrequentVariableSOA	1583	n/a	n/a	1
900.4720000000	n/a	900472	FrequentVariableSOA	1633	n/a	n/a	1
902.1050000000	n/a	902105	FrequentVariableSOA	1600	n/a	n/a	1
903.7050000000	n/a	903705	FrequentVariableSOA	1750	n/a	n/a	1
905.4550000000	n/a	905455	FrequentVariableSOA	1516	n/a	n/a	1
906.9720000000	n/a	906972	FrequentVariableSOA	1666	n/a	n/a	1
908.6390000000	n/a	908639	FrequentVariableSOA	1783	n/a	n/a	1
910.4220000000	n/a	910422	GoVariableSOA	407	n/a	n/a	1
912.1890000000	n/a	912189	FrequentVariableSOA	1516	n/a	n/a	1
913.7050000000	n/a	913705	GoVariableSOA	418	n/a	n/a	1
915.4390000000	n/a	915439	FrequentVariableSOA	1566	n/a	n/a	1
917.0050000000	n/a	917005	FrequentVariableSOA	1700	n/a	n/a	1
918.7050000000	n/a	918705	NovelVariableSOA	1766	n/a	n/a	1
920.4720000000	n/a	920472	FrequentVariableSOA	1516	n/a	n/a	1
