onset	duration	sample	trial_type	response_time	stim_file	value	correct
2.8810000000	n/a	2881	FrequentFixedSOA	1633	n/a	n/a	1
4.5140000000	n/a	4514	FrequentFixedSOA	1633	n/a	n/a	1
6.1470000000	n/a	6147	FrequentFixedSOA	1633	n/a	n/a	1
7.7800000000	n/a	7780	FrequentFixedSOA	1633	n/a	n/a	1
9.4140000000	n/a	9414	FrequentFixedSOA	1633	n/a	n/a	1
11.0470000000	n/a	11047	FrequentFixedSOA	1633	n/a	n/a	1
12.6800000000	n/a	12680	FrequentFixedSOA	1633	n/a	n/a	1
14.3140000000	n/a	14314	FrequentFixedSOA	1633	n/a	n/a	1
15.9470000000	n/a	15947	FrequentFixedSOA	1633	n/a	n/a	1
17.5800000000	n/a	17580	FrequentFixedSOA	1633	n/a	n/a	1
19.2140000000	n/a	19214	NovelFixedSOA	1633	n/a	n/a	1
20.8470000000	n/a	20847	FrequentFixedSOA	1633	n/a	n/a	1
22.4800000000	n/a	22480	GoFixedSOA	368	n/a	n/a	1
24.1140000000	n/a	24114	FrequentFixedSOA	1633	n/a	n/a	1
25.7470000000	n/a	25747	FrequentFixedSOA	1633	n/a	n/a	1
27.3800000000	n/a	27380	FrequentFixedSOA	1633	n/a	n/a	1
29.0140000000	n/a	29014	GoFixedSOA	386	n/a	n/a	1
30.6470000000	n/a	30647	FrequentFixedSOA	1633	n/a	n/a	1
32.2800000000	n/a	32280	FrequentFixedSOA	1633	n/a	n/a	1
33.9140000000	n/a	33914	FrequentFixedSOA	1633	n/a	n/a	1
35.5470000000	n/a	35547	NovelFixedSOA	1633	n/a	n/a	1
37.1800000000	n/a	37180	FrequentFixedSOA	1633	n/a	n/a	1
38.8140000000	n/a	38814	FrequentFixedSOA	1633	n/a	n/a	1
40.4470000000	n/a	40447	FrequentFixedSOA	1633	n/a	n/a	1
42.0800000000	n/a	42080	GoFixedSOA	420	n/a	n/a	1
43.7140000000	n/a	43714	FrequentFixedSOA	1633	n/a	n/a	1
45.3470000000	n/a	45347	NovelFixedSOA	1633	n/a	n/a	1
46.9800000000	n/a	46980	FrequentFixedSOA	1633	n/a	n/a	1
48.6140000000	n/a	48614	FrequentFixedSOA	1633	n/a	n/a	1
50.2470000000	n/a	50247	FrequentFixedSOA	1633	n/a	n/a	1
51.8800000000	n/a	51880	GoFixedSOA	363	n/a	n/a	1
53.5140000000	n/a	53514	FrequentFixedSOA	1633	n/a	n/a	1
55.1470000000	n/a	55147	GoFixedSOA	380	n/a	n/a	1
56.7800000000	n/a	56780	FrequentFixedSOA	1633	n/a	n/a	1
58.4140000000	n/a	58414	FrequentFixedSOA	1633	n/a	n/a	1
60.0470000000	n/a	60047	GoFixedSOA	419	n/a	n/a	1
61.6800000000	n/a	61680	FrequentFixedSOA	1633	n/a	n/a	1
63.3140000000	n/a	63314	FrequentFixedSOA	1633	n/a	n/a	1
64.9470000000	n/a	64947	FrequentFixedSOA	1633	n/a	n/a	1
66.5800000000	n/a	66580	FrequentFixedSOA	1633	n/a	n/a	1
68.2140000000	n/a	68214	NovelFixedSOA	1633	n/a	n/a	1
69.8470000000	n/a	69847	FrequentFixedSOA	1633	n/a	n/a	1
71.4800000000	n/a	71480	NovelFixedSOA	1633	n/a	n/a	1
73.1140000000	n/a	73114	FrequentFixedSOA	1633	n/a	n/a	1
74.7470000000	n/a	74747	FrequentFixedSOA	1633	n/a	n/a	1
76.3800000000	n/a	76380	GoFixedSOA	336	n/a	n/a	1
78.0140000000	n/a	78014	FrequentFixedSOA	1633	n/a	n/a	1
79.6470000000	n/a	79647	FrequentFixedSOA	1633	n/a	n/a	1
81.2800000000	n/a	81280	FrequentFixedSOA	1633	n/a	n/a	1
82.9140000000	n/a	82914	FrequentFixedSOA	1633	n/a	n/a	1
84.5470000000	n/a	84547	NovelFixedSOA	1633	n/a	n/a	1
86.1800000000	n/a	86180	FrequentFixedSOA	1633	n/a	n/a	1
87.8140000000	n/a	87814	FrequentFixedSOA	1633	n/a	n/a	1
89.4470000000	n/a	89447	FrequentFixedSOA	1633	n/a	n/a	1
91.0800000000	n/a	91080	FrequentFixedSOA	1633	n/a	n/a	1
92.7140000000	n/a	92714	GoFixedSOA	385	n/a	n/a	1
94.3470000000	n/a	94347	FrequentFixedSOA	1633	n/a	n/a	1
95.9800000000	n/a	95980	FrequentFixedSOA	1633	n/a	n/a	1
97.6140000000	n/a	97614	NovelFixedSOA	1633	n/a	n/a	1
99.2470000000	n/a	99247	FrequentFixedSOA	1633	n/a	n/a	1
100.8800000000	n/a	100880	FrequentFixedSOA	1633	n/a	n/a	1
102.5140000000	n/a	102514	GoFixedSOA	353	n/a	n/a	1
104.1470000000	n/a	104147	FrequentFixedSOA	1633	n/a	n/a	1
105.7800000000	n/a	105780	FrequentFixedSOA	1633	n/a	n/a	1
107.4140000000	n/a	107414	FrequentFixedSOA	1633	n/a	n/a	1
109.0470000000	n/a	109047	FrequentFixedSOA	1633	n/a	n/a	1
110.6800000000	n/a	110680	NovelFixedSOA	1633	n/a	n/a	1
112.3140000000	n/a	112314	FrequentFixedSOA	1633	n/a	n/a	1
113.9470000000	n/a	113947	FrequentFixedSOA	1633	n/a	n/a	1
115.5800000000	n/a	115580	GoFixedSOA	395	n/a	n/a	1
117.2140000000	n/a	117214	FrequentVariableSOA	1700	n/a	n/a	1
118.9140000000	n/a	118914	FrequentVariableSOA	1616	n/a	n/a	1
120.5300000000	n/a	120530	FrequentVariableSOA	1616	n/a	n/a	1
122.1470000000	n/a	122147	FrequentVariableSOA	1566	n/a	n/a	1
123.7140000000	n/a	123714	FrequentVariableSOA	1700	n/a	n/a	1
125.4140000000	n/a	125414	FrequentVariableSOA	1533	n/a	n/a	1
126.9470000000	n/a	126947	FrequentVariableSOA	1600	n/a	n/a	1
128.5470000000	n/a	128547	FrequentVariableSOA	1750	n/a	n/a	1
130.2970000000	n/a	130297	FrequentVariableSOA	1650	n/a	n/a	1
131.9470000000	n/a	131947	FrequentVariableSOA	1650	n/a	n/a	1
133.5970000000	n/a	133597	NovelVariableSOA	1683	n/a	n/a	1
135.2800000000	n/a	135280	FrequentVariableSOA	1550	n/a	n/a	1
136.8300000000	n/a	136830	GoVariableSOA	324	n/a	n/a	1
138.4970000000	n/a	138497	FrequentVariableSOA	1683	n/a	n/a	1
140.1800000000	n/a	140180	FrequentVariableSOA	1516	n/a	n/a	1
141.6970000000	n/a	141697	FrequentVariableSOA	1616	n/a	n/a	1
143.3140000000	n/a	143314	GoVariableSOA	459	n/a	n/a	1
144.8470000000	n/a	144847	FrequentVariableSOA	1516	n/a	n/a	1
146.3640000000	n/a	146364	FrequentVariableSOA	1583	n/a	n/a	1
147.9470000000	n/a	147947	FrequentVariableSOA	1533	n/a	n/a	1
149.4800000000	n/a	149480	NovelVariableSOA	1800	n/a	n/a	1
151.2800000000	n/a	151280	FrequentVariableSOA	1800	n/a	n/a	1
153.0800000000	n/a	153080	FrequentVariableSOA	1583	n/a	n/a	1
154.6640000000	n/a	154664	FrequentVariableSOA	1600	n/a	n/a	1
156.2640000000	n/a	156264	GoVariableSOA	379	n/a	n/a	1
157.7970000000	n/a	157797	FrequentVariableSOA	1600	n/a	n/a	1
159.3970000000	n/a	159397	NovelVariableSOA	1533	n/a	n/a	1
160.9300000000	n/a	160930	FrequentVariableSOA	1516	n/a	n/a	1
162.4470000000	n/a	162447	FrequentVariableSOA	1650	n/a	n/a	1
164.0970000000	n/a	164097	FrequentVariableSOA	1750	n/a	n/a	1
165.8470000000	n/a	165847	GoVariableSOA	341	n/a	n/a	1
167.5300000000	n/a	167530	FrequentVariableSOA	1633	n/a	n/a	1
169.1630000000	n/a	169163	GoVariableSOA	394	n/a	n/a	1
170.6970000000	n/a	170697	FrequentVariableSOA	1700	n/a	n/a	1
172.3970000000	n/a	172397	FrequentVariableSOA	1650	n/a	n/a	1
174.0470000000	n/a	174047	GoVariableSOA	350	n/a	n/a	1
175.6970000000	n/a	175697	FrequentVariableSOA	1666	n/a	n/a	1
177.3630000000	n/a	177363	FrequentVariableSOA	1666	n/a	n/a	1
179.0300000000	n/a	179030	FrequentVariableSOA	1666	n/a	n/a	1
180.6970000000	n/a	180697	FrequentVariableSOA	1583	n/a	n/a	1
182.2800000000	n/a	182280	NovelVariableSOA	1533	n/a	n/a	1
183.8130000000	n/a	183813	FrequentVariableSOA	1700	n/a	n/a	1
185.5130000000	n/a	185513	NovelVariableSOA	1716	n/a	n/a	1
187.2300000000	n/a	187230	FrequentVariableSOA	1583	n/a	n/a	1
188.8130000000	n/a	188813	FrequentVariableSOA	1583	n/a	n/a	1
190.3970000000	n/a	190397	GoVariableSOA	396	n/a	n/a	1
191.9130000000	n/a	191913	FrequentVariableSOA	1566	n/a	n/a	1
193.4800000000	n/a	193480	FrequentVariableSOA	1500	n/a	n/a	1
194.9800000000	n/a	194980	FrequentVariableSOA	1633	n/a	n/a	1
196.6130000000	n/a	196613	FrequentVariableSOA	1600	n/a	n/a	1
198.2130000000	n/a	198213	NovelVariableSOA	1550	n/a	n/a	1
199.7630000000	n/a	199763	FrequentVariableSOA	1783	n/a	n/a	1
201.5470000000	n/a	201547	FrequentVariableSOA	1516	n/a	n/a	1
203.0630000000	n/a	203063	FrequentVariableSOA	1633	n/a	n/a	1
204.6970000000	n/a	204697	FrequentVariableSOA	1766	n/a	n/a	1
206.4630000000	n/a	206463	GoVariableSOA	288	n/a	n/a	1
208.0130000000	n/a	208013	FrequentVariableSOA	1733	n/a	n/a	1
209.7470000000	n/a	209747	FrequentVariableSOA	1733	n/a	n/a	1
211.4800000000	n/a	211480	NovelVariableSOA	1750	n/a	n/a	1
213.2300000000	n/a	213230	FrequentVariableSOA	1533	n/a	n/a	1
214.7630000000	n/a	214763	FrequentVariableSOA	1550	n/a	n/a	1
216.3130000000	n/a	216313	GoVariableSOA	399	n/a	n/a	1
217.9300000000	n/a	217930	FrequentVariableSOA	1516	n/a	n/a	1
219.4470000000	n/a	219447	FrequentVariableSOA	1616	n/a	n/a	1
221.0630000000	n/a	221063	FrequentVariableSOA	1533	n/a	n/a	1
222.5970000000	n/a	222597	FrequentVariableSOA	1616	n/a	n/a	1
224.2130000000	n/a	224213	NovelVariableSOA	1550	n/a	n/a	1
225.7630000000	n/a	225763	FrequentVariableSOA	1750	n/a	n/a	1
227.5130000000	n/a	227513	FrequentVariableSOA	1716	n/a	n/a	1
229.2300000000	n/a	229230	GoVariableSOA	484	n/a	n/a	1
230.9470000000	n/a	230947	FrequentFixedSOA	1633	n/a	n/a	1
232.5800000000	n/a	232580	FrequentFixedSOA	1633	n/a	n/a	1
234.2130000000	n/a	234213	FrequentFixedSOA	1633	n/a	n/a	1
235.8470000000	n/a	235847	GoFixedSOA	386	n/a	n/a	1
237.4800000000	n/a	237480	FrequentFixedSOA	1633	n/a	n/a	1
239.1130000000	n/a	239113	FrequentFixedSOA	1633	n/a	n/a	1
240.7470000000	n/a	240747	FrequentFixedSOA	1633	n/a	n/a	1
242.3800000000	n/a	242380	GoFixedSOA	377	n/a	n/a	1
244.0130000000	n/a	244013	FrequentFixedSOA	1633	n/a	n/a	1
245.6470000000	n/a	245647	FrequentFixedSOA	1633	n/a	n/a	1
247.2800000000	n/a	247280	FrequentFixedSOA	1633	n/a	n/a	1
248.9130000000	n/a	248913	NovelFixedSOA	1633	n/a	n/a	1
250.5470000000	n/a	250547	FrequentFixedSOA	1633	n/a	n/a	1
252.1800000000	n/a	252180	NovelFixedSOA	1633	n/a	n/a	1
253.8130000000	n/a	253813	FrequentFixedSOA	1633	n/a	n/a	1
255.4470000000	n/a	255447	FrequentFixedSOA	1633	n/a	n/a	1
257.0800000000	n/a	257080	NovelFixedSOA	1633	n/a	n/a	1
258.7130000000	n/a	258713	FrequentFixedSOA	1633	n/a	n/a	1
260.3470000000	n/a	260347	FrequentFixedSOA	1633	n/a	n/a	1
261.9800000000	n/a	261980	FrequentFixedSOA	1633	n/a	n/a	1
263.6130000000	n/a	263613	FrequentFixedSOA	1633	n/a	n/a	1
265.2470000000	n/a	265247	FrequentFixedSOA	1633	n/a	n/a	1
266.8800000000	n/a	266880	NovelFixedSOA	1633	n/a	n/a	1
268.5130000000	n/a	268513	FrequentFixedSOA	1633	n/a	n/a	1
270.1470000000	n/a	270147	FrequentFixedSOA	1633	n/a	n/a	1
271.7800000000	n/a	271780	FrequentFixedSOA	1633	n/a	n/a	1
273.4130000000	n/a	273413	FrequentFixedSOA	1633	n/a	n/a	1
275.0470000000	n/a	275047	FrequentFixedSOA	1633	n/a	n/a	1
276.6800000000	n/a	276680	GoFixedSOA	399	n/a	n/a	1
278.3130000000	n/a	278313	FrequentFixedSOA	1633	n/a	n/a	1
279.9470000000	n/a	279947	FrequentFixedSOA	1633	n/a	n/a	1
281.5800000000	n/a	281580	GoFixedSOA	428	n/a	n/a	1
283.2130000000	n/a	283213	FrequentFixedSOA	1633	n/a	n/a	1
284.8470000000	n/a	284847	NovelFixedSOA	1633	n/a	n/a	1
286.4800000000	n/a	286480	FrequentFixedSOA	1633	n/a	n/a	1
288.1130000000	n/a	288113	GoFixedSOA	512	n/a	n/a	1
289.7470000000	n/a	289747	FrequentFixedSOA	1633	n/a	n/a	1
291.3800000000	n/a	291380	GoFixedSOA	418	n/a	n/a	1
293.0130000000	n/a	293013	FrequentFixedSOA	1633	n/a	n/a	1
294.6470000000	n/a	294647	FrequentFixedSOA	1633	n/a	n/a	1
296.2800000000	n/a	296280	FrequentFixedSOA	1633	n/a	n/a	1
297.9130000000	n/a	297913	FrequentFixedSOA	1633	n/a	n/a	1
299.5470000000	n/a	299547	GoFixedSOA	387	n/a	n/a	1
301.1800000000	n/a	301180	FrequentFixedSOA	1633	n/a	n/a	1
302.8130000000	n/a	302813	FrequentFixedSOA	1633	n/a	n/a	1
304.4470000000	n/a	304447	FrequentFixedSOA	1633	n/a	n/a	1
306.0800000000	n/a	306080	NovelFixedSOA	1633	n/a	n/a	1
307.7130000000	n/a	307713	FrequentFixedSOA	1633	n/a	n/a	1
309.3470000000	n/a	309347	FrequentFixedSOA	1633	n/a	n/a	1
310.9800000000	n/a	310980	FrequentFixedSOA	1633	n/a	n/a	1
312.6130000000	n/a	312613	FrequentFixedSOA	1633	n/a	n/a	1
314.2470000000	n/a	314247	NovelFixedSOA	1633	n/a	n/a	1
315.8800000000	n/a	315880	FrequentFixedSOA	1633	n/a	n/a	1
317.5130000000	n/a	317513	FrequentFixedSOA	1633	n/a	n/a	1
319.1470000000	n/a	319147	FrequentFixedSOA	1633	n/a	n/a	1
320.7800000000	n/a	320780	FrequentFixedSOA	1633	n/a	n/a	1
322.4130000000	n/a	322413	NovelFixedSOA	1633	n/a	n/a	1
324.0470000000	n/a	324047	FrequentFixedSOA	1633	n/a	n/a	1
325.6800000000	n/a	325680	FrequentFixedSOA	1633	n/a	n/a	1
327.3130000000	n/a	327313	GoFixedSOA	425	n/a	n/a	1
328.9470000000	n/a	328947	FrequentFixedSOA	1633	n/a	n/a	1
330.5800000000	n/a	330580	FrequentFixedSOA	1633	n/a	n/a	1
332.2130000000	n/a	332213	FrequentFixedSOA	1633	n/a	n/a	1
333.8470000000	n/a	333847	FrequentFixedSOA	1633	n/a	n/a	1
335.4800000000	n/a	335480	NovelFixedSOA	1633	n/a	n/a	1
337.1130000000	n/a	337113	FrequentFixedSOA	1633	n/a	n/a	1
338.7470000000	n/a	338747	FrequentFixedSOA	1633	n/a	n/a	1
340.3800000000	n/a	340380	FrequentFixedSOA	1633	n/a	n/a	1
342.0130000000	n/a	342013	FrequentFixedSOA	1633	n/a	n/a	1
343.6470000000	n/a	343647	FrequentFixedSOA	1633	n/a	n/a	1
345.2800000000	n/a	345280	FrequentVariableSOA	1750	n/a	n/a	1
347.0300000000	n/a	347030	FrequentVariableSOA	1716	n/a	n/a	1
348.7470000000	n/a	348747	FrequentVariableSOA	1750	n/a	n/a	1
350.4970000000	n/a	350497	GoVariableSOA	433	n/a	n/a	1
351.9970000000	n/a	351997	FrequentVariableSOA	1616	n/a	n/a	1
353.6130000000	n/a	353613	FrequentVariableSOA	1550	n/a	n/a	1
355.1630000000	n/a	355163	FrequentVariableSOA	1750	n/a	n/a	1
356.9130000000	n/a	356913	GoVariableSOA	434	n/a	n/a	1
358.4800000000	n/a	358480	FrequentVariableSOA	1666	n/a	n/a	1
360.1470000000	n/a	360147	FrequentVariableSOA	1633	n/a	n/a	1
361.7800000000	n/a	361780	FrequentVariableSOA	1600	n/a	n/a	1
363.3800000000	n/a	363380	NovelVariableSOA	1550	n/a	n/a	1
364.9300000000	n/a	364930	FrequentVariableSOA	1733	n/a	n/a	1
366.6630000000	n/a	366663	NovelVariableSOA	1500	n/a	n/a	1
368.1630000000	n/a	368163	FrequentVariableSOA	1633	n/a	n/a	1
369.7970000000	n/a	369797	FrequentVariableSOA	1683	n/a	n/a	1
371.4800000000	n/a	371480	NovelVariableSOA	1633	n/a	n/a	1
373.1130000000	n/a	373113	FrequentVariableSOA	1683	n/a	n/a	1
374.7970000000	n/a	374797	FrequentVariableSOA	1566	n/a	n/a	1
376.3630000000	n/a	376363	FrequentVariableSOA	1666	n/a	n/a	1
378.0300000000	n/a	378030	FrequentVariableSOA	1566	n/a	n/a	1
379.5960000000	n/a	379596	FrequentVariableSOA	1733	n/a	n/a	1
381.3300000000	n/a	381330	NovelVariableSOA	1750	n/a	n/a	1
383.0800000000	n/a	383080	FrequentVariableSOA	1500	n/a	n/a	1
384.5800000000	n/a	384580	FrequentVariableSOA	1616	n/a	n/a	1
386.1960000000	n/a	386196	FrequentVariableSOA	1566	n/a	n/a	1
387.7630000000	n/a	387763	FrequentVariableSOA	1516	n/a	n/a	1
389.2800000000	n/a	389280	FrequentVariableSOA	1666	n/a	n/a	1
390.9460000000	n/a	390946	GoVariableSOA	1683	n/a	n/a	0
392.6300000000	n/a	392630	FrequentVariableSOA	1633	n/a	n/a	1
394.2630000000	n/a	394263	FrequentVariableSOA	1750	n/a	n/a	1
396.0130000000	n/a	396013	GoVariableSOA	305	n/a	n/a	1
397.7800000000	n/a	397780	FrequentVariableSOA	1733	n/a	n/a	1
399.5130000000	n/a	399513	NovelVariableSOA	1766	n/a	n/a	1
401.2800000000	n/a	401280	FrequentVariableSOA	1700	n/a	n/a	1
402.9800000000	n/a	402980	GoVariableSOA	514	n/a	n/a	1
404.7460000000	n/a	404746	FrequentVariableSOA	1766	n/a	n/a	1
406.5130000000	n/a	406513	GoVariableSOA	400	n/a	n/a	1
408.1800000000	n/a	408180	FrequentVariableSOA	1650	n/a	n/a	1
409.8300000000	n/a	409830	FrequentVariableSOA	1650	n/a	n/a	1
411.4800000000	n/a	411480	FrequentVariableSOA	1666	n/a	n/a	1
413.1460000000	n/a	413146	FrequentVariableSOA	1650	n/a	n/a	1
414.7960000000	n/a	414796	GoVariableSOA	419	n/a	n/a	1
416.4630000000	n/a	416463	FrequentVariableSOA	1666	n/a	n/a	1
418.1300000000	n/a	418130	FrequentVariableSOA	1666	n/a	n/a	1
419.7960000000	n/a	419796	FrequentVariableSOA	1700	n/a	n/a	1
421.4960000000	n/a	421496	NovelVariableSOA	1633	n/a	n/a	1
423.1300000000	n/a	423130	FrequentVariableSOA	1766	n/a	n/a	1
424.8960000000	n/a	424896	FrequentVariableSOA	1700	n/a	n/a	1
426.5960000000	n/a	426596	FrequentVariableSOA	1750	n/a	n/a	1
428.3460000000	n/a	428346	FrequentVariableSOA	1583	n/a	n/a	1
429.9300000000	n/a	429930	NovelVariableSOA	1666	n/a	n/a	1
431.5960000000	n/a	431596	FrequentVariableSOA	1800	n/a	n/a	1
433.3960000000	n/a	433396	FrequentVariableSOA	1600	n/a	n/a	1
434.9960000000	n/a	434996	FrequentVariableSOA	1500	n/a	n/a	1
436.4960000000	n/a	436496	FrequentVariableSOA	1733	n/a	n/a	1
438.2300000000	n/a	438230	NovelVariableSOA	1716	n/a	n/a	1
439.9460000000	n/a	439946	FrequentVariableSOA	1683	n/a	n/a	1
441.6300000000	n/a	441630	FrequentVariableSOA	1500	n/a	n/a	1
443.1300000000	n/a	443130	GoVariableSOA	428	n/a	n/a	1
444.6630000000	n/a	444663	FrequentVariableSOA	1550	n/a	n/a	1
446.2130000000	n/a	446213	FrequentVariableSOA	1733	n/a	n/a	1
447.9460000000	n/a	447946	FrequentVariableSOA	1733	n/a	n/a	1
449.6800000000	n/a	449680	FrequentVariableSOA	1733	n/a	n/a	1
451.4130000000	n/a	451413	NovelVariableSOA	1550	n/a	n/a	1
452.9630000000	n/a	452963	FrequentVariableSOA	1616	n/a	n/a	1
454.5800000000	n/a	454580	FrequentVariableSOA	1566	n/a	n/a	1
456.1460000000	n/a	456146	FrequentVariableSOA	1716	n/a	n/a	1
457.8630000000	n/a	457863	FrequentVariableSOA	1583	n/a	n/a	1
459.4460000000	n/a	459446	FrequentVariableSOA	1616	n/a	n/a	1
461.0630000000	n/a	461063	GoFixedSOA	581	n/a	n/a	1
462.6960000000	n/a	462696	FrequentFixedSOA	1633	n/a	n/a	1
464.3300000000	n/a	464330	FrequentFixedSOA	1633	n/a	n/a	1
465.9630000000	n/a	465963	FrequentFixedSOA	1633	n/a	n/a	1
467.5960000000	n/a	467596	FrequentFixedSOA	1633	n/a	n/a	1
469.2300000000	n/a	469230	FrequentFixedSOA	1633	n/a	n/a	1
470.8630000000	n/a	470863	FrequentFixedSOA	1633	n/a	n/a	1
472.4960000000	n/a	472496	NovelFixedSOA	1633	n/a	n/a	1
474.1300000000	n/a	474130	FrequentFixedSOA	1633	n/a	n/a	1
475.7630000000	n/a	475763	FrequentFixedSOA	1633	n/a	n/a	1
477.3960000000	n/a	477396	FrequentFixedSOA	1633	n/a	n/a	1
479.0300000000	n/a	479030	NovelFixedSOA	1633	n/a	n/a	1
480.6630000000	n/a	480663	FrequentFixedSOA	1633	n/a	n/a	1
482.2960000000	n/a	482296	GoFixedSOA	426	n/a	n/a	1
483.9300000000	n/a	483930	FrequentFixedSOA	1633	n/a	n/a	1
485.5630000000	n/a	485563	FrequentFixedSOA	1633	n/a	n/a	1
487.1960000000	n/a	487196	GoFixedSOA	531	n/a	n/a	1
488.8300000000	n/a	488830	FrequentFixedSOA	1633	n/a	n/a	1
490.4630000000	n/a	490463	NovelFixedSOA	1633	n/a	n/a	1
492.0960000000	n/a	492096	FrequentFixedSOA	1633	n/a	n/a	1
493.7300000000	n/a	493730	FrequentFixedSOA	1633	n/a	n/a	1
495.3630000000	n/a	495363	FrequentFixedSOA	1633	n/a	n/a	1
496.9960000000	n/a	496996	FrequentFixedSOA	1633	n/a	n/a	1
498.6300000000	n/a	498630	FrequentFixedSOA	1633	n/a	n/a	1
500.2630000000	n/a	500263	GoFixedSOA	488	n/a	n/a	1
501.8960000000	n/a	501896	FrequentFixedSOA	1633	n/a	n/a	1
503.5300000000	n/a	503530	FrequentFixedSOA	1633	n/a	n/a	1
505.1630000000	n/a	505163	NovelFixedSOA	1633	n/a	n/a	1
506.7960000000	n/a	506796	FrequentFixedSOA	1633	n/a	n/a	1
508.4300000000	n/a	508430	FrequentFixedSOA	1633	n/a	n/a	1
510.0630000000	n/a	510063	FrequentFixedSOA	1633	n/a	n/a	1
511.6960000000	n/a	511696	FrequentFixedSOA	1633	n/a	n/a	1
513.3300000000	n/a	513330	FrequentFixedSOA	1633	n/a	n/a	1
514.9630000000	n/a	514963	NovelFixedSOA	1633	n/a	n/a	1
516.5960000000	n/a	516596	FrequentFixedSOA	1633	n/a	n/a	1
518.2300000000	n/a	518230	FrequentFixedSOA	1633	n/a	n/a	1
519.8630000000	n/a	519863	FrequentFixedSOA	1633	n/a	n/a	1
521.4960000000	n/a	521496	FrequentFixedSOA	1633	n/a	n/a	1
523.1300000000	n/a	523130	GoFixedSOA	527	n/a	n/a	1
524.7630000000	n/a	524763	FrequentFixedSOA	1633	n/a	n/a	1
526.3960000000	n/a	526396	FrequentFixedSOA	1633	n/a	n/a	1
528.0300000000	n/a	528030	NovelFixedSOA	1633	n/a	n/a	1
529.6630000000	n/a	529663	FrequentFixedSOA	1633	n/a	n/a	1
531.2960000000	n/a	531296	FrequentFixedSOA	1633	n/a	n/a	1
532.9300000000	n/a	532930	NovelFixedSOA	1633	n/a	n/a	1
534.5630000000	n/a	534563	FrequentFixedSOA	1633	n/a	n/a	1
536.1960000000	n/a	536196	FrequentFixedSOA	1633	n/a	n/a	1
537.8300000000	n/a	537830	FrequentFixedSOA	1633	n/a	n/a	1
539.4630000000	n/a	539463	FrequentFixedSOA	1633	n/a	n/a	1
541.0960000000	n/a	541096	FrequentFixedSOA	1633	n/a	n/a	1
542.7300000000	n/a	542730	GoFixedSOA	401	n/a	n/a	1
544.3630000000	n/a	544363	FrequentFixedSOA	1633	n/a	n/a	1
545.9960000000	n/a	545996	FrequentFixedSOA	1633	n/a	n/a	1
547.6300000000	n/a	547630	FrequentFixedSOA	1633	n/a	n/a	1
549.2630000000	n/a	549263	FrequentFixedSOA	1633	n/a	n/a	1
550.8960000000	n/a	550896	FrequentFixedSOA	1633	n/a	n/a	1
552.5300000000	n/a	552530	NovelFixedSOA	1633	n/a	n/a	1
554.1630000000	n/a	554163	FrequentFixedSOA	1633	n/a	n/a	1
555.7960000000	n/a	555796	GoFixedSOA	342	n/a	n/a	1
557.4300000000	n/a	557430	FrequentFixedSOA	1633	n/a	n/a	1
559.0630000000	n/a	559063	FrequentFixedSOA	1633	n/a	n/a	1
560.6960000000	n/a	560696	FrequentFixedSOA	1633	n/a	n/a	1
562.3300000000	n/a	562330	FrequentFixedSOA	1633	n/a	n/a	1
563.9630000000	n/a	563963	FrequentFixedSOA	1633	n/a	n/a	1
565.5960000000	n/a	565596	FrequentFixedSOA	1633	n/a	n/a	1
567.2300000000	n/a	567230	FrequentFixedSOA	1633	n/a	n/a	1
568.8630000000	n/a	568863	FrequentFixedSOA	1633	n/a	n/a	1
570.4960000000	n/a	570496	NovelFixedSOA	1633	n/a	n/a	1
572.1300000000	n/a	572130	FrequentFixedSOA	1633	n/a	n/a	1
573.7630000000	n/a	573763	FrequentFixedSOA	1633	n/a	n/a	1
575.3960000000	n/a	575396	GoVariableSOA	506	n/a	n/a	1
577.1300000000	n/a	577130	FrequentVariableSOA	1683	n/a	n/a	1
578.8130000000	n/a	578813	FrequentVariableSOA	1533	n/a	n/a	1
580.3460000000	n/a	580346	FrequentVariableSOA	1750	n/a	n/a	1
582.0960000000	n/a	582096	FrequentVariableSOA	1633	n/a	n/a	1
583.7300000000	n/a	583730	FrequentVariableSOA	1650	n/a	n/a	1
585.3800000000	n/a	585380	FrequentVariableSOA	1700	n/a	n/a	1
587.0800000000	n/a	587080	NovelVariableSOA	1666	n/a	n/a	1
588.7460000000	n/a	588746	FrequentVariableSOA	1633	n/a	n/a	1
590.3800000000	n/a	590380	FrequentVariableSOA	1616	n/a	n/a	1
591.9960000000	n/a	591996	FrequentVariableSOA	1666	n/a	n/a	1
593.6630000000	n/a	593663	NovelVariableSOA	1750	n/a	n/a	1
595.4130000000	n/a	595413	FrequentVariableSOA	1616	n/a	n/a	1
597.0300000000	n/a	597030	GoVariableSOA	415	n/a	n/a	1
598.7460000000	n/a	598746	FrequentVariableSOA	1700	n/a	n/a	1
600.4460000000	n/a	600446	FrequentVariableSOA	1600	n/a	n/a	1
602.0460000000	n/a	602046	GoVariableSOA	455	n/a	n/a	1
603.6130000000	n/a	603613	FrequentVariableSOA	1566	n/a	n/a	1
605.1800000000	n/a	605180	NovelVariableSOA	1716	n/a	n/a	1
606.8960000000	n/a	606896	FrequentVariableSOA	1533	n/a	n/a	1
608.4290000000	n/a	608429	FrequentVariableSOA	1733	n/a	n/a	1
610.1630000000	n/a	610163	FrequentVariableSOA	1533	n/a	n/a	1
611.6960000000	n/a	611696	FrequentVariableSOA	1800	n/a	n/a	1
613.4960000000	n/a	613496	FrequentVariableSOA	1666	n/a	n/a	1
615.1630000000	n/a	615163	GoVariableSOA	1633	n/a	n/a	0
616.7960000000	n/a	616796	FrequentVariableSOA	1716	n/a	n/a	1
618.5130000000	n/a	618513	FrequentVariableSOA	1616	n/a	n/a	1
620.1290000000	n/a	620129	NovelVariableSOA	1650	n/a	n/a	1
621.7790000000	n/a	621779	FrequentVariableSOA	1750	n/a	n/a	1
623.5290000000	n/a	623529	FrequentVariableSOA	1750	n/a	n/a	1
625.2790000000	n/a	625279	FrequentVariableSOA	1666	n/a	n/a	1
626.9460000000	n/a	626946	FrequentVariableSOA	1733	n/a	n/a	1
628.6790000000	n/a	628679	FrequentVariableSOA	1583	n/a	n/a	1
630.2630000000	n/a	630263	NovelVariableSOA	1766	n/a	n/a	1
632.0290000000	n/a	632029	FrequentVariableSOA	1650	n/a	n/a	1
633.6790000000	n/a	633679	FrequentVariableSOA	1733	n/a	n/a	1
635.4130000000	n/a	635413	FrequentVariableSOA	1533	n/a	n/a	1
636.9460000000	n/a	636946	FrequentVariableSOA	1500	n/a	n/a	1
638.4460000000	n/a	638446	GoVariableSOA	403	n/a	n/a	1
639.9960000000	n/a	639996	FrequentVariableSOA	1650	n/a	n/a	1
641.6460000000	n/a	641646	FrequentVariableSOA	1516	n/a	n/a	1
643.1630000000	n/a	643163	NovelVariableSOA	1700	n/a	n/a	1
644.8630000000	n/a	644863	FrequentVariableSOA	1700	n/a	n/a	1
646.5630000000	n/a	646563	FrequentVariableSOA	1583	n/a	n/a	1
648.1460000000	n/a	648146	NovelVariableSOA	1683	n/a	n/a	1
649.8290000000	n/a	649829	FrequentVariableSOA	1766	n/a	n/a	1
651.5960000000	n/a	651596	FrequentVariableSOA	1716	n/a	n/a	1
653.3130000000	n/a	653313	FrequentVariableSOA	1700	n/a	n/a	1
655.0130000000	n/a	655013	FrequentVariableSOA	1550	n/a	n/a	1
656.5630000000	n/a	656563	FrequentVariableSOA	1633	n/a	n/a	1
658.1960000000	n/a	658196	GoVariableSOA	464	n/a	n/a	1
659.7960000000	n/a	659796	FrequentVariableSOA	1800	n/a	n/a	1
661.5960000000	n/a	661596	FrequentVariableSOA	1716	n/a	n/a	1
663.3130000000	n/a	663313	FrequentVariableSOA	1683	n/a	n/a	1
664.9960000000	n/a	664996	FrequentVariableSOA	1533	n/a	n/a	1
666.5290000000	n/a	666529	FrequentVariableSOA	1766	n/a	n/a	1
668.2960000000	n/a	668296	NovelVariableSOA	1500	n/a	n/a	1
669.7960000000	n/a	669796	FrequentVariableSOA	1683	n/a	n/a	1
671.4790000000	n/a	671479	GoVariableSOA	1533	n/a	n/a	0
673.0130000000	n/a	673013	FrequentVariableSOA	1600	n/a	n/a	1
674.6130000000	n/a	674613	FrequentVariableSOA	1600	n/a	n/a	1
676.2130000000	n/a	676213	FrequentVariableSOA	1716	n/a	n/a	1
677.9290000000	n/a	677929	FrequentVariableSOA	1700	n/a	n/a	1
679.6290000000	n/a	679629	FrequentVariableSOA	1566	n/a	n/a	1
681.1960000000	n/a	681196	FrequentVariableSOA	1750	n/a	n/a	1
682.9460000000	n/a	682946	FrequentVariableSOA	1533	n/a	n/a	1
684.4790000000	n/a	684479	FrequentVariableSOA	1616	n/a	n/a	1
686.0960000000	n/a	686096	NovelVariableSOA	1650	n/a	n/a	1
687.7460000000	n/a	687746	FrequentVariableSOA	1600	n/a	n/a	1
689.3460000000	n/a	689346	FrequentVariableSOA	1566	n/a	n/a	1
690.9130000000	n/a	690913	GoFixedSOA	399	n/a	n/a	1
692.5460000000	n/a	692546	FrequentFixedSOA	1633	n/a	n/a	1
694.1790000000	n/a	694179	FrequentFixedSOA	1633	n/a	n/a	1
695.8130000000	n/a	695813	FrequentFixedSOA	1633	n/a	n/a	1
697.4460000000	n/a	697446	GoFixedSOA	442	n/a	n/a	1
699.0790000000	n/a	699079	FrequentFixedSOA	1633	n/a	n/a	1
700.7130000000	n/a	700713	FrequentFixedSOA	1633	n/a	n/a	1
702.3460000000	n/a	702346	FrequentFixedSOA	1633	n/a	n/a	1
703.9790000000	n/a	703979	FrequentFixedSOA	1633	n/a	n/a	1
705.6130000000	n/a	705613	GoFixedSOA	324	n/a	n/a	1
707.2460000000	n/a	707246	FrequentFixedSOA	1633	n/a	n/a	1
708.8790000000	n/a	708879	FrequentFixedSOA	1633	n/a	n/a	1
710.5130000000	n/a	710513	NovelFixedSOA	1633	n/a	n/a	1
712.1460000000	n/a	712146	FrequentFixedSOA	1633	n/a	n/a	1
713.7790000000	n/a	713779	FrequentFixedSOA	1633	n/a	n/a	1
715.4130000000	n/a	715413	GoFixedSOA	362	n/a	n/a	1
717.0460000000	n/a	717046	FrequentFixedSOA	1633	n/a	n/a	1
718.6790000000	n/a	718679	FrequentFixedSOA	1633	n/a	n/a	1
720.3130000000	n/a	720313	FrequentFixedSOA	1633	n/a	n/a	1
721.9460000000	n/a	721946	NovelFixedSOA	1633	n/a	n/a	1
723.5790000000	n/a	723579	FrequentFixedSOA	1633	n/a	n/a	1
725.2130000000	n/a	725213	NovelFixedSOA	1633	n/a	n/a	1
726.8460000000	n/a	726846	FrequentFixedSOA	1633	n/a	n/a	1
728.4790000000	n/a	728479	FrequentFixedSOA	1633	n/a	n/a	1
730.1130000000	n/a	730113	FrequentFixedSOA	1633	n/a	n/a	1
731.7460000000	n/a	731746	GoFixedSOA	415	n/a	n/a	1
733.3790000000	n/a	733379	FrequentFixedSOA	1633	n/a	n/a	1
735.0130000000	n/a	735013	FrequentFixedSOA	1633	n/a	n/a	1
736.6460000000	n/a	736646	FrequentFixedSOA	1633	n/a	n/a	1
738.2790000000	n/a	738279	GoFixedSOA	421	n/a	n/a	1
739.9130000000	n/a	739913	FrequentFixedSOA	1633	n/a	n/a	1
741.5460000000	n/a	741546	FrequentFixedSOA	1633	n/a	n/a	1
743.1790000000	n/a	743179	NovelFixedSOA	1633	n/a	n/a	1
744.8130000000	n/a	744813	FrequentFixedSOA	1633	n/a	n/a	1
746.4460000000	n/a	746446	GoFixedSOA	404	n/a	n/a	1
748.0790000000	n/a	748079	FrequentFixedSOA	1633	n/a	n/a	1
749.7130000000	n/a	749713	FrequentFixedSOA	1633	n/a	n/a	1
751.3460000000	n/a	751346	FrequentFixedSOA	1633	n/a	n/a	1
752.9790000000	n/a	752979	FrequentFixedSOA	1633	n/a	n/a	1
754.6130000000	n/a	754613	FrequentFixedSOA	1633	n/a	n/a	1
756.2460000000	n/a	756246	FrequentFixedSOA	1633	n/a	n/a	1
757.8790000000	n/a	757879	NovelFixedSOA	1633	n/a	n/a	1
759.5130000000	n/a	759513	FrequentFixedSOA	1633	n/a	n/a	1
761.1460000000	n/a	761146	FrequentFixedSOA	1633	n/a	n/a	1
762.7790000000	n/a	762779	FrequentFixedSOA	1633	n/a	n/a	1
764.4130000000	n/a	764413	GoFixedSOA	542	n/a	n/a	1
766.0460000000	n/a	766046	FrequentFixedSOA	1633	n/a	n/a	1
767.6790000000	n/a	767679	FrequentFixedSOA	1633	n/a	n/a	1
769.3130000000	n/a	769313	FrequentFixedSOA	1633	n/a	n/a	1
770.9460000000	n/a	770946	FrequentFixedSOA	1633	n/a	n/a	1
772.5790000000	n/a	772579	NovelFixedSOA	1633	n/a	n/a	1
774.2130000000	n/a	774213	FrequentFixedSOA	1633	n/a	n/a	1
775.8460000000	n/a	775846	FrequentFixedSOA	1633	n/a	n/a	1
777.4790000000	n/a	777479	NovelFixedSOA	1633	n/a	n/a	1
779.1130000000	n/a	779113	FrequentFixedSOA	1633	n/a	n/a	1
780.7460000000	n/a	780746	NovelFixedSOA	1633	n/a	n/a	1
782.3790000000	n/a	782379	FrequentFixedSOA	1633	n/a	n/a	1
784.0130000000	n/a	784013	FrequentFixedSOA	1633	n/a	n/a	1
785.6460000000	n/a	785646	FrequentFixedSOA	1633	n/a	n/a	1
787.2790000000	n/a	787279	FrequentFixedSOA	1633	n/a	n/a	1
788.9130000000	n/a	788913	FrequentFixedSOA	1633	n/a	n/a	1
790.5460000000	n/a	790546	FrequentFixedSOA	1633	n/a	n/a	1
792.1790000000	n/a	792179	FrequentFixedSOA	1633	n/a	n/a	1
793.8130000000	n/a	793813	GoFixedSOA	426	n/a	n/a	1
795.4460000000	n/a	795446	FrequentFixedSOA	1633	n/a	n/a	1
797.0790000000	n/a	797079	GoFixedSOA	396	n/a	n/a	1
798.7130000000	n/a	798713	FrequentFixedSOA	1633	n/a	n/a	1
800.3460000000	n/a	800346	FrequentFixedSOA	1633	n/a	n/a	1
801.9790000000	n/a	801979	NovelFixedSOA	1633	n/a	n/a	1
803.6130000000	n/a	803613	FrequentFixedSOA	1633	n/a	n/a	1
805.2460000000	n/a	805246	GoVariableSOA	408	n/a	n/a	1
806.7790000000	n/a	806779	FrequentVariableSOA	1716	n/a	n/a	1
808.4960000000	n/a	808496	FrequentVariableSOA	1766	n/a	n/a	1
810.2630000000	n/a	810263	FrequentVariableSOA	1766	n/a	n/a	1
812.0290000000	n/a	812029	GoVariableSOA	353	n/a	n/a	1
813.8290000000	n/a	813829	FrequentVariableSOA	1700	n/a	n/a	1
815.5290000000	n/a	815529	FrequentVariableSOA	1733	n/a	n/a	1
817.2630000000	n/a	817263	FrequentVariableSOA	1516	n/a	n/a	1
818.7790000000	n/a	818779	FrequentVariableSOA	1666	n/a	n/a	1
820.4460000000	n/a	820446	GoVariableSOA	425	n/a	n/a	1
822.0630000000	n/a	822063	FrequentVariableSOA	1733	n/a	n/a	1
823.7960000000	n/a	823796	FrequentVariableSOA	1516	n/a	n/a	1
825.3130000000	n/a	825313	NovelVariableSOA	1783	n/a	n/a	1
827.0960000000	n/a	827096	FrequentVariableSOA	1583	n/a	n/a	1
828.6790000000	n/a	828679	FrequentVariableSOA	1783	n/a	n/a	1
830.4630000000	n/a	830463	GoVariableSOA	488	n/a	n/a	1
832.1790000000	n/a	832179	FrequentVariableSOA	1683	n/a	n/a	1
833.8630000000	n/a	833863	FrequentVariableSOA	1533	n/a	n/a	1
835.3960000000	n/a	835396	FrequentVariableSOA	1733	n/a	n/a	1
837.1290000000	n/a	837129	NovelVariableSOA	1716	n/a	n/a	1
838.8460000000	n/a	838846	FrequentVariableSOA	1650	n/a	n/a	1
840.4960000000	n/a	840496	NovelVariableSOA	1733	n/a	n/a	1
842.2290000000	n/a	842229	FrequentVariableSOA	1616	n/a	n/a	1
843.8460000000	n/a	843846	FrequentVariableSOA	1750	n/a	n/a	1
845.5960000000	n/a	845596	FrequentVariableSOA	1633	n/a	n/a	1
847.2290000000	n/a	847229	GoVariableSOA	1666	n/a	n/a	0
848.8960000000	n/a	848896	FrequentVariableSOA	1616	n/a	n/a	1
850.5120000000	n/a	850512	FrequentVariableSOA	1733	n/a	n/a	1
852.2460000000	n/a	852246	FrequentVariableSOA	1750	n/a	n/a	1
853.9960000000	n/a	853996	GoVariableSOA	452	n/a	n/a	1
855.5120000000	n/a	855512	FrequentVariableSOA	1616	n/a	n/a	1
857.1290000000	n/a	857129	FrequentVariableSOA	1550	n/a	n/a	1
858.6790000000	n/a	858679	NovelVariableSOA	1633	n/a	n/a	1
860.3120000000	n/a	860312	FrequentVariableSOA	1716	n/a	n/a	1
862.0290000000	n/a	862029	GoVariableSOA	487	n/a	n/a	1
863.7790000000	n/a	863779	FrequentVariableSOA	1683	n/a	n/a	1
865.4620000000	n/a	865462	FrequentVariableSOA	1733	n/a	n/a	1
867.1960000000	n/a	867196	FrequentVariableSOA	1583	n/a	n/a	1
868.7790000000	n/a	868779	FrequentVariableSOA	1583	n/a	n/a	1
870.3620000000	n/a	870362	FrequentVariableSOA	1566	n/a	n/a	1
871.9290000000	n/a	871929	FrequentVariableSOA	1616	n/a	n/a	1
873.5460000000	n/a	873546	NovelVariableSOA	1800	n/a	n/a	1
875.3460000000	n/a	875346	FrequentVariableSOA	1500	n/a	n/a	1
876.8460000000	n/a	876846	FrequentVariableSOA	1550	n/a	n/a	1
878.3960000000	n/a	878396	FrequentVariableSOA	1616	n/a	n/a	1
880.0120000000	n/a	880012	GoVariableSOA	659	n/a	n/a	1
881.7790000000	n/a	881779	FrequentVariableSOA	1533	n/a	n/a	1
883.3120000000	n/a	883312	FrequentVariableSOA	1650	n/a	n/a	1
884.9620000000	n/a	884962	FrequentVariableSOA	1566	n/a	n/a	1
886.5290000000	n/a	886529	FrequentVariableSOA	1716	n/a	n/a	1
888.2460000000	n/a	888246	NovelVariableSOA	1550	n/a	n/a	1
889.7960000000	n/a	889796	FrequentVariableSOA	1516	n/a	n/a	1
891.3120000000	n/a	891312	FrequentVariableSOA	1516	n/a	n/a	1
892.8290000000	n/a	892829	NovelVariableSOA	1650	n/a	n/a	1
894.4790000000	n/a	894479	FrequentVariableSOA	1583	n/a	n/a	1
896.0620000000	n/a	896062	NovelVariableSOA	1716	n/a	n/a	1
897.7790000000	n/a	897779	FrequentVariableSOA	1683	n/a	n/a	1
899.4620000000	n/a	899462	FrequentVariableSOA	1716	n/a	n/a	1
901.1790000000	n/a	901179	FrequentVariableSOA	1516	n/a	n/a	1
902.6960000000	n/a	902696	FrequentVariableSOA	1733	n/a	n/a	1
904.4290000000	n/a	904429	FrequentVariableSOA	1633	n/a	n/a	1
906.0620000000	n/a	906062	FrequentVariableSOA	1516	n/a	n/a	1
907.5790000000	n/a	907579	FrequentVariableSOA	1616	n/a	n/a	1
909.1960000000	n/a	909196	GoVariableSOA	400	n/a	n/a	1
910.7120000000	n/a	910712	FrequentVariableSOA	1500	n/a	n/a	1
912.2120000000	n/a	912212	GoVariableSOA	328	n/a	n/a	1
913.7620000000	n/a	913762	FrequentVariableSOA	1800	n/a	n/a	1
915.5620000000	n/a	915562	FrequentVariableSOA	1533	n/a	n/a	1
917.0960000000	n/a	917096	NovelVariableSOA	1733	n/a	n/a	1
918.8290000000	n/a	918829	FrequentVariableSOA	1550	n/a	n/a	1
