onset	duration	sample	trial_type	response_time	stim_file	value	correct
3.1920000000	n/a	3192	FrequentFixedSOA	1633	n/a	n/a	1
4.8250000000	n/a	4825	FrequentFixedSOA	1633	n/a	n/a	1
6.4580000000	n/a	6458	FrequentFixedSOA	1633	n/a	n/a	1
8.0910000000	n/a	8091	FrequentFixedSOA	1633	n/a	n/a	1
9.7250000000	n/a	9725	FrequentFixedSOA	1633	n/a	n/a	1
11.3580000000	n/a	11358	FrequentFixedSOA	1633	n/a	n/a	1
12.9910000000	n/a	12991	FrequentFixedSOA	1633	n/a	n/a	1
14.6250000000	n/a	14625	FrequentFixedSOA	1633	n/a	n/a	1
16.2580000000	n/a	16258	FrequentFixedSOA	1633	n/a	n/a	1
17.8910000000	n/a	17891	FrequentFixedSOA	1633	n/a	n/a	1
19.5250000000	n/a	19525	NovelFixedSOA	1633	n/a	n/a	1
21.1580000000	n/a	21158	FrequentFixedSOA	1633	n/a	n/a	1
22.7910000000	n/a	22791	GoFixedSOA	1633	n/a	n/a	0
24.4250000000	n/a	24425	FrequentFixedSOA	1633	n/a	n/a	1
26.0580000000	n/a	26058	FrequentFixedSOA	1633	n/a	n/a	1
27.6910000000	n/a	27691	FrequentFixedSOA	1633	n/a	n/a	1
29.3250000000	n/a	29325	GoFixedSOA	606	n/a	n/a	1
30.9580000000	n/a	30958	FrequentFixedSOA	1633	n/a	n/a	1
32.5910000000	n/a	32591	FrequentFixedSOA	1633	n/a	n/a	1
34.2250000000	n/a	34225	FrequentFixedSOA	1633	n/a	n/a	1
35.8580000000	n/a	35858	NovelFixedSOA	1633	n/a	n/a	1
37.4910000000	n/a	37491	FrequentFixedSOA	1633	n/a	n/a	1
39.1250000000	n/a	39125	FrequentFixedSOA	1633	n/a	n/a	1
40.7580000000	n/a	40758	FrequentFixedSOA	1633	n/a	n/a	1
42.3910000000	n/a	42391	GoFixedSOA	378	n/a	n/a	1
44.0250000000	n/a	44025	FrequentFixedSOA	1633	n/a	n/a	1
45.6580000000	n/a	45658	NovelFixedSOA	1633	n/a	n/a	1
47.2910000000	n/a	47291	FrequentFixedSOA	1633	n/a	n/a	1
48.9250000000	n/a	48925	FrequentFixedSOA	1633	n/a	n/a	1
50.5580000000	n/a	50558	FrequentFixedSOA	1633	n/a	n/a	1
52.1910000000	n/a	52191	GoFixedSOA	459	n/a	n/a	1
53.8250000000	n/a	53825	FrequentFixedSOA	1633	n/a	n/a	1
55.4580000000	n/a	55458	GoFixedSOA	1633	n/a	n/a	0
57.0910000000	n/a	57091	FrequentFixedSOA	1633	n/a	n/a	1
58.7250000000	n/a	58725	FrequentFixedSOA	1633	n/a	n/a	1
60.3580000000	n/a	60358	GoFixedSOA	449	n/a	n/a	1
61.9910000000	n/a	61991	FrequentFixedSOA	1633	n/a	n/a	1
63.6250000000	n/a	63625	FrequentFixedSOA	1633	n/a	n/a	1
65.2580000000	n/a	65258	FrequentFixedSOA	1633	n/a	n/a	1
66.8910000000	n/a	66891	FrequentFixedSOA	1633	n/a	n/a	1
68.5250000000	n/a	68525	NovelFixedSOA	1633	n/a	n/a	1
70.1580000000	n/a	70158	FrequentFixedSOA	1633	n/a	n/a	1
71.7910000000	n/a	71791	NovelFixedSOA	1633	n/a	n/a	1
73.4250000000	n/a	73425	FrequentFixedSOA	1633	n/a	n/a	1
75.0580000000	n/a	75058	FrequentFixedSOA	1633	n/a	n/a	1
76.6910000000	n/a	76691	GoFixedSOA	352	n/a	n/a	1
78.3250000000	n/a	78325	FrequentFixedSOA	1633	n/a	n/a	1
79.9580000000	n/a	79958	FrequentFixedSOA	1633	n/a	n/a	1
81.5910000000	n/a	81591	FrequentFixedSOA	1633	n/a	n/a	1
83.2250000000	n/a	83225	FrequentFixedSOA	1633	n/a	n/a	1
84.8580000000	n/a	84858	NovelFixedSOA	1633	n/a	n/a	1
86.4910000000	n/a	86491	FrequentFixedSOA	1633	n/a	n/a	1
88.1250000000	n/a	88125	FrequentFixedSOA	1633	n/a	n/a	1
89.7580000000	n/a	89758	FrequentFixedSOA	1633	n/a	n/a	1
91.3910000000	n/a	91391	FrequentFixedSOA	1633	n/a	n/a	1
93.0250000000	n/a	93025	GoFixedSOA	534	n/a	n/a	1
94.6580000000	n/a	94658	FrequentFixedSOA	1633	n/a	n/a	1
96.2910000000	n/a	96291	FrequentFixedSOA	1633	n/a	n/a	1
97.9250000000	n/a	97925	NovelFixedSOA	1633	n/a	n/a	1
99.5580000000	n/a	99558	FrequentFixedSOA	1633	n/a	n/a	1
101.1910000000	n/a	101191	FrequentFixedSOA	1633	n/a	n/a	1
102.8250000000	n/a	102825	GoFixedSOA	516	n/a	n/a	1
104.4580000000	n/a	104458	FrequentFixedSOA	1633	n/a	n/a	1
106.0910000000	n/a	106091	FrequentFixedSOA	1633	n/a	n/a	1
107.7250000000	n/a	107725	FrequentFixedSOA	1633	n/a	n/a	1
109.3580000000	n/a	109358	FrequentFixedSOA	1633	n/a	n/a	1
110.9910000000	n/a	110991	NovelFixedSOA	1633	n/a	n/a	1
112.6250000000	n/a	112625	FrequentFixedSOA	1633	n/a	n/a	1
114.2580000000	n/a	114258	FrequentFixedSOA	1633	n/a	n/a	1
115.8910000000	n/a	115891	GoFixedSOA	408	n/a	n/a	1
117.5250000000	n/a	117525	FrequentVariableSOA	1683	n/a	n/a	1
119.2080000000	n/a	119208	FrequentVariableSOA	1716	n/a	n/a	1
120.9250000000	n/a	120925	FrequentVariableSOA	1533	n/a	n/a	1
122.4580000000	n/a	122458	FrequentVariableSOA	1716	n/a	n/a	1
124.1750000000	n/a	124175	FrequentVariableSOA	1783	n/a	n/a	1
125.9580000000	n/a	125958	FrequentVariableSOA	1550	n/a	n/a	1
127.5080000000	n/a	127508	FrequentVariableSOA	1733	n/a	n/a	1
129.2410000000	n/a	129241	FrequentVariableSOA	1650	n/a	n/a	1
130.8910000000	n/a	130891	FrequentVariableSOA	1516	n/a	n/a	1
132.4080000000	n/a	132408	FrequentVariableSOA	1716	n/a	n/a	1
134.1250000000	n/a	134125	NovelVariableSOA	1533	n/a	n/a	1
135.6580000000	n/a	135658	FrequentVariableSOA	1616	n/a	n/a	1
137.2750000000	n/a	137275	GoVariableSOA	559	n/a	n/a	1
139.0080000000	n/a	139008	FrequentVariableSOA	1750	n/a	n/a	1
140.7580000000	n/a	140758	FrequentVariableSOA	1700	n/a	n/a	1
142.4580000000	n/a	142458	FrequentVariableSOA	1700	n/a	n/a	1
144.1580000000	n/a	144158	GoVariableSOA	411	n/a	n/a	1
145.7580000000	n/a	145758	FrequentVariableSOA	1683	n/a	n/a	1
147.4410000000	n/a	147441	FrequentVariableSOA	1800	n/a	n/a	1
149.2410000000	n/a	149241	FrequentVariableSOA	1583	n/a	n/a	1
150.8250000000	n/a	150825	NovelVariableSOA	1533	n/a	n/a	1
152.3580000000	n/a	152358	FrequentVariableSOA	1783	n/a	n/a	1
154.1410000000	n/a	154141	FrequentVariableSOA	1750	n/a	n/a	1
155.8910000000	n/a	155891	FrequentVariableSOA	1666	n/a	n/a	1
157.5580000000	n/a	157558	GoVariableSOA	373	n/a	n/a	1
159.1910000000	n/a	159191	FrequentVariableSOA	1550	n/a	n/a	1
160.7410000000	n/a	160741	NovelVariableSOA	1733	n/a	n/a	1
162.4750000000	n/a	162475	FrequentVariableSOA	1600	n/a	n/a	1
164.0750000000	n/a	164075	FrequentVariableSOA	1583	n/a	n/a	1
165.6580000000	n/a	165658	FrequentVariableSOA	1783	n/a	n/a	1
167.4410000000	n/a	167441	GoVariableSOA	381	n/a	n/a	1
169.1410000000	n/a	169141	FrequentVariableSOA	1600	n/a	n/a	1
170.7410000000	n/a	170741	GoVariableSOA	523	n/a	n/a	1
172.2580000000	n/a	172258	FrequentVariableSOA	1783	n/a	n/a	1
174.0410000000	n/a	174041	FrequentVariableSOA	1700	n/a	n/a	1
175.7410000000	n/a	175741	GoVariableSOA	392	n/a	n/a	1
177.2910000000	n/a	177291	FrequentVariableSOA	1616	n/a	n/a	1
178.9080000000	n/a	178908	FrequentVariableSOA	1616	n/a	n/a	1
180.5250000000	n/a	180525	FrequentVariableSOA	1716	n/a	n/a	1
182.2410000000	n/a	182241	FrequentVariableSOA	1533	n/a	n/a	1
183.7750000000	n/a	183775	NovelVariableSOA	1550	n/a	n/a	1
185.3250000000	n/a	185325	FrequentVariableSOA	1766	n/a	n/a	1
187.0910000000	n/a	187091	NovelVariableSOA	1700	n/a	n/a	1
188.7910000000	n/a	188791	FrequentVariableSOA	1733	n/a	n/a	1
190.5250000000	n/a	190525	FrequentVariableSOA	1633	n/a	n/a	1
192.1580000000	n/a	192158	GoVariableSOA	493	n/a	n/a	1
193.7080000000	n/a	193708	FrequentVariableSOA	1600	n/a	n/a	1
195.3080000000	n/a	195308	FrequentVariableSOA	1616	n/a	n/a	1
196.9240000000	n/a	196924	FrequentVariableSOA	1683	n/a	n/a	1
198.6080000000	n/a	198608	FrequentVariableSOA	1533	n/a	n/a	1
200.1410000000	n/a	200141	NovelVariableSOA	1633	n/a	n/a	1
201.7740000000	n/a	201774	FrequentVariableSOA	1700	n/a	n/a	1
203.4740000000	n/a	203474	FrequentVariableSOA	1633	n/a	n/a	1
205.1080000000	n/a	205108	FrequentVariableSOA	1600	n/a	n/a	1
206.7080000000	n/a	206708	FrequentVariableSOA	1700	n/a	n/a	1
208.4080000000	n/a	208408	GoVariableSOA	527	n/a	n/a	1
210.1580000000	n/a	210158	FrequentVariableSOA	1533	n/a	n/a	1
211.6910000000	n/a	211691	FrequentVariableSOA	1750	n/a	n/a	1
213.4410000000	n/a	213441	NovelVariableSOA	1566	n/a	n/a	1
215.0080000000	n/a	215008	FrequentVariableSOA	1633	n/a	n/a	1
216.6410000000	n/a	216641	FrequentVariableSOA	1716	n/a	n/a	1
218.3580000000	n/a	218358	GoVariableSOA	378	n/a	n/a	1
220.0910000000	n/a	220091	FrequentVariableSOA	1666	n/a	n/a	1
221.7580000000	n/a	221758	FrequentVariableSOA	1783	n/a	n/a	1
223.5410000000	n/a	223541	FrequentVariableSOA	1733	n/a	n/a	1
225.2740000000	n/a	225274	FrequentVariableSOA	1700	n/a	n/a	1
226.9740000000	n/a	226974	NovelVariableSOA	1766	n/a	n/a	1
228.7410000000	n/a	228741	FrequentVariableSOA	1566	n/a	n/a	1
230.3080000000	n/a	230308	FrequentVariableSOA	1650	n/a	n/a	1
231.9580000000	n/a	231958	GoVariableSOA	414	n/a	n/a	1
233.4910000000	n/a	233491	FrequentFixedSOA	1633	n/a	n/a	1
235.1240000000	n/a	235124	FrequentFixedSOA	1633	n/a	n/a	1
236.7580000000	n/a	236758	FrequentFixedSOA	1633	n/a	n/a	1
238.3910000000	n/a	238391	GoFixedSOA	463	n/a	n/a	1
240.0240000000	n/a	240024	FrequentFixedSOA	1633	n/a	n/a	1
241.6580000000	n/a	241658	FrequentFixedSOA	1633	n/a	n/a	1
243.2910000000	n/a	243291	FrequentFixedSOA	1633	n/a	n/a	1
244.9240000000	n/a	244924	GoFixedSOA	322	n/a	n/a	1
246.5580000000	n/a	246558	FrequentFixedSOA	1633	n/a	n/a	1
248.1910000000	n/a	248191	FrequentFixedSOA	1633	n/a	n/a	1
249.8240000000	n/a	249824	FrequentFixedSOA	1633	n/a	n/a	1
251.4580000000	n/a	251458	NovelFixedSOA	1633	n/a	n/a	1
253.0910000000	n/a	253091	FrequentFixedSOA	1633	n/a	n/a	1
254.7240000000	n/a	254724	NovelFixedSOA	1633	n/a	n/a	1
256.3580000000	n/a	256358	FrequentFixedSOA	1633	n/a	n/a	1
257.9910000000	n/a	257991	FrequentFixedSOA	1633	n/a	n/a	1
259.6240000000	n/a	259624	NovelFixedSOA	1633	n/a	n/a	1
261.2580000000	n/a	261258	FrequentFixedSOA	1633	n/a	n/a	1
262.8910000000	n/a	262891	FrequentFixedSOA	1633	n/a	n/a	1
264.5240000000	n/a	264524	FrequentFixedSOA	1633	n/a	n/a	1
266.1580000000	n/a	266158	FrequentFixedSOA	1633	n/a	n/a	1
267.7910000000	n/a	267791	FrequentFixedSOA	1633	n/a	n/a	1
269.4240000000	n/a	269424	NovelFixedSOA	1633	n/a	n/a	1
271.0580000000	n/a	271058	FrequentFixedSOA	1633	n/a	n/a	1
272.6910000000	n/a	272691	FrequentFixedSOA	1633	n/a	n/a	1
274.3240000000	n/a	274324	FrequentFixedSOA	1633	n/a	n/a	1
275.9580000000	n/a	275958	FrequentFixedSOA	1633	n/a	n/a	1
277.5910000000	n/a	277591	FrequentFixedSOA	1633	n/a	n/a	1
279.2240000000	n/a	279224	GoFixedSOA	741	n/a	n/a	1
280.8580000000	n/a	280858	FrequentFixedSOA	1633	n/a	n/a	1
282.4910000000	n/a	282491	FrequentFixedSOA	1633	n/a	n/a	1
284.1240000000	n/a	284124	GoFixedSOA	564	n/a	n/a	1
285.7580000000	n/a	285758	FrequentFixedSOA	1633	n/a	n/a	1
287.3910000000	n/a	287391	NovelFixedSOA	1633	n/a	n/a	1
289.0240000000	n/a	289024	FrequentFixedSOA	1633	n/a	n/a	1
290.6580000000	n/a	290658	GoFixedSOA	373	n/a	n/a	1
292.2910000000	n/a	292291	FrequentFixedSOA	1633	n/a	n/a	1
293.9240000000	n/a	293924	GoFixedSOA	504	n/a	n/a	1
295.5580000000	n/a	295558	FrequentFixedSOA	1633	n/a	n/a	1
297.1910000000	n/a	297191	FrequentFixedSOA	1633	n/a	n/a	1
298.8240000000	n/a	298824	FrequentFixedSOA	1633	n/a	n/a	1
300.4580000000	n/a	300458	FrequentFixedSOA	1633	n/a	n/a	1
302.0910000000	n/a	302091	GoFixedSOA	505	n/a	n/a	1
303.7240000000	n/a	303724	FrequentFixedSOA	1633	n/a	n/a	1
305.3580000000	n/a	305358	FrequentFixedSOA	1633	n/a	n/a	1
306.9910000000	n/a	306991	FrequentFixedSOA	1633	n/a	n/a	1
308.6240000000	n/a	308624	NovelFixedSOA	1633	n/a	n/a	1
310.2580000000	n/a	310258	FrequentFixedSOA	1633	n/a	n/a	1
311.8910000000	n/a	311891	FrequentFixedSOA	1633	n/a	n/a	1
313.5240000000	n/a	313524	FrequentFixedSOA	1633	n/a	n/a	1
315.1580000000	n/a	315158	FrequentFixedSOA	1633	n/a	n/a	1
316.7910000000	n/a	316791	NovelFixedSOA	1633	n/a	n/a	1
318.4240000000	n/a	318424	FrequentFixedSOA	1633	n/a	n/a	1
320.0580000000	n/a	320058	FrequentFixedSOA	1633	n/a	n/a	1
321.6910000000	n/a	321691	FrequentFixedSOA	1633	n/a	n/a	1
323.3240000000	n/a	323324	FrequentFixedSOA	1633	n/a	n/a	1
324.9580000000	n/a	324958	NovelFixedSOA	1633	n/a	n/a	1
326.5910000000	n/a	326591	FrequentFixedSOA	1633	n/a	n/a	1
328.2240000000	n/a	328224	FrequentFixedSOA	1633	n/a	n/a	1
329.8580000000	n/a	329858	GoFixedSOA	423	n/a	n/a	1
331.4910000000	n/a	331491	FrequentFixedSOA	1633	n/a	n/a	1
333.1240000000	n/a	333124	FrequentFixedSOA	1633	n/a	n/a	1
334.7580000000	n/a	334758	FrequentFixedSOA	1633	n/a	n/a	1
336.3910000000	n/a	336391	FrequentFixedSOA	1633	n/a	n/a	1
338.0240000000	n/a	338024	NovelFixedSOA	1633	n/a	n/a	1
339.6580000000	n/a	339658	FrequentFixedSOA	1633	n/a	n/a	1
341.2910000000	n/a	341291	FrequentFixedSOA	1633	n/a	n/a	1
342.9240000000	n/a	342924	FrequentFixedSOA	1633	n/a	n/a	1
344.5580000000	n/a	344558	FrequentFixedSOA	1633	n/a	n/a	1
346.1910000000	n/a	346191	FrequentFixedSOA	1633	n/a	n/a	1
347.8240000000	n/a	347824	FrequentVariableSOA	1683	n/a	n/a	1
349.5080000000	n/a	349508	FrequentVariableSOA	1500	n/a	n/a	1
351.0080000000	n/a	351008	FrequentVariableSOA	1666	n/a	n/a	1
352.6740000000	n/a	352674	GoVariableSOA	409	n/a	n/a	1
354.2580000000	n/a	354258	FrequentVariableSOA	1533	n/a	n/a	1
355.7910000000	n/a	355791	FrequentVariableSOA	1700	n/a	n/a	1
357.4910000000	n/a	357491	FrequentVariableSOA	1650	n/a	n/a	1
359.1410000000	n/a	359141	GoVariableSOA	400	n/a	n/a	1
360.8580000000	n/a	360858	FrequentVariableSOA	1633	n/a	n/a	1
362.4910000000	n/a	362491	FrequentVariableSOA	1566	n/a	n/a	1
364.0580000000	n/a	364058	FrequentVariableSOA	1783	n/a	n/a	1
365.8410000000	n/a	365841	NovelVariableSOA	1633	n/a	n/a	1
367.4740000000	n/a	367474	FrequentVariableSOA	1683	n/a	n/a	1
369.1580000000	n/a	369158	NovelVariableSOA	1600	n/a	n/a	1
370.7580000000	n/a	370758	FrequentVariableSOA	1633	n/a	n/a	1
372.3910000000	n/a	372391	FrequentVariableSOA	1716	n/a	n/a	1
374.1080000000	n/a	374108	NovelVariableSOA	1600	n/a	n/a	1
375.7080000000	n/a	375708	FrequentVariableSOA	1683	n/a	n/a	1
377.3910000000	n/a	377391	FrequentVariableSOA	1683	n/a	n/a	1
379.0740000000	n/a	379074	FrequentVariableSOA	1750	n/a	n/a	1
380.8240000000	n/a	380824	FrequentVariableSOA	1700	n/a	n/a	1
382.5240000000	n/a	382524	FrequentVariableSOA	1633	n/a	n/a	1
384.1580000000	n/a	384158	NovelVariableSOA	1550	n/a	n/a	1
385.7080000000	n/a	385708	FrequentVariableSOA	1650	n/a	n/a	1
387.3580000000	n/a	387358	FrequentVariableSOA	1533	n/a	n/a	1
388.8910000000	n/a	388891	FrequentVariableSOA	1716	n/a	n/a	1
390.6080000000	n/a	390608	FrequentVariableSOA	1666	n/a	n/a	1
392.2740000000	n/a	392274	FrequentVariableSOA	1783	n/a	n/a	1
394.0580000000	n/a	394058	GoVariableSOA	399	n/a	n/a	1
395.7410000000	n/a	395741	FrequentVariableSOA	1800	n/a	n/a	1
397.5410000000	n/a	397541	FrequentVariableSOA	1566	n/a	n/a	1
399.1080000000	n/a	399108	GoVariableSOA	410	n/a	n/a	1
400.8580000000	n/a	400858	FrequentVariableSOA	1633	n/a	n/a	1
402.4910000000	n/a	402491	NovelVariableSOA	1650	n/a	n/a	1
404.1410000000	n/a	404141	FrequentVariableSOA	1733	n/a	n/a	1
405.8740000000	n/a	405874	GoVariableSOA	390	n/a	n/a	1
407.5740000000	n/a	407574	FrequentVariableSOA	1666	n/a	n/a	1
409.2410000000	n/a	409241	GoVariableSOA	362	n/a	n/a	1
410.9910000000	n/a	410991	FrequentVariableSOA	1583	n/a	n/a	1
412.5740000000	n/a	412574	FrequentVariableSOA	1666	n/a	n/a	1
414.2410000000	n/a	414241	FrequentVariableSOA	1533	n/a	n/a	1
415.7740000000	n/a	415774	FrequentVariableSOA	1616	n/a	n/a	1
417.3910000000	n/a	417391	GoVariableSOA	338	n/a	n/a	1
419.1580000000	n/a	419158	FrequentVariableSOA	1533	n/a	n/a	1
420.6910000000	n/a	420691	FrequentVariableSOA	1566	n/a	n/a	1
422.2580000000	n/a	422258	FrequentVariableSOA	1616	n/a	n/a	1
423.8740000000	n/a	423874	NovelVariableSOA	1583	n/a	n/a	1
425.4570000000	n/a	425457	FrequentVariableSOA	1516	n/a	n/a	1
426.9740000000	n/a	426974	FrequentVariableSOA	1800	n/a	n/a	1
428.7740000000	n/a	428774	FrequentVariableSOA	1616	n/a	n/a	1
430.3910000000	n/a	430391	FrequentVariableSOA	1733	n/a	n/a	1
432.1240000000	n/a	432124	NovelVariableSOA	1683	n/a	n/a	1
433.8070000000	n/a	433807	FrequentVariableSOA	1683	n/a	n/a	1
435.4910000000	n/a	435491	FrequentVariableSOA	1733	n/a	n/a	1
437.2240000000	n/a	437224	FrequentVariableSOA	1683	n/a	n/a	1
438.9070000000	n/a	438907	FrequentVariableSOA	1566	n/a	n/a	1
440.4740000000	n/a	440474	NovelVariableSOA	1533	n/a	n/a	1
442.0070000000	n/a	442007	FrequentVariableSOA	1666	n/a	n/a	1
443.6740000000	n/a	443674	FrequentVariableSOA	1716	n/a	n/a	1
445.3910000000	n/a	445391	GoVariableSOA	435	n/a	n/a	1
447.1070000000	n/a	447107	FrequentVariableSOA	1650	n/a	n/a	1
448.7570000000	n/a	448757	FrequentVariableSOA	1650	n/a	n/a	1
450.4070000000	n/a	450407	FrequentVariableSOA	1716	n/a	n/a	1
452.1240000000	n/a	452124	FrequentVariableSOA	1516	n/a	n/a	1
453.6410000000	n/a	453641	NovelVariableSOA	1750	n/a	n/a	1
455.3910000000	n/a	455391	FrequentVariableSOA	1566	n/a	n/a	1
456.9570000000	n/a	456957	FrequentVariableSOA	1533	n/a	n/a	1
458.4910000000	n/a	458491	FrequentVariableSOA	1600	n/a	n/a	1
460.0910000000	n/a	460091	FrequentVariableSOA	1550	n/a	n/a	1
461.6410000000	n/a	461641	FrequentVariableSOA	1583	n/a	n/a	1
463.2240000000	n/a	463224	GoFixedSOA	446	n/a	n/a	1
464.8570000000	n/a	464857	FrequentFixedSOA	1633	n/a	n/a	1
466.4910000000	n/a	466491	FrequentFixedSOA	1633	n/a	n/a	1
468.1240000000	n/a	468124	FrequentFixedSOA	1633	n/a	n/a	1
469.7570000000	n/a	469757	FrequentFixedSOA	1633	n/a	n/a	1
471.3910000000	n/a	471391	FrequentFixedSOA	1633	n/a	n/a	1
473.0240000000	n/a	473024	FrequentFixedSOA	1633	n/a	n/a	1
474.6570000000	n/a	474657	NovelFixedSOA	1633	n/a	n/a	1
476.2910000000	n/a	476291	FrequentFixedSOA	1633	n/a	n/a	1
477.9240000000	n/a	477924	FrequentFixedSOA	1633	n/a	n/a	1
479.5570000000	n/a	479557	FrequentFixedSOA	1633	n/a	n/a	1
481.1910000000	n/a	481191	NovelFixedSOA	1633	n/a	n/a	1
482.8240000000	n/a	482824	FrequentFixedSOA	1633	n/a	n/a	1
484.4570000000	n/a	484457	GoFixedSOA	516	n/a	n/a	1
486.0910000000	n/a	486091	FrequentFixedSOA	1633	n/a	n/a	1
487.7240000000	n/a	487724	FrequentFixedSOA	1633	n/a	n/a	1
489.3570000000	n/a	489357	GoFixedSOA	673	n/a	n/a	1
490.9910000000	n/a	490991	FrequentFixedSOA	1633	n/a	n/a	1
492.6240000000	n/a	492624	NovelFixedSOA	1633	n/a	n/a	1
494.2570000000	n/a	494257	FrequentFixedSOA	1633	n/a	n/a	1
495.8910000000	n/a	495891	FrequentFixedSOA	1633	n/a	n/a	1
497.5240000000	n/a	497524	FrequentFixedSOA	1633	n/a	n/a	1
499.1570000000	n/a	499157	FrequentFixedSOA	1633	n/a	n/a	1
500.7910000000	n/a	500791	FrequentFixedSOA	1633	n/a	n/a	1
502.4240000000	n/a	502424	GoFixedSOA	392	n/a	n/a	1
504.0570000000	n/a	504057	FrequentFixedSOA	1633	n/a	n/a	1
505.6910000000	n/a	505691	FrequentFixedSOA	1633	n/a	n/a	1
507.3240000000	n/a	507324	NovelFixedSOA	1633	n/a	n/a	1
508.9570000000	n/a	508957	FrequentFixedSOA	1633	n/a	n/a	1
510.5910000000	n/a	510591	FrequentFixedSOA	1633	n/a	n/a	1
512.2240000000	n/a	512224	FrequentFixedSOA	1633	n/a	n/a	1
513.8570000000	n/a	513857	FrequentFixedSOA	1633	n/a	n/a	1
515.4910000000	n/a	515491	FrequentFixedSOA	1633	n/a	n/a	1
517.1240000000	n/a	517124	NovelFixedSOA	1633	n/a	n/a	1
518.7570000000	n/a	518757	FrequentFixedSOA	1633	n/a	n/a	1
520.3910000000	n/a	520391	FrequentFixedSOA	1633	n/a	n/a	1
522.0240000000	n/a	522024	FrequentFixedSOA	1633	n/a	n/a	1
523.6570000000	n/a	523657	FrequentFixedSOA	1633	n/a	n/a	1
525.2910000000	n/a	525291	GoFixedSOA	1633	n/a	n/a	0
526.9240000000	n/a	526924	FrequentFixedSOA	1633	n/a	n/a	1
528.5570000000	n/a	528557	FrequentFixedSOA	1633	n/a	n/a	1
530.1910000000	n/a	530191	NovelFixedSOA	1633	n/a	n/a	1
531.8240000000	n/a	531824	FrequentFixedSOA	1633	n/a	n/a	1
533.4570000000	n/a	533457	FrequentFixedSOA	1633	n/a	n/a	1
535.0910000000	n/a	535091	NovelFixedSOA	1633	n/a	n/a	1
536.7240000000	n/a	536724	FrequentFixedSOA	1633	n/a	n/a	1
538.3570000000	n/a	538357	FrequentFixedSOA	1633	n/a	n/a	1
539.9910000000	n/a	539991	FrequentFixedSOA	1633	n/a	n/a	1
541.6240000000	n/a	541624	FrequentFixedSOA	1633	n/a	n/a	1
543.2570000000	n/a	543257	FrequentFixedSOA	1633	n/a	n/a	1
544.8910000000	n/a	544891	GoFixedSOA	432	n/a	n/a	1
546.5240000000	n/a	546524	FrequentFixedSOA	1633	n/a	n/a	1
548.1570000000	n/a	548157	FrequentFixedSOA	1633	n/a	n/a	1
549.7910000000	n/a	549791	FrequentFixedSOA	1633	n/a	n/a	1
551.4240000000	n/a	551424	FrequentFixedSOA	1633	n/a	n/a	1
553.0570000000	n/a	553057	FrequentFixedSOA	1633	n/a	n/a	1
554.6910000000	n/a	554691	NovelFixedSOA	1633	n/a	n/a	1
556.3240000000	n/a	556324	FrequentFixedSOA	1633	n/a	n/a	1
557.9570000000	n/a	557957	GoFixedSOA	576	n/a	n/a	1
559.5910000000	n/a	559591	FrequentFixedSOA	1633	n/a	n/a	1
561.2240000000	n/a	561224	FrequentFixedSOA	1633	n/a	n/a	1
562.8570000000	n/a	562857	FrequentFixedSOA	1633	n/a	n/a	1
564.4910000000	n/a	564491	FrequentFixedSOA	1633	n/a	n/a	1
566.1240000000	n/a	566124	FrequentFixedSOA	1633	n/a	n/a	1
567.7570000000	n/a	567757	FrequentFixedSOA	1633	n/a	n/a	1
569.3910000000	n/a	569391	FrequentFixedSOA	1633	n/a	n/a	1
571.0240000000	n/a	571024	FrequentFixedSOA	1633	n/a	n/a	1
572.6570000000	n/a	572657	NovelFixedSOA	1633	n/a	n/a	1
574.2910000000	n/a	574291	FrequentFixedSOA	1633	n/a	n/a	1
575.9240000000	n/a	575924	FrequentFixedSOA	1633	n/a	n/a	1
577.5570000000	n/a	577557	GoVariableSOA	456	n/a	n/a	1
579.2070000000	n/a	579207	FrequentVariableSOA	1783	n/a	n/a	1
580.9910000000	n/a	580991	FrequentVariableSOA	1716	n/a	n/a	1
582.7070000000	n/a	582707	FrequentVariableSOA	1633	n/a	n/a	1
584.3410000000	n/a	584341	FrequentVariableSOA	1733	n/a	n/a	1
586.0740000000	n/a	586074	FrequentVariableSOA	1583	n/a	n/a	1
587.6570000000	n/a	587657	FrequentVariableSOA	1500	n/a	n/a	1
589.1570000000	n/a	589157	NovelVariableSOA	1733	n/a	n/a	1
590.8910000000	n/a	590891	FrequentVariableSOA	1583	n/a	n/a	1
592.4740000000	n/a	592474	FrequentVariableSOA	1666	n/a	n/a	1
594.1410000000	n/a	594141	FrequentVariableSOA	1650	n/a	n/a	1
595.7910000000	n/a	595791	NovelVariableSOA	1516	n/a	n/a	1
597.3070000000	n/a	597307	FrequentVariableSOA	1633	n/a	n/a	1
598.9410000000	n/a	598941	GoVariableSOA	519	n/a	n/a	1
600.5570000000	n/a	600557	FrequentVariableSOA	1750	n/a	n/a	1
602.3070000000	n/a	602307	FrequentVariableSOA	1700	n/a	n/a	1
604.0070000000	n/a	604007	GoVariableSOA	492	n/a	n/a	1
605.6570000000	n/a	605657	FrequentVariableSOA	1600	n/a	n/a	1
607.2570000000	n/a	607257	NovelVariableSOA	1766	n/a	n/a	1
609.0240000000	n/a	609024	FrequentVariableSOA	1766	n/a	n/a	1
610.7910000000	n/a	610791	FrequentVariableSOA	1683	n/a	n/a	1
612.4740000000	n/a	612474	FrequentVariableSOA	1616	n/a	n/a	1
614.0910000000	n/a	614091	FrequentVariableSOA	1616	n/a	n/a	1
615.7070000000	n/a	615707	FrequentVariableSOA	1700	n/a	n/a	1
617.4070000000	n/a	617407	GoVariableSOA	1666	n/a	n/a	0
619.0740000000	n/a	619074	FrequentVariableSOA	1666	n/a	n/a	1
620.7410000000	n/a	620741	FrequentVariableSOA	1716	n/a	n/a	1
622.4570000000	n/a	622457	NovelVariableSOA	1583	n/a	n/a	1
624.0410000000	n/a	624041	FrequentVariableSOA	1666	n/a	n/a	1
625.7070000000	n/a	625707	FrequentVariableSOA	1616	n/a	n/a	1
627.3240000000	n/a	627324	FrequentVariableSOA	1533	n/a	n/a	1
628.8570000000	n/a	628857	FrequentVariableSOA	1700	n/a	n/a	1
630.5570000000	n/a	630557	FrequentVariableSOA	1516	n/a	n/a	1
632.0740000000	n/a	632074	NovelVariableSOA	1583	n/a	n/a	1
633.6570000000	n/a	633657	FrequentVariableSOA	1650	n/a	n/a	1
635.3070000000	n/a	635307	FrequentVariableSOA	1666	n/a	n/a	1
636.9740000000	n/a	636974	FrequentVariableSOA	1750	n/a	n/a	1
638.7240000000	n/a	638724	FrequentVariableSOA	1733	n/a	n/a	1
640.4570000000	n/a	640457	GoVariableSOA	438	n/a	n/a	1
642.2070000000	n/a	642207	FrequentVariableSOA	1616	n/a	n/a	1
643.8240000000	n/a	643824	FrequentVariableSOA	1533	n/a	n/a	1
645.3570000000	n/a	645357	NovelVariableSOA	1633	n/a	n/a	1
646.9910000000	n/a	646991	FrequentVariableSOA	1550	n/a	n/a	1
648.5410000000	n/a	648541	FrequentVariableSOA	1733	n/a	n/a	1
650.2740000000	n/a	650274	NovelVariableSOA	1783	n/a	n/a	1
652.0570000000	n/a	652057	FrequentVariableSOA	1516	n/a	n/a	1
653.5740000000	n/a	653574	FrequentVariableSOA	1783	n/a	n/a	1
655.3570000000	n/a	655357	FrequentVariableSOA	1633	n/a	n/a	1
656.9910000000	n/a	656991	FrequentVariableSOA	1583	n/a	n/a	1
658.5740000000	n/a	658574	FrequentVariableSOA	1566	n/a	n/a	1
660.1400000000	n/a	660140	GoVariableSOA	1566	n/a	n/a	0
661.7070000000	n/a	661707	FrequentVariableSOA	1600	n/a	n/a	1
663.3070000000	n/a	663307	FrequentVariableSOA	1566	n/a	n/a	1
664.8740000000	n/a	664874	FrequentVariableSOA	1566	n/a	n/a	1
666.4400000000	n/a	666440	FrequentVariableSOA	1516	n/a	n/a	1
667.9570000000	n/a	667957	FrequentVariableSOA	1583	n/a	n/a	1
669.5400000000	n/a	669540	NovelVariableSOA	1633	n/a	n/a	1
671.1740000000	n/a	671174	FrequentVariableSOA	1550	n/a	n/a	1
672.7240000000	n/a	672724	GoVariableSOA	477	n/a	n/a	1
674.4740000000	n/a	674474	FrequentVariableSOA	1500	n/a	n/a	1
675.9740000000	n/a	675974	FrequentVariableSOA	1533	n/a	n/a	1
677.5070000000	n/a	677507	FrequentVariableSOA	1633	n/a	n/a	1
679.1400000000	n/a	679140	FrequentVariableSOA	1650	n/a	n/a	1
680.7900000000	n/a	680790	FrequentVariableSOA	1716	n/a	n/a	1
682.5070000000	n/a	682507	FrequentVariableSOA	1566	n/a	n/a	1
684.0740000000	n/a	684074	FrequentVariableSOA	1516	n/a	n/a	1
685.5900000000	n/a	685590	FrequentVariableSOA	1783	n/a	n/a	1
687.3740000000	n/a	687374	NovelVariableSOA	1533	n/a	n/a	1
688.9070000000	n/a	688907	FrequentVariableSOA	1783	n/a	n/a	1
690.6900000000	n/a	690690	FrequentVariableSOA	1500	n/a	n/a	1
692.1900000000	n/a	692190	GoFixedSOA	380	n/a	n/a	1
693.8240000000	n/a	693824	FrequentFixedSOA	1633	n/a	n/a	1
695.4570000000	n/a	695457	FrequentFixedSOA	1633	n/a	n/a	1
697.0900000000	n/a	697090	FrequentFixedSOA	1633	n/a	n/a	1
698.7240000000	n/a	698724	GoFixedSOA	369	n/a	n/a	1
700.3570000000	n/a	700357	FrequentFixedSOA	1633	n/a	n/a	1
701.9900000000	n/a	701990	FrequentFixedSOA	1633	n/a	n/a	1
703.6240000000	n/a	703624	FrequentFixedSOA	1633	n/a	n/a	1
705.2570000000	n/a	705257	FrequentFixedSOA	1633	n/a	n/a	1
706.8900000000	n/a	706890	GoFixedSOA	392	n/a	n/a	1
708.5240000000	n/a	708524	FrequentFixedSOA	1633	n/a	n/a	1
710.1570000000	n/a	710157	FrequentFixedSOA	1633	n/a	n/a	1
711.7900000000	n/a	711790	NovelFixedSOA	1633	n/a	n/a	1
713.4240000000	n/a	713424	FrequentFixedSOA	1633	n/a	n/a	1
715.0570000000	n/a	715057	FrequentFixedSOA	1633	n/a	n/a	1
716.6900000000	n/a	716690	GoFixedSOA	420	n/a	n/a	1
718.3240000000	n/a	718324	FrequentFixedSOA	1633	n/a	n/a	1
719.9570000000	n/a	719957	FrequentFixedSOA	1633	n/a	n/a	1
721.5900000000	n/a	721590	FrequentFixedSOA	1633	n/a	n/a	1
723.2240000000	n/a	723224	NovelFixedSOA	1633	n/a	n/a	1
724.8570000000	n/a	724857	FrequentFixedSOA	1633	n/a	n/a	1
726.4900000000	n/a	726490	NovelFixedSOA	1633	n/a	n/a	1
728.1240000000	n/a	728124	FrequentFixedSOA	1633	n/a	n/a	1
729.7570000000	n/a	729757	FrequentFixedSOA	1633	n/a	n/a	1
731.3900000000	n/a	731390	FrequentFixedSOA	1633	n/a	n/a	1
733.0240000000	n/a	733024	GoFixedSOA	412	n/a	n/a	1
734.6570000000	n/a	734657	FrequentFixedSOA	1633	n/a	n/a	1
736.2900000000	n/a	736290	FrequentFixedSOA	1633	n/a	n/a	1
737.9240000000	n/a	737924	FrequentFixedSOA	1633	n/a	n/a	1
739.5570000000	n/a	739557	GoFixedSOA	425	n/a	n/a	1
741.1900000000	n/a	741190	FrequentFixedSOA	1633	n/a	n/a	1
742.8240000000	n/a	742824	FrequentFixedSOA	1633	n/a	n/a	1
744.4570000000	n/a	744457	NovelFixedSOA	1633	n/a	n/a	1
746.0900000000	n/a	746090	FrequentFixedSOA	1633	n/a	n/a	1
747.7240000000	n/a	747724	GoFixedSOA	375	n/a	n/a	1
749.3570000000	n/a	749357	FrequentFixedSOA	1633	n/a	n/a	1
750.9900000000	n/a	750990	FrequentFixedSOA	1633	n/a	n/a	1
752.6240000000	n/a	752624	FrequentFixedSOA	1633	n/a	n/a	1
754.2570000000	n/a	754257	FrequentFixedSOA	1633	n/a	n/a	1
755.8900000000	n/a	755890	FrequentFixedSOA	1633	n/a	n/a	1
757.5240000000	n/a	757524	FrequentFixedSOA	1633	n/a	n/a	1
759.1570000000	n/a	759157	NovelFixedSOA	1633	n/a	n/a	1
760.7900000000	n/a	760790	FrequentFixedSOA	1633	n/a	n/a	1
762.4240000000	n/a	762424	FrequentFixedSOA	1633	n/a	n/a	1
764.0570000000	n/a	764057	FrequentFixedSOA	1633	n/a	n/a	1
765.6900000000	n/a	765690	GoFixedSOA	401	n/a	n/a	1
767.3240000000	n/a	767324	FrequentFixedSOA	1633	n/a	n/a	1
768.9570000000	n/a	768957	FrequentFixedSOA	1633	n/a	n/a	1
770.5900000000	n/a	770590	FrequentFixedSOA	1633	n/a	n/a	1
772.2240000000	n/a	772224	FrequentFixedSOA	1633	n/a	n/a	1
773.8570000000	n/a	773857	NovelFixedSOA	1633	n/a	n/a	1
775.4900000000	n/a	775490	FrequentFixedSOA	1633	n/a	n/a	1
777.1240000000	n/a	777124	FrequentFixedSOA	1633	n/a	n/a	1
778.7570000000	n/a	778757	NovelFixedSOA	1633	n/a	n/a	1
780.3900000000	n/a	780390	FrequentFixedSOA	1633	n/a	n/a	1
782.0240000000	n/a	782024	NovelFixedSOA	1633	n/a	n/a	1
783.6570000000	n/a	783657	FrequentFixedSOA	1633	n/a	n/a	1
785.2900000000	n/a	785290	FrequentFixedSOA	1633	n/a	n/a	1
786.9240000000	n/a	786924	FrequentFixedSOA	1633	n/a	n/a	1
788.5570000000	n/a	788557	FrequentFixedSOA	1633	n/a	n/a	1
790.1900000000	n/a	790190	FrequentFixedSOA	1633	n/a	n/a	1
791.8240000000	n/a	791824	FrequentFixedSOA	1633	n/a	n/a	1
793.4570000000	n/a	793457	FrequentFixedSOA	1633	n/a	n/a	1
795.0900000000	n/a	795090	GoFixedSOA	656	n/a	n/a	1
796.7240000000	n/a	796724	FrequentFixedSOA	1633	n/a	n/a	1
798.3570000000	n/a	798357	GoFixedSOA	470	n/a	n/a	1
799.9900000000	n/a	799990	FrequentFixedSOA	1633	n/a	n/a	1
801.6240000000	n/a	801624	FrequentFixedSOA	1633	n/a	n/a	1
803.2570000000	n/a	803257	NovelFixedSOA	1633	n/a	n/a	1
804.8900000000	n/a	804890	FrequentFixedSOA	1633	n/a	n/a	1
806.5240000000	n/a	806524	GoVariableSOA	1650	n/a	n/a	0
808.1740000000	n/a	808174	FrequentVariableSOA	1766	n/a	n/a	1
809.9400000000	n/a	809940	FrequentVariableSOA	1683	n/a	n/a	1
811.6240000000	n/a	811624	FrequentVariableSOA	1583	n/a	n/a	1
813.2070000000	n/a	813207	GoVariableSOA	476	n/a	n/a	1
814.9740000000	n/a	814974	FrequentVariableSOA	1566	n/a	n/a	1
816.5400000000	n/a	816540	FrequentVariableSOA	1666	n/a	n/a	1
818.2070000000	n/a	818207	FrequentVariableSOA	1533	n/a	n/a	1
819.7400000000	n/a	819740	FrequentVariableSOA	1700	n/a	n/a	1
821.4400000000	n/a	821440	GoVariableSOA	428	n/a	n/a	1
822.9740000000	n/a	822974	FrequentVariableSOA	1766	n/a	n/a	1
824.7400000000	n/a	824740	FrequentVariableSOA	1650	n/a	n/a	1
826.3900000000	n/a	826390	NovelVariableSOA	1666	n/a	n/a	1
828.0570000000	n/a	828057	FrequentVariableSOA	1533	n/a	n/a	1
829.5900000000	n/a	829590	FrequentVariableSOA	1616	n/a	n/a	1
831.2070000000	n/a	831207	GoVariableSOA	336	n/a	n/a	1
832.9740000000	n/a	832974	FrequentVariableSOA	1600	n/a	n/a	1
834.5740000000	n/a	834574	FrequentVariableSOA	1533	n/a	n/a	1
836.1070000000	n/a	836107	FrequentVariableSOA	1683	n/a	n/a	1
837.7900000000	n/a	837790	NovelVariableSOA	1500	n/a	n/a	1
839.2900000000	n/a	839290	FrequentVariableSOA	1566	n/a	n/a	1
840.8570000000	n/a	840857	NovelVariableSOA	1633	n/a	n/a	1
842.4900000000	n/a	842490	FrequentVariableSOA	1583	n/a	n/a	1
844.0740000000	n/a	844074	FrequentVariableSOA	1783	n/a	n/a	1
845.8570000000	n/a	845857	FrequentVariableSOA	1683	n/a	n/a	1
847.5400000000	n/a	847540	GoVariableSOA	375	n/a	n/a	1
849.0400000000	n/a	849040	FrequentVariableSOA	1666	n/a	n/a	1
850.7070000000	n/a	850707	FrequentVariableSOA	1516	n/a	n/a	1
852.2240000000	n/a	852224	FrequentVariableSOA	1583	n/a	n/a	1
853.8070000000	n/a	853807	GoVariableSOA	462	n/a	n/a	1
855.5740000000	n/a	855574	FrequentVariableSOA	1750	n/a	n/a	1
857.3240000000	n/a	857324	FrequentVariableSOA	1550	n/a	n/a	1
858.8740000000	n/a	858874	NovelVariableSOA	1750	n/a	n/a	1
860.6240000000	n/a	860624	FrequentVariableSOA	1533	n/a	n/a	1
862.1570000000	n/a	862157	GoVariableSOA	452	n/a	n/a	1
863.6900000000	n/a	863690	FrequentVariableSOA	1683	n/a	n/a	1
865.3740000000	n/a	865374	FrequentVariableSOA	1500	n/a	n/a	1
866.8740000000	n/a	866874	FrequentVariableSOA	1666	n/a	n/a	1
868.5400000000	n/a	868540	FrequentVariableSOA	1600	n/a	n/a	1
870.1400000000	n/a	870140	FrequentVariableSOA	1700	n/a	n/a	1
871.8400000000	n/a	871840	FrequentVariableSOA	1700	n/a	n/a	1
873.5400000000	n/a	873540	NovelVariableSOA	1750	n/a	n/a	1
875.2900000000	n/a	875290	FrequentVariableSOA	1650	n/a	n/a	1
876.9400000000	n/a	876940	FrequentVariableSOA	1516	n/a	n/a	1
878.4570000000	n/a	878457	FrequentVariableSOA	1700	n/a	n/a	1
880.1570000000	n/a	880157	GoVariableSOA	461	n/a	n/a	1
881.8740000000	n/a	881874	FrequentVariableSOA	1733	n/a	n/a	1
883.6070000000	n/a	883607	FrequentVariableSOA	1783	n/a	n/a	1
885.3900000000	n/a	885390	FrequentVariableSOA	1550	n/a	n/a	1
886.9400000000	n/a	886940	FrequentVariableSOA	1716	n/a	n/a	1
888.6570000000	n/a	888657	NovelVariableSOA	1566	n/a	n/a	1
890.2240000000	n/a	890224	FrequentVariableSOA	1566	n/a	n/a	1
891.7900000000	n/a	891790	FrequentVariableSOA	1650	n/a	n/a	1
893.4400000000	n/a	893440	NovelVariableSOA	1716	n/a	n/a	1
895.1570000000	n/a	895157	FrequentVariableSOA	1666	n/a	n/a	1
896.8240000000	n/a	896824	NovelVariableSOA	1733	n/a	n/a	1
898.5570000000	n/a	898557	FrequentVariableSOA	1716	n/a	n/a	1
900.2730000000	n/a	900273	FrequentVariableSOA	1516	n/a	n/a	1
901.7900000000	n/a	901790	FrequentVariableSOA	1716	n/a	n/a	1
903.5070000000	n/a	903507	FrequentVariableSOA	1533	n/a	n/a	1
905.0400000000	n/a	905040	FrequentVariableSOA	1516	n/a	n/a	1
906.5570000000	n/a	906557	FrequentVariableSOA	1583	n/a	n/a	1
908.1400000000	n/a	908140	FrequentVariableSOA	1766	n/a	n/a	1
909.9070000000	n/a	909907	GoVariableSOA	381	n/a	n/a	1
911.4230000000	n/a	911423	FrequentVariableSOA	1733	n/a	n/a	1
913.1570000000	n/a	913157	GoVariableSOA	412	n/a	n/a	1
914.8230000000	n/a	914823	FrequentVariableSOA	1500	n/a	n/a	1
916.3230000000	n/a	916323	FrequentVariableSOA	1550	n/a	n/a	1
917.8730000000	n/a	917873	NovelVariableSOA	1650	n/a	n/a	1
919.5230000000	n/a	919523	FrequentVariableSOA	1566	n/a	n/a	1
