onset	duration	sample	trial_type	response_time	stim_file	value	correct
1.9060000000	n/a	1906	ignore	2099	n/a	n/a	1
5.0720000000	n/a	5072	ignore	1000	n/a	n/a	1
7.0720000000	n/a	7072	ignore	1700	n/a	n/a	1
8.7720000000	n/a	8772	ignore	1628	n/a	n/a	1
11.4720000000	n/a	11472	ignore	1000	n/a	n/a	1
13.4720000000	n/a	13472	ignore	1700	n/a	n/a	1
15.1720000000	n/a	15172	ignore	1147	n/a	n/a	1
17.3890000000	n/a	17389	ignore	1000	n/a	n/a	1
19.3890000000	n/a	19389	ignore	1700	n/a	n/a	1
21.0890000000	n/a	21089	ignore	2197	n/a	n/a	1
24.3560000000	n/a	24356	ignore	1000	n/a	n/a	1
26.3560000000	n/a	26356	ignore	1700	n/a	n/a	1
28.0560000000	n/a	28056	ignore	2656	n/a	n/a	0
31.7890000000	n/a	31789	ignore	1000	n/a	n/a	1
33.7890000000	n/a	33789	ignore	1700	n/a	n/a	1
35.4890000000	n/a	35489	ignore	3802	n/a	n/a	1
40.3560000000	n/a	40356	ignore	1000	n/a	n/a	1
42.3560000000	n/a	42356	ignore	1700	n/a	n/a	1
44.0560000000	n/a	44056	ignore	2635	n/a	n/a	1
47.7560000000	n/a	47756	ignore	1000	n/a	n/a	1
49.7560000000	n/a	49756	ignore	1700	n/a	n/a	1
51.4560000000	n/a	51456	ignore	818	n/a	n/a	0
53.3390000000	n/a	53339	ignore	1000	n/a	n/a	1
55.3390000000	n/a	55339	ignore	1700	n/a	n/a	1
57.0390000000	n/a	57039	ignore	2729	n/a	n/a	1
59.8390000000	n/a	59839	ignore 	2000	n/a	n/a	1
68.5220000000	n/a	68522	ignore	1000	n/a	n/a	1
70.5220000000	n/a	70522	ignore	1700	n/a	n/a	1
72.2220000000	n/a	72222	ignore	2402	n/a	n/a	1
75.6890000000	n/a	75689	ignore	1000	n/a	n/a	1
77.6890000000	n/a	77689	ignore	1700	n/a	n/a	1
79.3890000000	n/a	79389	ignore	1118	n/a	n/a	0
81.5720000000	n/a	81572	ignore	1000	n/a	n/a	1
83.5720000000	n/a	83572	ignore	1700	n/a	n/a	1
85.2720000000	n/a	85272	ignore	1712	n/a	n/a	1
88.0560000000	n/a	88056	ignore	1000	n/a	n/a	1
90.0560000000	n/a	90056	ignore	1700	n/a	n/a	1
91.7560000000	n/a	91756	ignore	2117	n/a	n/a	0
94.9390000000	n/a	94939	ignore	1000	n/a	n/a	1
96.9390000000	n/a	96939	ignore	1700	n/a	n/a	1
98.6390000000	n/a	98639	ignore	2818	n/a	n/a	0
102.5220000000	n/a	102522	ignore	1000	n/a	n/a	1
104.5220000000	n/a	104522	ignore	1700	n/a	n/a	1
106.2220000000	n/a	106222	ignore	3570	n/a	n/a	0
110.8560000000	n/a	110856	ignore	1000	n/a	n/a	1
112.8560000000	n/a	112856	ignore	1700	n/a	n/a	1
114.5560000000	n/a	114556	ignore	900	n/a	n/a	1
116.5220000000	n/a	116522	ignore	1000	n/a	n/a	1
118.5220000000	n/a	118522	ignore	1700	n/a	n/a	1
120.2220000000	n/a	120222	ignore	4473	n/a	n/a	1
124.7720000000	n/a	124772	ignore 	2000	n/a	n/a	1
165.3550000000	n/a	165355	PenaltyB1	2059	n/a	n/a	1
168.4890000000	n/a	168489	NeuCorrB1	1000	n/a	n/a	1
170.4890000000	n/a	170489	ignore	1700	n/a	n/a	1
172.1890000000	n/a	172189	PenaltyB1	3437	n/a	n/a	0
176.6890000000	n/a	176689	PunIncorrB1	1000	n/a	n/a	1
178.6890000000	n/a	178689	ignore	1700	n/a	n/a	1
180.3890000000	n/a	180389	PenaltyB1	4526	n/a	n/a	0
185.9890000000	n/a	185989	PunIncorrB1	1000	n/a	n/a	1
187.9890000000	n/a	187989	STATUS	1700	n/a	n/a	1
189.6890000000	n/a	189689	RewardB1	3448	n/a	n/a	0
194.2050000000	n/a	194205	NeuIncorrB1	1000	n/a	n/a	1
196.2050000000	n/a	196205	STATUS	1700	n/a	n/a	1
197.9050000000	n/a	197905	RewardB1	3650	n/a	n/a	1
202.6220000000	n/a	202622	RewardCorrB1	1000	n/a	n/a	1
204.6220000000	n/a	204622	ignore	1700	n/a	n/a	1
206.3220000000	n/a	206322	PenaltyB1	5819	n/a	n/a	0
213.2050000000	n/a	213205	PunIncorrB1	1000	n/a	n/a	1
215.2050000000	n/a	215205	STATUS	1700	n/a	n/a	1
216.9050000000	n/a	216905	PenaltyB1	2520	n/a	n/a	0
220.4890000000	n/a	220489	PunIncorrB1	1000	n/a	n/a	1
222.4890000000	n/a	222489	STATUS	1700	n/a	n/a	1
224.1890000000	n/a	224189	PenaltyB1	724	n/a	n/a	0
225.9890000000	n/a	225989	PunIncorrB1	1000	n/a	n/a	1
227.9890000000	n/a	227989	STATUS	1700	n/a	n/a	1
229.6890000000	n/a	229689	PenaltyB1	641	n/a	n/a	0
231.4050000000	n/a	231405	NeuIncorrB1	1000	n/a	n/a	1
233.4050000000	n/a	233405	STATUS	1700	n/a	n/a	1
235.1050000000	n/a	235105	RewardB1	1539	n/a	n/a	0
237.7220000000	n/a	237722	NeuIncorrB1	1000	n/a	n/a	1
239.7220000000	n/a	239722	STATUS	1700	n/a	n/a	1
241.4220000000	n/a	241422	PenaltyB1	3329	n/a	n/a	0
245.8220000000	n/a	245822	PunIncorrB1	1000	n/a	n/a	1
247.8220000000	n/a	247822	STATUS	1700	n/a	n/a	1
249.5220000000	n/a	249522	RewardB1	2312	n/a	n/a	1
252.9050000000	n/a	252905	NeuCorrB1	1000	n/a	n/a	1
254.9050000000	n/a	254905	STATUS	1700	n/a	n/a	1
256.6050000000	n/a	256605	PenaltyB1	1334	n/a	n/a	0
259.0050000000	n/a	259005	PunIncorrB1	1000	n/a	n/a	1
261.0050000000	n/a	261005	STATUS	1700	n/a	n/a	1
262.7050000000	n/a	262705	RewardB1	1952	n/a	n/a	0
265.7220000000	n/a	265722	NeuIncorrB1	1000	n/a	n/a	1
267.7220000000	n/a	267722	STATUS	1700	n/a	n/a	1
269.4220000000	n/a	269422	PenaltyB1	3807	n/a	n/a	1
274.3050000000	n/a	274305	NeuCorrB1	1000	n/a	n/a	1
276.3050000000	n/a	276305	STATUS	1700	n/a	n/a	1
278.0050000000	n/a	278005	PenaltyB1	705	n/a	n/a	0
279.7890000000	n/a	279789	PunIncorrB1	1000	n/a	n/a	1
281.7890000000	n/a	281789	STATUS	1700	n/a	n/a	1
283.4890000000	n/a	283489	RewardB1	1171	n/a	n/a	1
285.7220000000	n/a	285722	NeuCorrB1	1000	n/a	n/a	1
287.7220000000	n/a	287722	STATUS	1700	n/a	n/a	1
289.4220000000	n/a	289422	PenaltyB1	674	n/a	n/a	1
291.1720000000	n/a	291172	NeuCorrB1	1000	n/a	n/a	1
293.1720000000	n/a	293172	STATUS	1700	n/a	n/a	1
294.8720000000	n/a	294872	RewardB1	793	n/a	n/a	1
296.7390000000	n/a	296739	RewardCorrB1	1000	n/a	n/a	1
298.7390000000	n/a	298739	STATUS	1700	n/a	n/a	1
300.4390000000	n/a	300439	RewardB1	1697	n/a	n/a	1
303.2050000000	n/a	303205	RewardCorrB1	1000	n/a	n/a	1
305.2050000000	n/a	305205	STATUS	1700	n/a	n/a	1
306.9050000000	n/a	306905	RewardB1	1973	n/a	n/a	0
309.9550000000	n/a	309955	RewIncorrB1	1000	n/a	n/a	1
311.9550000000	n/a	311955	STATUS	1700	n/a	n/a	1
313.6550000000	n/a	313655	RewardB1	2111	n/a	n/a	0
316.8390000000	n/a	316839	NeuIncorrB1	1000	n/a	n/a	1
318.8390000000	n/a	318839	STATUS	1700	n/a	n/a	1
320.5390000000	n/a	320539	RewardB1	1141	n/a	n/a	0
322.7550000000	n/a	322755	NeuIncorrB1	1000	n/a	n/a	1
324.7550000000	n/a	324755	STATUS	1700	n/a	n/a	1
326.4550000000	n/a	326455	PenaltyB1	1260	n/a	n/a	0
328.7890000000	n/a	328789	PunIncorrB1	1000	n/a	n/a	1
330.7890000000	n/a	330789	STATUS	1700	n/a	n/a	1
332.4890000000	n/a	332489	RewardB1	785	n/a	n/a	1
334.3390000000	n/a	334339	RewardCorrB1	1000	n/a	n/a	1
336.3390000000	n/a	336339	STATUS	1700	n/a	n/a	1
338.0390000000	n/a	338039	PenaltyB1	939	n/a	n/a	0
340.0550000000	n/a	340055	NeuIncorrB1	1000	n/a	n/a	1
342.0550000000	n/a	342055	STATUS	1700	n/a	n/a	1
343.7550000000	n/a	343755	RewardB1	1486	n/a	n/a	1
346.3050000000	n/a	346305	RewardCorrB1	1000	n/a	n/a	1
348.3050000000	n/a	348305	STATUS	1700	n/a	n/a	1
350.0050000000	n/a	350005	RewardB1	1861	n/a	n/a	0
352.9390000000	n/a	352939	NeuIncorrB1	1000	n/a	n/a	1
354.9390000000	n/a	354939	STATUS	1700	n/a	n/a	1
356.6390000000	n/a	356639	RewardB1	4031	n/a	n/a	0
361.7390000000	n/a	361739	NeuIncorrB1	1000	n/a	n/a	1
363.7390000000	n/a	363739	STATUS	1700	n/a	n/a	1
365.4390000000	n/a	365439	PenaltyB1	1044	n/a	n/a	1
367.5550000000	n/a	367555	NeuCorrB1	1000	n/a	n/a	1
369.5550000000	n/a	369555	STATUS	1700	n/a	n/a	1
371.2550000000	n/a	371255	RewardB1	3135	n/a	n/a	0
375.4550000000	n/a	375455	RewIncorrB1	1000	n/a	n/a	1
377.4550000000	n/a	377455	STATUS	1700	n/a	n/a	1
379.1550000000	n/a	379155	PenaltyB1	3649	n/a	n/a	1
383.8720000000	n/a	383872	NeuCorrB1	1000	n/a	n/a	1
385.8720000000	n/a	385872	STATUS	1700	n/a	n/a	1
387.5720000000	n/a	387572	RewardB1	1640	n/a	n/a	1
390.2880000000	n/a	390288	RewardCorrB1	1000	n/a	n/a	1
392.2890000000	n/a	392289	ignore	1700	n/a	n/a	1
393.9880000000	n/a	393988	PenaltyB1	2063	n/a	n/a	1
397.1220000000	n/a	397122	PunCorrB1	1000	n/a	n/a	1
399.1220000000	n/a	399122	STATUS	1700	n/a	n/a	1
400.8220000000	n/a	400822	RewardB1	2317	n/a	n/a	0
404.2050000000	n/a	404205	NeuIncorrB1	1000	n/a	n/a	1
406.2050000000	n/a	406205	STATUS	1700	n/a	n/a	1
407.9050000000	n/a	407905	PenaltyB1	1056	n/a	n/a	0
410.0380000000	n/a	410038	PunIncorrB1	1000	n/a	n/a	1
412.0390000000	n/a	412039	STATUS	1700	n/a	n/a	1
413.7380000000	n/a	413738	PenaltyB1	1631	n/a	n/a	1
416.4380000000	n/a	416438	NeuCorrB1	1000	n/a	n/a	1
418.4390000000	n/a	418439	STATUS	1700	n/a	n/a	1
420.1380000000	n/a	420138	RewardB1	1522	n/a	n/a	0
422.7380000000	n/a	422738	NeuIncorrB1	1000	n/a	n/a	1
424.7390000000	n/a	424739	STATUS	1700	n/a	n/a	1
426.4380000000	n/a	426438	PenaltyB1	1261	n/a	n/a	0
428.7720000000	n/a	428772	NeuIncorrB1	1000	n/a	n/a	1
430.7720000000	n/a	430772	STATUS	1700	n/a	n/a	1
432.4720000000	n/a	432472	RewardB1	1242	n/a	n/a	1
434.7880000000	n/a	434788	RewardCorrB1	1000	n/a	n/a	1
436.7880000000	n/a	436788	STATUS	1700	n/a	n/a	1
453.8880000000	n/a	453888	RewardB2	1770	n/a	n/a	1
456.7220000000	n/a	456722	RewardCorrB2	1000	n/a	n/a	1
458.7220000000	n/a	458722	ignore	1700	n/a	n/a	1
460.4220000000	n/a	460422	PenaltyB2	897	n/a	n/a	1
462.3880000000	n/a	462388	NeuCorrB2	1000	n/a	n/a	1
464.3880000000	n/a	464388	ignore	1700	n/a	n/a	1
466.0880000000	n/a	466088	RewardB2	1738	n/a	n/a	1
468.9050000000	n/a	468905	RewardCorrB2	1000	n/a	n/a	1
470.9050000000	n/a	470905	ignore	1700	n/a	n/a	1
472.6050000000	n/a	472605	RewardB2	1440	n/a	n/a	0
475.1220000000	n/a	475122	RewIncorrB2	1000	n/a	n/a	1
477.1220000000	n/a	477122	ignore	1700	n/a	n/a	1
478.8220000000	n/a	478822	PenaltyB2	1105	n/a	n/a	0
480.9880000000	n/a	480988	PunIncorrB2	1000	n/a	n/a	1
482.9880000000	n/a	482988	ignore	1700	n/a	n/a	1
484.6880000000	n/a	484688	RewardB2	1279	n/a	n/a	0
487.0380000000	n/a	487038	NeuIncorrB2	1000	n/a	n/a	1
489.0380000000	n/a	489038	ignore	1700	n/a	n/a	1
490.7380000000	n/a	490738	PenaltyB2	837	n/a	n/a	0
492.6380000000	n/a	492638	PunIncorrB2	1000	n/a	n/a	1
494.6380000000	n/a	494638	ignore	1700	n/a	n/a	1
496.3380000000	n/a	496338	RewardB2	1228	n/a	n/a	1
498.6380000000	n/a	498638	RewardCorrB2	1000	n/a	n/a	1
500.6380000000	n/a	500638	ignore	1700	n/a	n/a	1
502.3380000000	n/a	502338	PenaltyB2	900	n/a	n/a	1
504.3050000000	n/a	504305	NeuCorrB2	1000	n/a	n/a	1
506.3050000000	n/a	506305	ignore	1700	n/a	n/a	1
508.0050000000	n/a	508005	RewardB2	625	n/a	n/a	1
509.7050000000	n/a	509705	RewardCorrB2	1000	n/a	n/a	1
511.7050000000	n/a	511705	ignore	1700	n/a	n/a	1
513.4050000000	n/a	513405	PenaltyB2	4961	n/a	n/a	0
519.4380000000	n/a	519438	NeuIncorrB2	1000	n/a	n/a	1
521.4380000000	n/a	521438	ignore	1700	n/a	n/a	1
523.1380000000	n/a	523138	RewardB2	727	n/a	n/a	0
524.9380000000	n/a	524938	NeuIncorrB2	1000	n/a	n/a	1
526.9380000000	n/a	526938	ignore	1700	n/a	n/a	1
528.6380000000	n/a	528638	PenaltyB2	1977	n/a	n/a	0
531.6880000000	n/a	531688	PunIncorrB2	1000	n/a	n/a	1
533.6880000000	n/a	533688	ignore	1700	n/a	n/a	1
535.3880000000	n/a	535388	RewardB2	767	n/a	n/a	0
537.2220000000	n/a	537222	NeuIncorrB2	1000	n/a	n/a	1
539.2220000000	n/a	539222	ignore	1700	n/a	n/a	1
540.9220000000	n/a	540922	PenaltyB2	649	n/a	n/a	0
542.6380000000	n/a	542638	PunIncorrB2	1000	n/a	n/a	1
544.6380000000	n/a	544638	ignore	1700	n/a	n/a	1
546.3380000000	n/a	546338	RewardB2	2231	n/a	n/a	1
549.6380000000	n/a	549638	NeuCorrB2	1000	n/a	n/a	1
551.6380000000	n/a	551638	ignore	1700	n/a	n/a	1
553.3380000000	n/a	553338	PenaltyB2	1550	n/a	n/a	0
555.9550000000	n/a	555955	PunIncorrB2	1000	n/a	n/a	1
557.9550000000	n/a	557955	STATUS	1700	n/a	n/a	1
559.6550000000	n/a	559655	RewardB2	1797	n/a	n/a	1
562.5220000000	n/a	562522	RewardCorrB2	1000	n/a	n/a	1
564.5220000000	n/a	564522	ignore	1700	n/a	n/a	1
566.2220000000	n/a	566222	PenaltyB2	1605	n/a	n/a	0
568.9050000000	n/a	568905	PunIncorrB2	1000	n/a	n/a	1
570.9050000000	n/a	570905	STATUS	1700	n/a	n/a	1
572.6050000000	n/a	572605	RewardB2	1787	n/a	n/a	1
575.4550000000	n/a	575455	RewardCorrB2	1000	n/a	n/a	1
577.4550000000	n/a	577455	ignore	1700	n/a	n/a	1
579.1550000000	n/a	579155	PenaltyB2	924	n/a	n/a	0
581.1550000000	n/a	581155	NeuIncorrB2	1000	n/a	n/a	1
583.1550000000	n/a	583155	ignore	1700	n/a	n/a	1
584.8550000000	n/a	584855	PenaltyB2	1238	n/a	n/a	1
587.1550000000	n/a	587155	NeuCorrB2	1000	n/a	n/a	1
589.1550000000	n/a	589155	ignore	1700	n/a	n/a	1
590.8550000000	n/a	590855	PenaltyB2	621	n/a	n/a	0
592.5380000000	n/a	592538	PunIncorrB2	1000	n/a	n/a	1
594.5380000000	n/a	594538	STATUS	1700	n/a	n/a	1
596.2380000000	n/a	596238	RewardB2	2769	n/a	n/a	0
600.0720000000	n/a	600072	NeuIncorrB2	1000	n/a	n/a	1
602.0720000000	n/a	602072	STATUS	1700	n/a	n/a	1
603.7720000000	n/a	603772	RewardB2	915	n/a	n/a	0
605.7550000000	n/a	605755	RewIncorrB2	1000	n/a	n/a	1
607.7550000000	n/a	607755	ignore	1700	n/a	n/a	1
609.4550000000	n/a	609455	RewardB2	7163	n/a	n/a	1
617.6880000000	n/a	617688	RewardCorrB2	1000	n/a	n/a	1
619.6880000000	n/a	619688	ignore	1700	n/a	n/a	1
621.3880000000	n/a	621388	PenaltyB2	2409	n/a	n/a	1
624.8720000000	n/a	624872	NeuCorrB2	1000	n/a	n/a	1
626.8720000000	n/a	626872	ignore	1700	n/a	n/a	1
628.5720000000	n/a	628572	PenaltyB2	761	n/a	n/a	1
630.4050000000	n/a	630405	NeuCorrB2	1000	n/a	n/a	1
632.4050000000	n/a	632405	ignore	1700	n/a	n/a	1
634.1050000000	n/a	634105	RewardB2	1402	n/a	n/a	0
636.5720000000	n/a	636572	NeuIncorrB2	1000	n/a	n/a	1
638.5720000000	n/a	638572	ignore	1700	n/a	n/a	1
640.2720000000	n/a	640272	PenaltyB2	1250	n/a	n/a	1
642.5880000000	n/a	642588	NeuCorrB2	1000	n/a	n/a	1
644.5880000000	n/a	644588	ignore	1700	n/a	n/a	1
646.2880000000	n/a	646288	RewardB2	5451	n/a	n/a	1
652.8050000000	n/a	652805	NeuCorrB2	1000	n/a	n/a	1
654.8050000000	n/a	654805	ignore	1700	n/a	n/a	1
656.5050000000	n/a	656505	PenaltyB2	938	n/a	n/a	1
658.5050000000	n/a	658505	NeuCorrB2	1000	n/a	n/a	1
660.5050000000	n/a	660505	ignore	1700	n/a	n/a	1
662.2050000000	n/a	662205	RewardB2	724	n/a	n/a	0
664.0050000000	n/a	664005	NeuIncorrB2	1000	n/a	n/a	1
666.0050000000	n/a	666005	ignore	1700	n/a	n/a	1
667.7050000000	n/a	667705	PenaltyB2	1982	n/a	n/a	1
670.7550000000	n/a	670755	NeuCorrB2	1000	n/a	n/a	1
672.7550000000	n/a	672755	ignore	1700	n/a	n/a	1
674.4550000000	n/a	674455	PenaltyB2	581	n/a	n/a	1
676.1050000000	n/a	676105	PunCorrB2	1000	n/a	n/a	1
678.1050000000	n/a	678105	ignore	1700	n/a	n/a	1
679.8050000000	n/a	679805	RewardB2	3734	n/a	n/a	0
684.6050000000	n/a	684605	NeuIncorrB2	1000	n/a	n/a	1
686.6050000000	n/a	686605	ignore	1700	n/a	n/a	1
688.3050000000	n/a	688305	PenaltyB2	1039	n/a	n/a	1
690.4210000000	n/a	690421	NeuCorrB2	1000	n/a	n/a	1
692.4220000000	n/a	692422	ignore	1700	n/a	n/a	1
694.1210000000	n/a	694121	RewardB2	473	n/a	n/a	0
695.6710000000	n/a	695671	NeuIncorrB2	1000	n/a	n/a	1
697.6720000000	n/a	697672	ignore	1700	n/a	n/a	1
699.3710000000	n/a	699371	PenaltyB2	2395	n/a	n/a	1
702.8380000000	n/a	702838	PunCorrB2	1000	n/a	n/a	1
704.8380000000	n/a	704838	STATUS	1700	n/a	n/a	1
706.5380000000	n/a	706538	RewardB2	1079	n/a	n/a	0
708.6880000000	n/a	708688	NeuIncorrB2	1000	n/a	n/a	1
710.6880000000	n/a	710688	STATUS	1700	n/a	n/a	1
727.6050000000	n/a	727605	RewardB3	1145	n/a	n/a	1
729.8210000000	n/a	729821	RewardCorrB3	1000	n/a	n/a	1
731.8210000000	n/a	731821	ignore	1700	n/a	n/a	1
733.5210000000	n/a	733521	PenaltyB3	907	n/a	n/a	1
735.5050000000	n/a	735505	PunCorrB3	1000	n/a	n/a	1
737.5050000000	n/a	737505	STATUS	1700	n/a	n/a	1
739.2050000000	n/a	739205	RewardB3	603	n/a	n/a	1
740.8710000000	n/a	740871	RewardCorrB3	1000	n/a	n/a	1
742.8710000000	n/a	742871	ignore	1700	n/a	n/a	1
744.5710000000	n/a	744571	PenaltyB3	3878	n/a	n/a	1
749.5210000000	n/a	749521	NeuCorrB3	1000	n/a	n/a	1
751.5210000000	n/a	751521	ignore	1700	n/a	n/a	1
753.2210000000	n/a	753221	PenaltyB3	1056	n/a	n/a	1
755.3550000000	n/a	755355	NeuCorrB3	1000	n/a	n/a	1
757.3550000000	n/a	757355	ignore	1700	n/a	n/a	1
759.0550000000	n/a	759055	RewardB3	633	n/a	n/a	0
760.7550000000	n/a	760755	NeuIncorrB3	1000	n/a	n/a	1
762.7550000000	n/a	762755	ignore	1700	n/a	n/a	1
764.4550000000	n/a	764455	PenaltyB3	8820	n/a	n/a	1
774.3380000000	n/a	774338	PunCorrB3	1000	n/a	n/a	1
776.3380000000	n/a	776338	STATUS	1700	n/a	n/a	1
778.0380000000	n/a	778038	RewardB3	1383	n/a	n/a	0
780.4880000000	n/a	780488	NeuIncorrB3	1000	n/a	n/a	1
782.4880000000	n/a	782488	STATUS	1700	n/a	n/a	1
784.1880000000	n/a	784188	PenaltyB3	656	n/a	n/a	1
785.9210000000	n/a	785921	NeuCorrB3	1000	n/a	n/a	1
787.9210000000	n/a	787921	STATUS	1700	n/a	n/a	1
789.6210000000	n/a	789621	RewardB3	499	n/a	n/a	0
791.1880000000	n/a	791188	RewIncorrB3	1000	n/a	n/a	1
793.1880000000	n/a	793188	ignore	1700	n/a	n/a	1
794.8880000000	n/a	794888	PenaltyB3	487	n/a	n/a	1
796.4380000000	n/a	796438	NeuCorrB3	1000	n/a	n/a	1
798.4380000000	n/a	798438	ignore	1700	n/a	n/a	1
800.1380000000	n/a	800138	RewardB3	1249	n/a	n/a	1
802.4550000000	n/a	802455	RewardCorrB3	1000	n/a	n/a	1
804.4550000000	n/a	804455	ignore	1700	n/a	n/a	1
806.1550000000	n/a	806155	RewardB3	2094	n/a	n/a	0
809.3210000000	n/a	809321	NeuIncorrB3	1000	n/a	n/a	1
811.3210000000	n/a	811321	ignore	1700	n/a	n/a	1
813.0210000000	n/a	813021	RewardB3	687	n/a	n/a	0
814.7710000000	n/a	814771	NeuIncorrB3	1000	n/a	n/a	1
816.7710000000	n/a	816771	ignore	1700	n/a	n/a	1
818.4710000000	n/a	818471	PenaltyB3	7647	n/a	n/a	0
827.1880000000	n/a	827188	NeuIncorrB3	1000	n/a	n/a	1
829.1880000000	n/a	829188	ignore	1700	n/a	n/a	1
830.8880000000	n/a	830888	RewardB3	4492	n/a	n/a	1
836.4550000000	n/a	836455	RewardCorrB3	1000	n/a	n/a	1
838.4550000000	n/a	838455	ignore	1700	n/a	n/a	1
840.1550000000	n/a	840155	PenaltyB3	2691	n/a	n/a	1
843.9210000000	n/a	843921	NeuCorrB3	1000	n/a	n/a	1
845.9210000000	n/a	845921	ignore	1700	n/a	n/a	1
847.6210000000	n/a	847621	RewardB3	2074	n/a	n/a	1
850.7710000000	n/a	850771	RewardCorrB3	1000	n/a	n/a	1
852.7710000000	n/a	852771	ignore	1700	n/a	n/a	1
854.4710000000	n/a	854471	RewardB3	6475	n/a	n/a	0
862.0210000000	n/a	862021	NeuIncorrB3	1000	n/a	n/a	1
864.0210000000	n/a	864021	ignore	1700	n/a	n/a	1
865.7210000000	n/a	865721	RewardB3	2532	n/a	n/a	1
869.3210000000	n/a	869321	NeuCorrB3	1000	n/a	n/a	1
871.3210000000	n/a	871321	ignore	1700	n/a	n/a	1
873.0210000000	n/a	873021	RewardB3	766	n/a	n/a	1
874.8550000000	n/a	874855	RewardCorrB3	1000	n/a	n/a	1
876.8550000000	n/a	876855	ignore	1700	n/a	n/a	1
878.5550000000	n/a	878555	RewardB3	1577	n/a	n/a	1
881.2050000000	n/a	881205	RewardCorrB3	1000	n/a	n/a	1
883.2050000000	n/a	883205	ignore	1700	n/a	n/a	1
884.9050000000	n/a	884905	PenaltyB3	3451	n/a	n/a	0
889.4210000000	n/a	889421	PunIncorrB3	1000	n/a	n/a	1
891.4210000000	n/a	891421	ignore	1700	n/a	n/a	1
893.1210000000	n/a	893121	RewardB3	1466	n/a	n/a	0
895.6550000000	n/a	895655	RewIncorrB3	1000	n/a	n/a	1
897.6550000000	n/a	897655	ignore	1700	n/a	n/a	1
899.3550000000	n/a	899355	PenaltyB3	2600	n/a	n/a	1
903.0210000000	n/a	903021	NeuCorrB3	1000	n/a	n/a	1
905.0210000000	n/a	905021	ignore	1700	n/a	n/a	1
906.7210000000	n/a	906721	PenaltyB3	1462	n/a	n/a	0
909.2550000000	n/a	909255	PunIncorrB3	1000	n/a	n/a	1
911.2550000000	n/a	911255	ignore	1700	n/a	n/a	1
912.9540000000	n/a	912954	RewardB3	1063	n/a	n/a	1
915.0880000000	n/a	915088	RewardCorrB3	1000	n/a	n/a	1
917.0880000000	n/a	917088	ignore	1700	n/a	n/a	1
918.7880000000	n/a	918788	PenaltyB3	1979	n/a	n/a	1
921.8380000000	n/a	921838	NeuCorrB3	1000	n/a	n/a	1
923.8380000000	n/a	923838	ignore	1700	n/a	n/a	1
925.5380000000	n/a	925538	RewardB3	1322	n/a	n/a	1
927.9380000000	n/a	927938	NeuCorrB3	1000	n/a	n/a	1
929.9380000000	n/a	929938	ignore	1700	n/a	n/a	1
931.6380000000	n/a	931638	PenaltyB3	1386	n/a	n/a	1
934.0880000000	n/a	934088	NeuCorrB3	1000	n/a	n/a	1
936.0880000000	n/a	936088	ignore	1700	n/a	n/a	1
937.7880000000	n/a	937788	RewardB3	2240	n/a	n/a	1
941.1040000000	n/a	941104	RewardCorrB3	1000	n/a	n/a	1
943.1050000000	n/a	943105	ignore	1700	n/a	n/a	1
944.8040000000	n/a	944804	PenaltyB3	3067	n/a	n/a	1
948.9380000000	n/a	948938	PunCorrB3	1000	n/a	n/a	1
950.9380000000	n/a	950938	ignore	1700	n/a	n/a	1
952.6380000000	n/a	952638	PenaltyB3	1827	n/a	n/a	0
955.5380000000	n/a	955538	PunIncorrB3	1000	n/a	n/a	1
957.5380000000	n/a	957538	ignore	1700	n/a	n/a	1
959.2380000000	n/a	959238	PenaltyB3	1386	n/a	n/a	0
961.6880000000	n/a	961688	PunIncorrB3	1000	n/a	n/a	1
963.6880000000	n/a	963688	ignore	1700	n/a	n/a	1
965.3880000000	n/a	965388	PenaltyB3	403	n/a	n/a	0
966.8540000000	n/a	966854	PunIncorrB3	1000	n/a	n/a	1
968.8540000000	n/a	968854	ignore	1700	n/a	n/a	1
970.5540000000	n/a	970554	RewardB3	849	n/a	n/a	0
972.4710000000	n/a	972471	NeuIncorrB3	1000	n/a	n/a	1
974.4710000000	n/a	974471	ignore	1700	n/a	n/a	1
976.1710000000	n/a	976171	RewardB3	884	n/a	n/a	0
978.1210000000	n/a	978121	NeuIncorrB3	1000	n/a	n/a	1
980.1210000000	n/a	980121	ignore	1700	n/a	n/a	1
981.8210000000	n/a	981821	PenaltyB3	728	n/a	n/a	0
983.6210000000	n/a	983621	PunIncorrB3	1000	n/a	n/a	1
985.6210000000	n/a	985621	ignore	1700	n/a	n/a	1
987.3210000000	n/a	987321	PenaltyB3	1015	n/a	n/a	0
989.4040000000	n/a	989404	PunIncorrB3	1000	n/a	n/a	1
991.4040000000	n/a	991404	ignore	1700	n/a	n/a	1
993.1040000000	n/a	993104	PenaltyB3	688	n/a	n/a	0
994.8540000000	n/a	994854	PunIncorrB3	1000	n/a	n/a	1
996.8540000000	n/a	996854	STATUS	1700	n/a	n/a	1
1014.5210000000	n/a	1014521	RewardB4	728	n/a	n/a	1
1016.3210000000	n/a	1016321	RewardCorrB4	1000	n/a	n/a	1
1018.3210000000	n/a	1018321	ignore	1700	n/a	n/a	1
1020.0210000000	n/a	1020021	PenaltyB4	1696	n/a	n/a	1
1022.7880000000	n/a	1022788	PunCorrB4	1000	n/a	n/a	1
1024.7880000000	n/a	1024788	STATUS	1700	n/a	n/a	1
1026.4880000000	n/a	1026488	RewardB4	986	n/a	n/a	0
1028.5380000000	n/a	1028538	NeuIncorrB4	1000	n/a	n/a	1
1030.5380000000	n/a	1030538	STATUS	1700	n/a	n/a	1
1032.2380000000	n/a	1032238	PenaltyB4	737	n/a	n/a	1
1034.0380000000	n/a	1034038	NeuCorrB4	1000	n/a	n/a	1
1036.0380000000	n/a	1036038	STATUS	1700	n/a	n/a	1
1037.7380000000	n/a	1037738	RewardB4	438	n/a	n/a	0
1039.2540000000	n/a	1039254	NeuIncorrB4	1000	n/a	n/a	1
1041.2540000000	n/a	1041254	STATUS	1700	n/a	n/a	1
1042.9540000000	n/a	1042954	PenaltyB4	2945	n/a	n/a	1
1046.9710000000	n/a	1046971	PunCorrB4	1000	n/a	n/a	1
1048.9710000000	n/a	1048971	STATUS	1700	n/a	n/a	1
1050.6710000000	n/a	1050671	PenaltyB4	830	n/a	n/a	1
1052.5710000000	n/a	1052571	NeuCorrB4	1000	n/a	n/a	1
1054.5710000000	n/a	1054571	STATUS	1700	n/a	n/a	1
1056.2710000000	n/a	1056271	RewardB4	932	n/a	n/a	1
1058.2710000000	n/a	1058271	RewardCorrB4	1000	n/a	n/a	1
1060.2710000000	n/a	1060271	STATUS	1700	n/a	n/a	1
1061.9710000000	n/a	1061971	PenaltyB4	469	n/a	n/a	0
1063.5040000000	n/a	1063504	PunIncorrB4	1000	n/a	n/a	1
1065.5040000000	n/a	1065504	STATUS	1700	n/a	n/a	1
1067.2040000000	n/a	1067204	RewardB4	787	n/a	n/a	0
1069.0540000000	n/a	1069054	RewIncorrB4	1000	n/a	n/a	1
1071.0540000000	n/a	1071054	STATUS	1700	n/a	n/a	1
1072.7540000000	n/a	1072754	PenaltyB4	495	n/a	n/a	0
1074.3210000000	n/a	1074321	PunIncorrB4	1000	n/a	n/a	1
1076.3210000000	n/a	1076321	STATUS	1700	n/a	n/a	1
1078.0210000000	n/a	1078021	RewardB4	678	n/a	n/a	0
1079.7710000000	n/a	1079771	NeuIncorrB4	1000	n/a	n/a	1
1081.7710000000	n/a	1081771	STATUS	1700	n/a	n/a	1
1083.4710000000	n/a	1083471	PenaltyB4	520	n/a	n/a	1
1085.0540000000	n/a	1085054	NeuCorrB4	1000	n/a	n/a	1
1087.0540000000	n/a	1087054	STATUS	1700	n/a	n/a	1
1088.7540000000	n/a	1088754	PenaltyB4	3599	n/a	n/a	1
1093.4210000000	n/a	1093421	NeuCorrB4	1000	n/a	n/a	1
1095.4210000000	n/a	1095421	STATUS	1700	n/a	n/a	1
1097.1210000000	n/a	1097121	RewardB4	4668	n/a	n/a	0
1102.8540000000	n/a	1102854	NeuIncorrB4	1000	n/a	n/a	1
1104.8540000000	n/a	1104854	STATUS	1700	n/a	n/a	1
1106.5540000000	n/a	1106554	RewardB4	7965	n/a	n/a	1
1115.5880000000	n/a	1115588	NeuCorrB4	1000	n/a	n/a	1
1117.5880000000	n/a	1117588	STATUS	1700	n/a	n/a	1
1119.2880000000	n/a	1119288	RewardB4	2161	n/a	n/a	0
1122.5210000000	n/a	1122521	NeuIncorrB4	1000	n/a	n/a	1
1124.5210000000	n/a	1124521	STATUS	1700	n/a	n/a	1
1126.2210000000	n/a	1126221	PenaltyB4	2550	n/a	n/a	0
1129.8380000000	n/a	1129838	PunIncorrB4	1000	n/a	n/a	1
1131.8380000000	n/a	1131838	STATUS	1700	n/a	n/a	1
1133.5380000000	n/a	1133538	PenaltyB4	6417	n/a	n/a	0
1141.0210000000	n/a	1141021	PunIncorrB4	1000	n/a	n/a	1
1143.0210000000	n/a	1143021	STATUS	1700	n/a	n/a	1
1144.7210000000	n/a	1144721	PenaltyB4	667	n/a	n/a	0
1146.4540000000	n/a	1146454	NeuIncorrB4	1000	n/a	n/a	1
1148.4540000000	n/a	1148454	STATUS	1700	n/a	n/a	1
1150.1540000000	n/a	1150154	RewardB4	941	n/a	n/a	0
1152.1710000000	n/a	1152171	NeuIncorrB4	1000	n/a	n/a	1
1154.1710000000	n/a	1154171	STATUS	1700	n/a	n/a	1
1155.8710000000	n/a	1155871	PenaltyB4	436	n/a	n/a	0
1157.3710000000	n/a	1157371	PunIncorrB4	1000	n/a	n/a	1
1159.3710000000	n/a	1159371	STATUS	1700	n/a	n/a	1
1161.0710000000	n/a	1161071	RewardB4	562	n/a	n/a	1
1162.7040000000	n/a	1162704	RewardCorrB4	1000	n/a	n/a	1
1164.7040000000	n/a	1164704	STATUS	1700	n/a	n/a	1
1166.4040000000	n/a	1166404	PenaltyB4	677	n/a	n/a	1
1168.1540000000	n/a	1168154	NeuCorrB4	1000	n/a	n/a	1
1170.1540000000	n/a	1170154	STATUS	1700	n/a	n/a	1
1171.8540000000	n/a	1171854	RewardB4	516	n/a	n/a	1
1173.4370000000	n/a	1173437	NeuCorrB4	1000	n/a	n/a	1
1175.4380000000	n/a	1175438	STATUS	1700	n/a	n/a	1
1177.1370000000	n/a	1177137	PenaltyB4	1010	n/a	n/a	0
1179.2210000000	n/a	1179221	PunIncorrB4	1000	n/a	n/a	1
1181.2210000000	n/a	1181221	STATUS	1700	n/a	n/a	1
1182.9210000000	n/a	1182921	RewardB4	8061	n/a	n/a	1
1192.0540000000	n/a	1192054	RewardCorrB4	1000	n/a	n/a	1
1194.0540000000	n/a	1194054	STATUS	1700	n/a	n/a	1
1195.7540000000	n/a	1195754	PenaltyB4	991	n/a	n/a	1
1197.8210000000	n/a	1197821	NeuCorrB4	1000	n/a	n/a	1
1199.8210000000	n/a	1199821	STATUS	1700	n/a	n/a	1
1201.5210000000	n/a	1201521	RewardB4	733	n/a	n/a	0
1203.3210000000	n/a	1203321	NeuIncorrB4	1000	n/a	n/a	1
1205.3210000000	n/a	1205321	STATUS	1700	n/a	n/a	1
1207.0210000000	n/a	1207021	PenaltyB4	635	n/a	n/a	0
1208.7210000000	n/a	1208721	NeuIncorrB4	1000	n/a	n/a	1
1210.7210000000	n/a	1210721	STATUS	1700	n/a	n/a	1
1212.4210000000	n/a	1212421	RewardB4	1014	n/a	n/a	1
1214.5040000000	n/a	1214504	RewardCorrB4	1000	n/a	n/a	1
1216.5040000000	n/a	1216504	STATUS	1700	n/a	n/a	1
1218.2040000000	n/a	1218204	PenaltyB4	1504	n/a	n/a	1
1220.7710000000	n/a	1220771	NeuCorrB4	1000	n/a	n/a	1
1222.7710000000	n/a	1222771	STATUS	1700	n/a	n/a	1
1224.4710000000	n/a	1224471	RewardB4	810	n/a	n/a	1
1226.3540000000	n/a	1226354	RewardCorrB4	1000	n/a	n/a	1
1228.3540000000	n/a	1228354	STATUS	1700	n/a	n/a	1
1230.0540000000	n/a	1230054	PenaltyB4	3281	n/a	n/a	1
1234.4040000000	n/a	1234404	NeuCorrB4	1000	n/a	n/a	1
1236.4040000000	n/a	1236404	STATUS	1700	n/a	n/a	1
1238.1040000000	n/a	1238104	RewardB4	2677	n/a	n/a	0
1241.8540000000	n/a	1241854	NeuIncorrB4	1000	n/a	n/a	1
1243.8540000000	n/a	1243854	STATUS	1700	n/a	n/a	1
1245.5540000000	n/a	1245554	PenaltyB4	906	n/a	n/a	1
1247.5370000000	n/a	1247537	NeuCorrB4	1000	n/a	n/a	1
1249.5370000000	n/a	1249537	STATUS	1700	n/a	n/a	1
1251.2370000000	n/a	1251237	RewardB4	1006	n/a	n/a	1
1253.3210000000	n/a	1253321	NeuCorrB4	1000	n/a	n/a	1
1255.3210000000	n/a	1255321	STATUS	1700	n/a	n/a	1
1257.0210000000	n/a	1257021	RewardB4	484	n/a	n/a	1
1258.5710000000	n/a	1258571	RewardCorrB4	1000	n/a	n/a	1
1260.5710000000	n/a	1260571	STATUS	1700	n/a	n/a	1
1262.2710000000	n/a	1262271	PenaltyB4	3987	n/a	n/a	1
1267.3210000000	n/a	1267321	NeuCorrB4	1000	n/a	n/a	1
1269.3210000000	n/a	1269321	STATUS	1700	n/a	n/a	1
1271.0210000000	n/a	1271021	RewardB4	5810	n/a	n/a	1
1277.9040000000	n/a	1277904	RewardCorrB4	1000	n/a	n/a	1
1279.9040000000	n/a	1279904	ignore	1700	n/a	n/a	1
1285.5210000000	n/a	1285521	ignore	1700	n/a	n/a	1
