onset	duration	sample	trial_type	response_time	stim_file	value	correct
4.1190000000	n/a	4119	FreqFixedSOA	1633	n/a	n/a	1
5.7520000000	n/a	5752	FreqFixedSOA	1633	n/a	n/a	1
7.3850000000	n/a	7385	FreqFixedSOA	1633	n/a	n/a	1
9.0180000000	n/a	9018	FreqFixedSOA	1633	n/a	n/a	1
10.6520000000	n/a	10652	FreqFixedSOA	1633	n/a	n/a	1
12.2850000000	n/a	12285	FreqFixedSOA	1633	n/a	n/a	1
13.9180000000	n/a	13918	FreqFixedSOA	1633	n/a	n/a	1
15.5520000000	n/a	15552	FreqFixedSOA	1633	n/a	n/a	1
17.1850000000	n/a	17185	FreqFixedSOA	1633	n/a	n/a	1
18.8180000000	n/a	18818	FreqFixedSOA	1633	n/a	n/a	1
20.4520000000	n/a	20452	FreqFixedSOA	1633	n/a	n/a	1
22.0850000000	n/a	22085	FreqFixedSOA	1633	n/a	n/a	1
23.7180000000	n/a	23718	NovelFixedSOA	1633	n/a	n/a	1
25.3520000000	n/a	25352	FreqFixedSOA	1633	n/a	n/a	1
26.9850000000	n/a	26985	GoFixedSOA	381	n/a	n/a	1
28.6180000000	n/a	28618	FreqFixedSOA	1633	n/a	n/a	1
30.2520000000	n/a	30252	GoFixedSOA	637	n/a	n/a	1
31.8850000000	n/a	31885	FreqFixedSOA	1633	n/a	n/a	1
33.5180000000	n/a	33518	FreqFixedSOA	1633	n/a	n/a	1
35.1520000000	n/a	35152	FreqFixedSOA	1633	n/a	n/a	1
36.7850000000	n/a	36785	NovelFixedSOA	1633	n/a	n/a	1
38.4180000000	n/a	38418	FreqFixedSOA	1633	n/a	n/a	1
40.0520000000	n/a	40052	FreqFixedSOA	1633	n/a	n/a	1
41.6850000000	n/a	41685	FreqFixedSOA	1633	n/a	n/a	1
43.3180000000	n/a	43318	GoFixedSOA	289	n/a	n/a	1
44.9520000000	n/a	44952	FreqFixedSOA	1633	n/a	n/a	1
46.5850000000	n/a	46585	NovelFixedSOA	1633	n/a	n/a	1
48.2180000000	n/a	48218	FreqFixedSOA	1633	n/a	n/a	1
49.8520000000	n/a	49852	FreqFixedSOA	1633	n/a	n/a	1
51.4850000000	n/a	51485	FreqFixedSOA	1633	n/a	n/a	1
53.1180000000	n/a	53118	GoFixedSOA	300	n/a	n/a	1
54.7520000000	n/a	54752	FreqFixedSOA	1633	n/a	n/a	1
56.3850000000	n/a	56385	GoFixedSOA	291	n/a	n/a	1
58.0180000000	n/a	58018	FreqFixedSOA	1633	n/a	n/a	1
59.6520000000	n/a	59652	FreqFixedSOA	1633	n/a	n/a	1
61.2850000000	n/a	61285	GoFixedSOA	277	n/a	n/a	1
62.9180000000	n/a	62918	FreqFixedSOA	1633	n/a	n/a	1
64.5520000000	n/a	64552	FreqFixedSOA	1633	n/a	n/a	1
66.1850000000	n/a	66185	FreqFixedSOA	1633	n/a	n/a	1
67.8180000000	n/a	67818	FreqFixedSOA	1633	n/a	n/a	1
69.4520000000	n/a	69452	NovelFixedSOA	1633	n/a	n/a	1
71.0850000000	n/a	71085	FreqFixedSOA	1633	n/a	n/a	1
72.7180000000	n/a	72718	NovelFixedSOA	1633	n/a	n/a	1
74.3520000000	n/a	74352	FreqFixedSOA	1633	n/a	n/a	1
75.9850000000	n/a	75985	FreqFixedSOA	1633	n/a	n/a	1
77.6180000000	n/a	77618	GoFixedSOA	255	n/a	n/a	1
79.2520000000	n/a	79252	FreqFixedSOA	1633	n/a	n/a	1
80.8850000000	n/a	80885	FreqFixedSOA	1633	n/a	n/a	1
82.5180000000	n/a	82518	FreqFixedSOA	1633	n/a	n/a	1
84.1520000000	n/a	84152	FreqFixedSOA	1633	n/a	n/a	1
85.7850000000	n/a	85785	NovelFixedSOA	1633	n/a	n/a	1
87.4180000000	n/a	87418	FreqFixedSOA	1633	n/a	n/a	1
89.0520000000	n/a	89052	FreqFixedSOA	1633	n/a	n/a	1
90.6850000000	n/a	90685	FreqFixedSOA	1633	n/a	n/a	1
92.3180000000	n/a	92318	FreqFixedSOA	1633	n/a	n/a	1
93.9520000000	n/a	93952	GoFixedSOA	285	n/a	n/a	1
95.5850000000	n/a	95585	FreqFixedSOA	1633	n/a	n/a	1
97.2180000000	n/a	97218	FreqFixedSOA	1633	n/a	n/a	1
98.8520000000	n/a	98852	NovelFixedSOA	1633	n/a	n/a	1
100.4850000000	n/a	100485	FreqFixedSOA	1633	n/a	n/a	1
102.1180000000	n/a	102118	FreqFixedSOA	1633	n/a	n/a	1
103.7510000000	n/a	103751	GoFixedSOA	286	n/a	n/a	1
105.3850000000	n/a	105385	FreqFixedSOA	1633	n/a	n/a	1
107.0180000000	n/a	107018	FreqFixedSOA	1633	n/a	n/a	1
108.6510000000	n/a	108651	FreqFixedSOA	1633	n/a	n/a	1
110.2850000000	n/a	110285	FreqFixedSOA	1633	n/a	n/a	1
111.9180000000	n/a	111918	NovelFixedSOA	1633	n/a	n/a	1
113.5510000000	n/a	113551	FreqFixedSOA	1633	n/a	n/a	1
115.1850000000	n/a	115185	FreqFixedSOA	1633	n/a	n/a	1
116.8180000000	n/a	116818	GoFixedSOA	270	n/a	n/a	1
118.4510000000	n/a	118451	FreqFixedSOA	1633	n/a	n/a	1
120.0850000000	n/a	120085	FreqFixedSOA	1633	n/a	n/a	1
121.7180000000	n/a	121718	FreqFixedSOA	1633	n/a	n/a	1
123.3510000000	n/a	123351	GoFixedSOA	263	n/a	n/a	1
124.9850000000	n/a	124985	FreqFixedSOA	1633	n/a	n/a	1
126.6180000000	n/a	126618	FreqFixedSOA	1633	n/a	n/a	1
128.2510000000	n/a	128251	FreqFixedSOA	1633	n/a	n/a	1
129.8850000000	n/a	129885	GoFixedSOA	282	n/a	n/a	1
131.5180000000	n/a	131518	FreqFixedSOA	1633	n/a	n/a	1
133.1510000000	n/a	133151	FreqFixedSOA	1633	n/a	n/a	1
134.7850000000	n/a	134785	FreqFixedSOA	1633	n/a	n/a	1
136.4180000000	n/a	136418	NovelFixedSOA	1633	n/a	n/a	1
138.0510000000	n/a	138051	FreqFixedSOA	1633	n/a	n/a	1
139.6850000000	n/a	139685	NovelFixedSOA	1633	n/a	n/a	1
141.3180000000	n/a	141318	FreqFixedSOA	1633	n/a	n/a	1
142.9510000000	n/a	142951	FreqFixedSOA	1633	n/a	n/a	1
144.5850000000	n/a	144585	NovelFixedSOA	1633	n/a	n/a	1
146.2180000000	n/a	146218	FreqFixedSOA	1633	n/a	n/a	1
147.8510000000	n/a	147851	FreqFixedSOA	1633	n/a	n/a	1
149.4850000000	n/a	149485	FreqFixedSOA	1633	n/a	n/a	1
151.1180000000	n/a	151118	FreqFixedSOA	1633	n/a	n/a	1
152.7510000000	n/a	152751	FreqFixedSOA	1633	n/a	n/a	1
154.3850000000	n/a	154385	NovelFixedSOA	1633	n/a	n/a	1
156.0180000000	n/a	156018	FreqFixedSOA	1633	n/a	n/a	1
157.6510000000	n/a	157651	FreqFixedSOA	1633	n/a	n/a	1
159.2850000000	n/a	159285	FreqFixedSOA	1633	n/a	n/a	1
160.9180000000	n/a	160918	FreqFixedSOA	1633	n/a	n/a	1
162.5510000000	n/a	162551	FreqFixedSOA	1633	n/a	n/a	1
164.1850000000	n/a	164185	GoFixedSOA	280	n/a	n/a	1
165.8180000000	n/a	165818	FreqFixedSOA	1633	n/a	n/a	1
167.4510000000	n/a	167451	FreqFixedSOA	1633	n/a	n/a	1
169.0850000000	n/a	169085	GoFixedSOA	295	n/a	n/a	1
170.7180000000	n/a	170718	FreqFixedSOA	1633	n/a	n/a	1
172.3510000000	n/a	172351	NovelFixedSOA	1633	n/a	n/a	1
173.9850000000	n/a	173985	FreqFixedSOA	1633	n/a	n/a	1
175.6180000000	n/a	175618	GoFixedSOA	262	n/a	n/a	1
177.2510000000	n/a	177251	FreqFixedSOA	1633	n/a	n/a	1
178.8850000000	n/a	178885	GoFixedSOA	268	n/a	n/a	1
180.5180000000	n/a	180518	FreqFixedSOA	1633	n/a	n/a	1
182.1510000000	n/a	182151	FreqFixedSOA	1633	n/a	n/a	1
183.7850000000	n/a	183785	FreqFixedSOA	1633	n/a	n/a	1
185.4180000000	n/a	185418	FreqFixedSOA	1633	n/a	n/a	1
187.0510000000	n/a	187051	GoFixedSOA	286	n/a	n/a	1
188.6850000000	n/a	188685	FreqFixedSOA	1633	n/a	n/a	1
190.3180000000	n/a	190318	FreqFixedSOA	1633	n/a	n/a	1
191.9510000000	n/a	191951	FreqFixedSOA	1633	n/a	n/a	1
193.5850000000	n/a	193585	NovelFixedSOA	1633	n/a	n/a	1
195.2180000000	n/a	195218	FreqFixedSOA	1633	n/a	n/a	1
196.8510000000	n/a	196851	FreqFixedSOA	1633	n/a	n/a	1
198.4850000000	n/a	198485	FreqFixedSOA	1633	n/a	n/a	1
200.1180000000	n/a	200118	FreqFixedSOA	1633	n/a	n/a	1
201.7510000000	n/a	201751	NovelFixedSOA	1633	n/a	n/a	1
203.3850000000	n/a	203385	FreqFixedSOA	1633	n/a	n/a	1
205.0180000000	n/a	205018	FreqFixedSOA	1633	n/a	n/a	1
206.6510000000	n/a	206651	FreqFixedSOA	1633	n/a	n/a	1
208.2850000000	n/a	208285	FreqFixedSOA	1633	n/a	n/a	1
209.9180000000	n/a	209918	NovelFixedSOA	1633	n/a	n/a	1
211.5510000000	n/a	211551	FreqFixedSOA	1633	n/a	n/a	1
213.1850000000	n/a	213185	FreqFixedSOA	1633	n/a	n/a	1
214.8180000000	n/a	214818	GoFixedSOA	311	n/a	n/a	1
216.4510000000	n/a	216451	FreqFixedSOA	1633	n/a	n/a	1
218.0850000000	n/a	218085	FreqFixedSOA	1633	n/a	n/a	1
219.7180000000	n/a	219718	FreqFixedSOA	1633	n/a	n/a	1
221.3510000000	n/a	221351	FreqFixedSOA	1633	n/a	n/a	1
222.9850000000	n/a	222985	NovelFixedSOA	1633	n/a	n/a	1
224.6180000000	n/a	224618	FreqFixedSOA	1633	n/a	n/a	1
226.2510000000	n/a	226251	FreqFixedSOA	1633	n/a	n/a	1
227.8850000000	n/a	227885	FreqFixedSOA	1633	n/a	n/a	1
229.5180000000	n/a	229518	FreqFixedSOA	1633	n/a	n/a	1
231.1510000000	n/a	231151	FreqFixedSOA	1633	n/a	n/a	1
232.7850000000	n/a	232785	GoFixedSOA	312	n/a	n/a	1
234.4180000000	n/a	234418	FreqFixedSOA	1633	n/a	n/a	1
236.0510000000	n/a	236051	FreqFixedSOA	1633	n/a	n/a	1
237.6850000000	n/a	237685	FreqFixedSOA	1633	n/a	n/a	1
239.3180000000	n/a	239318	FreqFixedSOA	1633	n/a	n/a	1
240.9510000000	n/a	240951	FreqFixedSOA	1633	n/a	n/a	1
242.5850000000	n/a	242585	FreqFixedSOA	1633	n/a	n/a	1
244.2180000000	n/a	244218	NovelFixedSOA	1633	n/a	n/a	1
245.8510000000	n/a	245851	FreqFixedSOA	1633	n/a	n/a	1
247.4850000000	n/a	247485	FreqFixedSOA	1633	n/a	n/a	1
249.1180000000	n/a	249118	FreqFixedSOA	1633	n/a	n/a	1
250.7510000000	n/a	250751	NovelFixedSOA	1633	n/a	n/a	1
252.3850000000	n/a	252385	FreqFixedSOA	1633	n/a	n/a	1
254.0180000000	n/a	254018	GoFixedSOA	306	n/a	n/a	1
255.6510000000	n/a	255651	FreqFixedSOA	1633	n/a	n/a	1
257.2850000000	n/a	257285	FreqFixedSOA	1633	n/a	n/a	1
258.9180000000	n/a	258918	GoFixedSOA	363	n/a	n/a	1
260.5510000000	n/a	260551	FreqFixedSOA	1633	n/a	n/a	1
262.1850000000	n/a	262185	NovelFixedSOA	1633	n/a	n/a	1
263.8180000000	n/a	263818	FreqFixedSOA	1633	n/a	n/a	1
265.4510000000	n/a	265451	FreqFixedSOA	1633	n/a	n/a	1
267.0850000000	n/a	267085	FreqFixedSOA	1633	n/a	n/a	1
268.7180000000	n/a	268718	FreqFixedSOA	1633	n/a	n/a	1
270.3510000000	n/a	270351	FreqFixedSOA	1633	n/a	n/a	1
271.9850000000	n/a	271985	GoFixedSOA	346	n/a	n/a	1
273.6180000000	n/a	273618	FreqFixedSOA	1633	n/a	n/a	1
275.2510000000	n/a	275251	FreqFixedSOA	1633	n/a	n/a	1
276.8850000000	n/a	276885	NovelFixedSOA	1633	n/a	n/a	1
278.5180000000	n/a	278518	FreqFixedSOA	1633	n/a	n/a	1
280.1510000000	n/a	280151	FreqFixedSOA	1633	n/a	n/a	1
281.7850000000	n/a	281785	FreqFixedSOA	1633	n/a	n/a	1
283.4180000000	n/a	283418	FreqFixedSOA	1633	n/a	n/a	1
285.0510000000	n/a	285051	FreqFixedSOA	1633	n/a	n/a	1
286.6850000000	n/a	286685	NovelFixedSOA	1633	n/a	n/a	1
288.3180000000	n/a	288318	FreqFixedSOA	1633	n/a	n/a	1
289.9510000000	n/a	289951	FreqFixedSOA	1633	n/a	n/a	1
291.5850000000	n/a	291585	FreqFixedSOA	1633	n/a	n/a	1
293.2180000000	n/a	293218	FreqFixedSOA	1633	n/a	n/a	1
294.8510000000	n/a	294851	FreqFixedSOA	1633	n/a	n/a	1
296.4850000000	n/a	296485	FreqFixedSOA	1633	n/a	n/a	1
298.1180000000	n/a	298118	NovelFixedSOA	1633	n/a	n/a	1
299.7510000000	n/a	299751	FreqFixedSOA	1633	n/a	n/a	1
301.3850000000	n/a	301385	FreqFixedSOA	1633	n/a	n/a	1
303.0180000000	n/a	303018	NovelFixedSOA	1633	n/a	n/a	1
304.6510000000	n/a	304651	FreqFixedSOA	1633	n/a	n/a	1
306.2850000000	n/a	306285	FreqFixedSOA	1633	n/a	n/a	1
307.9180000000	n/a	307918	FreqFixedSOA	1633	n/a	n/a	1
309.5510000000	n/a	309551	FreqFixedSOA	1633	n/a	n/a	1
311.1850000000	n/a	311185	FreqFixedSOA	1633	n/a	n/a	1
312.8180000000	n/a	312818	GoFixedSOA	309	n/a	n/a	1
314.4510000000	n/a	314451	FreqFixedSOA	1633	n/a	n/a	1
316.0850000000	n/a	316085	FreqFixedSOA	1633	n/a	n/a	1
317.7180000000	n/a	317718	FreqFixedSOA	1633	n/a	n/a	1
319.3510000000	n/a	319351	FreqFixedSOA	1633	n/a	n/a	1
320.9850000000	n/a	320985	FreqFixedSOA	1633	n/a	n/a	1
322.6180000000	n/a	322618	NovelFixedSOA	1633	n/a	n/a	1
324.2510000000	n/a	324251	FreqFixedSOA	1633	n/a	n/a	1
325.8850000000	n/a	325885	GoFixedSOA	371	n/a	n/a	1
327.5180000000	n/a	327518	FreqFixedSOA	1633	n/a	n/a	1
329.1510000000	n/a	329151	FreqFixedSOA	1633	n/a	n/a	1
330.7850000000	n/a	330785	FreqFixedSOA	1633	n/a	n/a	1
332.4180000000	n/a	332418	FreqFixedSOA	1633	n/a	n/a	1
334.0510000000	n/a	334051	FreqFixedSOA	1633	n/a	n/a	1
335.6850000000	n/a	335685	FreqFixedSOA	1633	n/a	n/a	1
337.3180000000	n/a	337318	FreqFixedSOA	1633	n/a	n/a	1
338.9510000000	n/a	338951	FreqFixedSOA	1633	n/a	n/a	1
340.5840000000	n/a	340584	NovelFixedSOA	1633	n/a	n/a	1
342.2180000000	n/a	342218	FreqFixedSOA	1633	n/a	n/a	1
343.8510000000	n/a	343851	FreqFixedSOA	1633	n/a	n/a	1
345.4840000000	n/a	345484	GoFixedSOA	279	n/a	n/a	1
347.1180000000	n/a	347118	FreqFixedSOA	1633	n/a	n/a	1
348.7510000000	n/a	348751	FreqFixedSOA	1633	n/a	n/a	1
350.3840000000	n/a	350384	FreqFixedSOA	1633	n/a	n/a	1
352.0180000000	n/a	352018	GoFixedSOA	320	n/a	n/a	1
353.6510000000	n/a	353651	FreqFixedSOA	1633	n/a	n/a	1
355.2840000000	n/a	355284	FreqFixedSOA	1633	n/a	n/a	1
356.9180000000	n/a	356918	FreqFixedSOA	1633	n/a	n/a	1
358.5510000000	n/a	358551	GoFixedSOA	296	n/a	n/a	1
360.1840000000	n/a	360184	FreqFixedSOA	1633	n/a	n/a	1
361.8180000000	n/a	361818	FreqFixedSOA	1633	n/a	n/a	1
363.4510000000	n/a	363451	FreqFixedSOA	1633	n/a	n/a	1
365.0840000000	n/a	365084	NovelFixedSOA	1633	n/a	n/a	1
366.7180000000	n/a	366718	FreqFixedSOA	1633	n/a	n/a	1
368.3510000000	n/a	368351	FreqFixedSOA	1633	n/a	n/a	1
369.9840000000	n/a	369984	GoFixedSOA	320	n/a	n/a	1
371.6180000000	n/a	371618	FreqFixedSOA	1633	n/a	n/a	1
373.2510000000	n/a	373251	FreqFixedSOA	1633	n/a	n/a	1
374.8840000000	n/a	374884	FreqFixedSOA	1633	n/a	n/a	1
376.5180000000	n/a	376518	NovelFixedSOA	1633	n/a	n/a	1
378.1510000000	n/a	378151	FreqFixedSOA	1633	n/a	n/a	1
379.7840000000	n/a	379784	NovelFixedSOA	1633	n/a	n/a	1
381.4180000000	n/a	381418	FreqFixedSOA	1633	n/a	n/a	1
383.0510000000	n/a	383051	FreqFixedSOA	1633	n/a	n/a	1
384.6840000000	n/a	384684	FreqFixedSOA	1633	n/a	n/a	1
386.3180000000	n/a	386318	GoFixedSOA	337	n/a	n/a	1
387.9510000000	n/a	387951	FreqFixedSOA	1633	n/a	n/a	1
389.5840000000	n/a	389584	FreqFixedSOA	1633	n/a	n/a	1
391.2180000000	n/a	391218	FreqFixedSOA	1633	n/a	n/a	1
392.8510000000	n/a	392851	GoFixedSOA	331	n/a	n/a	1
394.4840000000	n/a	394484	FreqFixedSOA	1633	n/a	n/a	1
396.1180000000	n/a	396118	GoFixedSOA	331	n/a	n/a	1
397.7510000000	n/a	397751	FreqFixedSOA	1633	n/a	n/a	1
399.3840000000	n/a	399384	NovelFixedSOA	1633	n/a	n/a	1
401.0180000000	n/a	401018	FreqFixedSOA	1633	n/a	n/a	1
402.6510000000	n/a	402651	GoFixedSOA	262	n/a	n/a	1
404.2840000000	n/a	404284	FreqFixedSOA	1633	n/a	n/a	1
405.9180000000	n/a	405918	FreqFixedSOA	1633	n/a	n/a	1
407.5510000000	n/a	407551	FreqFixedSOA	1633	n/a	n/a	1
409.1840000000	n/a	409184	FreqFixedSOA	1633	n/a	n/a	1
410.8180000000	n/a	410818	FreqFixedSOA	1633	n/a	n/a	1
412.4510000000	n/a	412451	FreqFixedSOA	1633	n/a	n/a	1
414.0840000000	n/a	414084	NovelFixedSOA	1633	n/a	n/a	1
415.7180000000	n/a	415718	FreqFixedSOA	1633	n/a	n/a	1
417.3510000000	n/a	417351	FreqFixedSOA	1633	n/a	n/a	1
418.9840000000	n/a	418984	FreqFixedSOA	1633	n/a	n/a	1
420.6180000000	n/a	420618	GoFixedSOA	350	n/a	n/a	1
422.2510000000	n/a	422251	FreqFixedSOA	1633	n/a	n/a	1
423.8840000000	n/a	423884	FreqFixedSOA	1633	n/a	n/a	1
425.5180000000	n/a	425518	FreqFixedSOA	1633	n/a	n/a	1
427.1510000000	n/a	427151	FreqFixedSOA	1633	n/a	n/a	1
428.7840000000	n/a	428784	NovelFixedSOA	1633	n/a	n/a	1
430.4180000000	n/a	430418	FreqFixedSOA	1633	n/a	n/a	1
432.0510000000	n/a	432051	FreqFixedSOA	1633	n/a	n/a	1
433.6840000000	n/a	433684	NovelFixedSOA	1633	n/a	n/a	1
435.3180000000	n/a	435318	FreqFixedSOA	1633	n/a	n/a	1
436.9510000000	n/a	436951	NovelFixedSOA	1633	n/a	n/a	1
438.5840000000	n/a	438584	FreqFixedSOA	1633	n/a	n/a	1
440.2180000000	n/a	440218	FreqFixedSOA	1633	n/a	n/a	1
441.8510000000	n/a	441851	FreqFixedSOA	1633	n/a	n/a	1
443.4840000000	n/a	443484	FreqFixedSOA	1633	n/a	n/a	1
445.1180000000	n/a	445118	FreqFixedSOA	1633	n/a	n/a	1
446.7510000000	n/a	446751	FreqFixedSOA	1633	n/a	n/a	1
448.3840000000	n/a	448384	FreqFixedSOA	1633	n/a	n/a	1
450.0180000000	n/a	450018	GoFixedSOA	295	n/a	n/a	1
451.6510000000	n/a	451651	FreqFixedSOA	1633	n/a	n/a	1
453.2840000000	n/a	453284	GoFixedSOA	355	n/a	n/a	1
454.9180000000	n/a	454918	FreqFixedSOA	1633	n/a	n/a	1
456.5510000000	n/a	456551	FreqFixedSOA	1633	n/a	n/a	1
458.1840000000	n/a	458184	NovelFixedSOA	1633	n/a	n/a	1
459.8180000000	n/a	459818	FreqFixedSOA	1633	n/a	n/a	1
