onset	duration	sample	trial_type	response_time	stim_file	value	correct
4.5460000000	n/a	4546	FrequentFixedSOA	1633	n/a	n/a	1
6.1790000000	n/a	6179	FrequentFixedSOA	1633	n/a	n/a	1
7.8120000000	n/a	7812	FrequentFixedSOA	1633	n/a	n/a	1
9.4450000000	n/a	9445	FrequentFixedSOA	1633	n/a	n/a	1
11.0790000000	n/a	11079	FrequentFixedSOA	1633	n/a	n/a	1
12.7120000000	n/a	12712	FrequentFixedSOA	1633	n/a	n/a	1
14.3450000000	n/a	14345	FrequentFixedSOA	1633	n/a	n/a	1
15.9790000000	n/a	15979	FrequentFixedSOA	1633	n/a	n/a	1
17.6120000000	n/a	17612	FrequentFixedSOA	1633	n/a	n/a	1
19.2450000000	n/a	19245	FrequentFixedSOA	1633	n/a	n/a	1
20.8790000000	n/a	20879	NovelFixedSOA	436	n/a	n/a	0
22.5120000000	n/a	22512	FrequentFixedSOA	1633	n/a	n/a	1
24.1450000000	n/a	24145	GoFixedSOA	522	n/a	n/a	1
25.7790000000	n/a	25779	FrequentFixedSOA	1633	n/a	n/a	1
27.4120000000	n/a	27412	FrequentFixedSOA	1633	n/a	n/a	1
29.0450000000	n/a	29045	FrequentFixedSOA	1633	n/a	n/a	1
30.6790000000	n/a	30679	GoFixedSOA	520	n/a	n/a	1
32.3120000000	n/a	32312	FrequentFixedSOA	1633	n/a	n/a	1
33.9450000000	n/a	33945	FrequentFixedSOA	1633	n/a	n/a	1
35.5790000000	n/a	35579	FrequentFixedSOA	1633	n/a	n/a	1
37.2120000000	n/a	37212	NovelFixedSOA	1633	n/a	n/a	1
38.8450000000	n/a	38845	FrequentFixedSOA	1633	n/a	n/a	1
40.4790000000	n/a	40479	FrequentFixedSOA	1633	n/a	n/a	1
42.1120000000	n/a	42112	FrequentFixedSOA	1633	n/a	n/a	1
43.7450000000	n/a	43745	GoFixedSOA	489	n/a	n/a	1
45.3790000000	n/a	45379	FrequentFixedSOA	1633	n/a	n/a	1
47.0120000000	n/a	47012	NovelFixedSOA	1633	n/a	n/a	1
48.6450000000	n/a	48645	FrequentFixedSOA	1633	n/a	n/a	1
50.2790000000	n/a	50279	FrequentFixedSOA	1633	n/a	n/a	1
51.9120000000	n/a	51912	FrequentFixedSOA	1633	n/a	n/a	1
53.5450000000	n/a	53545	GoFixedSOA	392	n/a	n/a	1
55.1790000000	n/a	55179	FrequentFixedSOA	1633	n/a	n/a	1
56.8120000000	n/a	56812	GoFixedSOA	569	n/a	n/a	1
58.4450000000	n/a	58445	FrequentFixedSOA	1633	n/a	n/a	1
60.0790000000	n/a	60079	FrequentFixedSOA	1633	n/a	n/a	1
61.7120000000	n/a	61712	GoFixedSOA	342	n/a	n/a	1
63.3450000000	n/a	63345	FrequentFixedSOA	1633	n/a	n/a	1
64.9790000000	n/a	64979	FrequentFixedSOA	1633	n/a	n/a	1
66.6120000000	n/a	66612	FrequentFixedSOA	1633	n/a	n/a	1
68.2450000000	n/a	68245	FrequentFixedSOA	1633	n/a	n/a	1
69.8790000000	n/a	69879	NovelFixedSOA	1633	n/a	n/a	1
71.5120000000	n/a	71512	FrequentFixedSOA	1633	n/a	n/a	1
73.1450000000	n/a	73145	NovelFixedSOA	1633	n/a	n/a	1
74.7790000000	n/a	74779	FrequentFixedSOA	1633	n/a	n/a	1
76.4120000000	n/a	76412	FrequentFixedSOA	1633	n/a	n/a	1
78.0450000000	n/a	78045	GoFixedSOA	410	n/a	n/a	1
79.6790000000	n/a	79679	FrequentFixedSOA	1633	n/a	n/a	1
81.3120000000	n/a	81312	FrequentFixedSOA	1633	n/a	n/a	1
82.9450000000	n/a	82945	FrequentFixedSOA	1633	n/a	n/a	1
84.5790000000	n/a	84579	FrequentFixedSOA	1633	n/a	n/a	1
86.2120000000	n/a	86212	NovelFixedSOA	1633	n/a	n/a	1
87.8450000000	n/a	87845	FrequentFixedSOA	1633	n/a	n/a	1
89.4790000000	n/a	89479	FrequentFixedSOA	1633	n/a	n/a	1
91.1120000000	n/a	91112	FrequentFixedSOA	1633	n/a	n/a	1
92.7450000000	n/a	92745	FrequentFixedSOA	1633	n/a	n/a	1
94.3790000000	n/a	94379	GoFixedSOA	442	n/a	n/a	1
96.0120000000	n/a	96012	FrequentFixedSOA	1633	n/a	n/a	1
97.6450000000	n/a	97645	FrequentFixedSOA	1633	n/a	n/a	1
99.2790000000	n/a	99279	NovelFixedSOA	1633	n/a	n/a	1
100.9120000000	n/a	100912	FrequentFixedSOA	1633	n/a	n/a	1
102.5450000000	n/a	102545	FrequentFixedSOA	1633	n/a	n/a	1
104.1790000000	n/a	104179	GoFixedSOA	554	n/a	n/a	1
105.8120000000	n/a	105812	FrequentFixedSOA	1633	n/a	n/a	1
107.4450000000	n/a	107445	FrequentFixedSOA	1633	n/a	n/a	1
109.0790000000	n/a	109079	FrequentFixedSOA	1633	n/a	n/a	1
110.7120000000	n/a	110712	FrequentFixedSOA	1633	n/a	n/a	1
112.3450000000	n/a	112345	NovelFixedSOA	1633	n/a	n/a	1
113.9790000000	n/a	113979	FrequentFixedSOA	1633	n/a	n/a	1
115.6120000000	n/a	115612	FrequentFixedSOA	1633	n/a	n/a	1
117.2450000000	n/a	117245	GoFixedSOA	450	n/a	n/a	1
118.8790000000	n/a	118879	FrequentVariableSOA	1750	n/a	n/a	1
120.6290000000	n/a	120629	FrequentVariableSOA	1533	n/a	n/a	1
122.1620000000	n/a	122162	FrequentVariableSOA	1616	n/a	n/a	1
123.7790000000	n/a	123779	FrequentVariableSOA	1550	n/a	n/a	1
125.3290000000	n/a	125329	FrequentVariableSOA	1600	n/a	n/a	1
126.9290000000	n/a	126929	FrequentVariableSOA	1516	n/a	n/a	1
128.4450000000	n/a	128445	FrequentVariableSOA	1600	n/a	n/a	1
130.0450000000	n/a	130045	FrequentVariableSOA	1783	n/a	n/a	1
131.8290000000	n/a	131829	FrequentVariableSOA	1766	n/a	n/a	1
133.5950000000	n/a	133595	FrequentVariableSOA	1683	n/a	n/a	1
135.2790000000	n/a	135279	NovelVariableSOA	1683	n/a	n/a	1
136.9620000000	n/a	136962	FrequentVariableSOA	1550	n/a	n/a	1
138.5120000000	n/a	138512	GoVariableSOA	417	n/a	n/a	1
140.0620000000	n/a	140062	FrequentVariableSOA	1683	n/a	n/a	1
141.7450000000	n/a	141745	FrequentVariableSOA	1783	n/a	n/a	1
143.5290000000	n/a	143529	FrequentVariableSOA	1783	n/a	n/a	1
145.3120000000	n/a	145312	GoVariableSOA	481	n/a	n/a	1
147.0120000000	n/a	147012	FrequentVariableSOA	1633	n/a	n/a	1
148.6450000000	n/a	148645	FrequentVariableSOA	1650	n/a	n/a	1
150.2950000000	n/a	150295	FrequentVariableSOA	1683	n/a	n/a	1
151.9790000000	n/a	151979	NovelVariableSOA	1700	n/a	n/a	1
153.6790000000	n/a	153679	FrequentVariableSOA	1800	n/a	n/a	1
155.4790000000	n/a	155479	FrequentVariableSOA	1583	n/a	n/a	1
157.0620000000	n/a	157062	FrequentVariableSOA	1633	n/a	n/a	1
158.6950000000	n/a	158695	GoVariableSOA	502	n/a	n/a	1
160.1950000000	n/a	160195	FrequentVariableSOA	1516	n/a	n/a	1
161.7120000000	n/a	161712	NovelVariableSOA	1700	n/a	n/a	1
163.4120000000	n/a	163412	FrequentVariableSOA	1733	n/a	n/a	1
165.1450000000	n/a	165145	FrequentVariableSOA	1783	n/a	n/a	1
166.9290000000	n/a	166929	FrequentVariableSOA	1716	n/a	n/a	1
168.6450000000	n/a	168645	GoVariableSOA	509	n/a	n/a	1
170.3450000000	n/a	170345	FrequentVariableSOA	1650	n/a	n/a	1
171.9950000000	n/a	171995	GoVariableSOA	743	n/a	n/a	1
173.6290000000	n/a	173629	FrequentVariableSOA	1533	n/a	n/a	1
175.1620000000	n/a	175162	FrequentVariableSOA	1500	n/a	n/a	1
176.6620000000	n/a	176662	GoVariableSOA	498	n/a	n/a	1
178.3790000000	n/a	178379	FrequentVariableSOA	1633	n/a	n/a	1
180.0120000000	n/a	180012	FrequentVariableSOA	1616	n/a	n/a	1
181.6290000000	n/a	181629	FrequentVariableSOA	1683	n/a	n/a	1
183.3120000000	n/a	183312	FrequentVariableSOA	1516	n/a	n/a	1
184.8290000000	n/a	184829	NovelVariableSOA	1583	n/a	n/a	1
186.4120000000	n/a	186412	FrequentVariableSOA	1650	n/a	n/a	1
188.0620000000	n/a	188062	NovelVariableSOA	1533	n/a	n/a	1
189.5950000000	n/a	189595	FrequentVariableSOA	1550	n/a	n/a	1
191.1450000000	n/a	191145	FrequentVariableSOA	1666	n/a	n/a	1
192.8120000000	n/a	192812	GoVariableSOA	384	n/a	n/a	1
194.5790000000	n/a	194579	FrequentVariableSOA	1683	n/a	n/a	1
196.2620000000	n/a	196262	FrequentVariableSOA	1750	n/a	n/a	1
198.0120000000	n/a	198012	FrequentVariableSOA	1616	n/a	n/a	1
199.6290000000	n/a	199629	FrequentVariableSOA	1583	n/a	n/a	1
201.2120000000	n/a	201212	NovelVariableSOA	1550	n/a	n/a	1
202.7620000000	n/a	202762	FrequentVariableSOA	1716	n/a	n/a	1
204.4790000000	n/a	204479	FrequentVariableSOA	1583	n/a	n/a	1
206.0620000000	n/a	206062	FrequentVariableSOA	1516	n/a	n/a	1
207.5790000000	n/a	207579	FrequentVariableSOA	1633	n/a	n/a	1
209.2120000000	n/a	209212	GoVariableSOA	407	n/a	n/a	1
210.9280000000	n/a	210928	FrequentVariableSOA	1616	n/a	n/a	1
212.5450000000	n/a	212545	FrequentVariableSOA	1733	n/a	n/a	1
214.2780000000	n/a	214278	NovelVariableSOA	1650	n/a	n/a	1
215.9280000000	n/a	215928	FrequentVariableSOA	1516	n/a	n/a	1
217.4450000000	n/a	217445	FrequentVariableSOA	1583	n/a	n/a	1
219.0280000000	n/a	219028	GoVariableSOA	448	n/a	n/a	1
220.6780000000	n/a	220678	FrequentVariableSOA	1733	n/a	n/a	1
222.4120000000	n/a	222412	FrequentVariableSOA	1533	n/a	n/a	1
223.9450000000	n/a	223945	FrequentVariableSOA	1666	n/a	n/a	1
225.6120000000	n/a	225612	FrequentVariableSOA	1500	n/a	n/a	1
227.1120000000	n/a	227112	NovelVariableSOA	1733	n/a	n/a	1
228.8450000000	n/a	228845	FrequentVariableSOA	1666	n/a	n/a	1
230.5120000000	n/a	230512	FrequentVariableSOA	1666	n/a	n/a	1
232.1780000000	n/a	232178	GoVariableSOA	428	n/a	n/a	1
233.7950000000	n/a	233795	FrequentFixedSOA	1633	n/a	n/a	1
235.4280000000	n/a	235428	FrequentFixedSOA	1633	n/a	n/a	1
237.0620000000	n/a	237062	FrequentFixedSOA	1633	n/a	n/a	1
238.6950000000	n/a	238695	GoFixedSOA	590	n/a	n/a	1
240.3280000000	n/a	240328	FrequentFixedSOA	1633	n/a	n/a	1
241.9620000000	n/a	241962	FrequentFixedSOA	1633	n/a	n/a	1
243.5950000000	n/a	243595	FrequentFixedSOA	1633	n/a	n/a	1
245.2280000000	n/a	245228	GoFixedSOA	439	n/a	n/a	1
246.8620000000	n/a	246862	FrequentFixedSOA	1633	n/a	n/a	1
248.4950000000	n/a	248495	FrequentFixedSOA	1633	n/a	n/a	1
250.1280000000	n/a	250128	FrequentFixedSOA	1633	n/a	n/a	1
251.7620000000	n/a	251762	NovelFixedSOA	1633	n/a	n/a	1
253.3950000000	n/a	253395	FrequentFixedSOA	1633	n/a	n/a	1
255.0280000000	n/a	255028	NovelFixedSOA	1633	n/a	n/a	1
256.6620000000	n/a	256662	FrequentFixedSOA	1633	n/a	n/a	1
258.2950000000	n/a	258295	FrequentFixedSOA	1633	n/a	n/a	1
259.9280000000	n/a	259928	NovelFixedSOA	1633	n/a	n/a	1
261.5620000000	n/a	261562	FrequentFixedSOA	1633	n/a	n/a	1
263.1950000000	n/a	263195	FrequentFixedSOA	1633	n/a	n/a	1
264.8280000000	n/a	264828	FrequentFixedSOA	1633	n/a	n/a	1
266.4620000000	n/a	266462	FrequentFixedSOA	1633	n/a	n/a	1
268.0950000000	n/a	268095	FrequentFixedSOA	1633	n/a	n/a	1
269.7280000000	n/a	269728	NovelFixedSOA	1633	n/a	n/a	1
271.3620000000	n/a	271362	FrequentFixedSOA	1633	n/a	n/a	1
272.9950000000	n/a	272995	FrequentFixedSOA	1633	n/a	n/a	1
274.6280000000	n/a	274628	FrequentFixedSOA	1633	n/a	n/a	1
276.2620000000	n/a	276262	FrequentFixedSOA	1633	n/a	n/a	1
277.8950000000	n/a	277895	FrequentFixedSOA	1633	n/a	n/a	1
279.5280000000	n/a	279528	GoFixedSOA	402	n/a	n/a	1
281.1620000000	n/a	281162	FrequentFixedSOA	1633	n/a	n/a	1
282.7950000000	n/a	282795	FrequentFixedSOA	1633	n/a	n/a	1
284.4280000000	n/a	284428	GoFixedSOA	766	n/a	n/a	1
286.0620000000	n/a	286062	FrequentFixedSOA	1633	n/a	n/a	1
287.6950000000	n/a	287695	NovelFixedSOA	1633	n/a	n/a	1
289.3280000000	n/a	289328	FrequentFixedSOA	1633	n/a	n/a	1
290.9620000000	n/a	290962	GoFixedSOA	448	n/a	n/a	1
292.5950000000	n/a	292595	FrequentFixedSOA	1633	n/a	n/a	1
294.2280000000	n/a	294228	GoFixedSOA	472	n/a	n/a	1
295.8620000000	n/a	295862	FrequentFixedSOA	1633	n/a	n/a	1
297.4950000000	n/a	297495	FrequentFixedSOA	1633	n/a	n/a	1
299.1280000000	n/a	299128	FrequentFixedSOA	1633	n/a	n/a	1
300.7620000000	n/a	300762	FrequentFixedSOA	1633	n/a	n/a	1
302.3950000000	n/a	302395	GoFixedSOA	498	n/a	n/a	1
304.0280000000	n/a	304028	FrequentFixedSOA	1633	n/a	n/a	1
305.6620000000	n/a	305662	FrequentFixedSOA	1633	n/a	n/a	1
307.2950000000	n/a	307295	FrequentFixedSOA	1633	n/a	n/a	1
308.9280000000	n/a	308928	NovelFixedSOA	1633	n/a	n/a	1
310.5620000000	n/a	310562	FrequentFixedSOA	1633	n/a	n/a	1
312.1950000000	n/a	312195	FrequentFixedSOA	1633	n/a	n/a	1
313.8280000000	n/a	313828	FrequentFixedSOA	1633	n/a	n/a	1
315.4620000000	n/a	315462	FrequentFixedSOA	1633	n/a	n/a	1
317.0950000000	n/a	317095	NovelFixedSOA	1633	n/a	n/a	1
318.7280000000	n/a	318728	FrequentFixedSOA	1633	n/a	n/a	1
320.3620000000	n/a	320362	FrequentFixedSOA	1633	n/a	n/a	1
321.9950000000	n/a	321995	FrequentFixedSOA	1633	n/a	n/a	1
323.6280000000	n/a	323628	FrequentFixedSOA	1633	n/a	n/a	1
325.2620000000	n/a	325262	NovelFixedSOA	1633	n/a	n/a	1
326.8950000000	n/a	326895	FrequentFixedSOA	1633	n/a	n/a	1
328.5280000000	n/a	328528	FrequentFixedSOA	1633	n/a	n/a	1
330.1620000000	n/a	330162	GoFixedSOA	376	n/a	n/a	1
331.7950000000	n/a	331795	FrequentFixedSOA	1633	n/a	n/a	1
333.4280000000	n/a	333428	FrequentFixedSOA	1633	n/a	n/a	1
335.0620000000	n/a	335062	FrequentFixedSOA	1633	n/a	n/a	1
336.6950000000	n/a	336695	FrequentFixedSOA	1633	n/a	n/a	1
338.3280000000	n/a	338328	NovelFixedSOA	1633	n/a	n/a	1
339.9620000000	n/a	339962	FrequentFixedSOA	1633	n/a	n/a	1
341.5950000000	n/a	341595	FrequentFixedSOA	1633	n/a	n/a	1
343.2280000000	n/a	343228	FrequentFixedSOA	1633	n/a	n/a	1
344.8620000000	n/a	344862	FrequentFixedSOA	1633	n/a	n/a	1
346.4950000000	n/a	346495	FrequentFixedSOA	1633	n/a	n/a	1
348.1280000000	n/a	348128	FrequentVariableSOA	1766	n/a	n/a	1
349.8950000000	n/a	349895	FrequentVariableSOA	1600	n/a	n/a	1
351.4950000000	n/a	351495	FrequentVariableSOA	1616	n/a	n/a	1
353.1120000000	n/a	353112	GoVariableSOA	411	n/a	n/a	1
354.8620000000	n/a	354862	FrequentVariableSOA	1766	n/a	n/a	1
356.6280000000	n/a	356628	FrequentVariableSOA	1683	n/a	n/a	1
358.3120000000	n/a	358312	FrequentVariableSOA	1750	n/a	n/a	1
360.0620000000	n/a	360062	GoVariableSOA	400	n/a	n/a	1
361.6280000000	n/a	361628	FrequentVariableSOA	1716	n/a	n/a	1
363.3450000000	n/a	363345	FrequentVariableSOA	1583	n/a	n/a	1
364.9280000000	n/a	364928	FrequentVariableSOA	1716	n/a	n/a	1
366.6450000000	n/a	366645	NovelVariableSOA	1733	n/a	n/a	1
368.3780000000	n/a	368378	FrequentVariableSOA	1566	n/a	n/a	1
369.9450000000	n/a	369945	NovelVariableSOA	1650	n/a	n/a	1
371.5950000000	n/a	371595	FrequentVariableSOA	1650	n/a	n/a	1
373.2450000000	n/a	373245	FrequentVariableSOA	1583	n/a	n/a	1
374.8280000000	n/a	374828	NovelVariableSOA	1700	n/a	n/a	1
376.5280000000	n/a	376528	FrequentVariableSOA	1583	n/a	n/a	1
378.1120000000	n/a	378112	FrequentVariableSOA	1700	n/a	n/a	1
379.8120000000	n/a	379812	FrequentVariableSOA	1633	n/a	n/a	1
381.4450000000	n/a	381445	FrequentVariableSOA	1783	n/a	n/a	1
383.2280000000	n/a	383228	FrequentVariableSOA	1533	n/a	n/a	1
384.7620000000	n/a	384762	NovelVariableSOA	1566	n/a	n/a	1
386.3280000000	n/a	386328	FrequentVariableSOA	1616	n/a	n/a	1
387.9450000000	n/a	387945	FrequentVariableSOA	1783	n/a	n/a	1
389.7280000000	n/a	389728	FrequentVariableSOA	1716	n/a	n/a	1
391.4450000000	n/a	391445	FrequentVariableSOA	1733	n/a	n/a	1
393.1780000000	n/a	393178	FrequentVariableSOA	1583	n/a	n/a	1
394.7620000000	n/a	394762	GoVariableSOA	442	n/a	n/a	1
396.3950000000	n/a	396395	FrequentVariableSOA	1750	n/a	n/a	1
398.1450000000	n/a	398145	FrequentVariableSOA	1583	n/a	n/a	1
399.7280000000	n/a	399728	GoVariableSOA	460	n/a	n/a	1
401.4120000000	n/a	401412	FrequentVariableSOA	1650	n/a	n/a	1
403.0620000000	n/a	403062	NovelVariableSOA	1550	n/a	n/a	1
404.6120000000	n/a	404612	FrequentVariableSOA	1566	n/a	n/a	1
406.1780000000	n/a	406178	GoVariableSOA	478	n/a	n/a	1
407.8950000000	n/a	407895	FrequentVariableSOA	1783	n/a	n/a	1
409.6780000000	n/a	409678	GoVariableSOA	387	n/a	n/a	1
411.4120000000	n/a	411412	FrequentVariableSOA	1533	n/a	n/a	1
412.9450000000	n/a	412945	FrequentVariableSOA	1666	n/a	n/a	1
414.6120000000	n/a	414612	FrequentVariableSOA	1766	n/a	n/a	1
416.3780000000	n/a	416378	FrequentVariableSOA	1666	n/a	n/a	1
418.0450000000	n/a	418045	GoVariableSOA	441	n/a	n/a	1
419.6950000000	n/a	419695	FrequentVariableSOA	1750	n/a	n/a	1
421.4450000000	n/a	421445	FrequentVariableSOA	1566	n/a	n/a	1
423.0120000000	n/a	423012	FrequentVariableSOA	1683	n/a	n/a	1
424.6950000000	n/a	424695	NovelVariableSOA	1566	n/a	n/a	1
426.2610000000	n/a	426261	FrequentVariableSOA	1783	n/a	n/a	1
428.0450000000	n/a	428045	FrequentVariableSOA	1583	n/a	n/a	1
429.6280000000	n/a	429628	FrequentVariableSOA	1600	n/a	n/a	1
431.2280000000	n/a	431228	FrequentVariableSOA	1683	n/a	n/a	1
432.9110000000	n/a	432911	NovelVariableSOA	1766	n/a	n/a	1
434.6780000000	n/a	434678	FrequentVariableSOA	1550	n/a	n/a	1
436.2280000000	n/a	436228	FrequentVariableSOA	1566	n/a	n/a	1
437.7950000000	n/a	437795	FrequentVariableSOA	1750	n/a	n/a	1
439.5450000000	n/a	439545	FrequentVariableSOA	1616	n/a	n/a	1
441.1610000000	n/a	441161	NovelVariableSOA	1600	n/a	n/a	1
442.7610000000	n/a	442761	FrequentVariableSOA	1716	n/a	n/a	1
444.4780000000	n/a	444478	FrequentVariableSOA	1516	n/a	n/a	1
445.9950000000	n/a	445995	GoVariableSOA	541	n/a	n/a	1
447.5610000000	n/a	447561	FrequentVariableSOA	1566	n/a	n/a	1
449.1280000000	n/a	449128	FrequentVariableSOA	1766	n/a	n/a	1
450.8950000000	n/a	450895	FrequentVariableSOA	1783	n/a	n/a	1
452.6780000000	n/a	452678	FrequentVariableSOA	1533	n/a	n/a	1
454.2110000000	n/a	454211	NovelVariableSOA	1766	n/a	n/a	1
455.9780000000	n/a	455978	FrequentVariableSOA	1650	n/a	n/a	1
457.6280000000	n/a	457628	FrequentVariableSOA	1566	n/a	n/a	1
459.1950000000	n/a	459195	FrequentVariableSOA	1783	n/a	n/a	1
460.9780000000	n/a	460978	FrequentVariableSOA	1766	n/a	n/a	1
462.7450000000	n/a	462745	FrequentVariableSOA	1533	n/a	n/a	1
464.2780000000	n/a	464278	GoFixedSOA	376	n/a	n/a	1
465.9110000000	n/a	465911	FrequentFixedSOA	1633	n/a	n/a	1
467.5450000000	n/a	467545	FrequentFixedSOA	1633	n/a	n/a	1
469.1780000000	n/a	469178	FrequentFixedSOA	1633	n/a	n/a	1
470.8110000000	n/a	470811	FrequentFixedSOA	1633	n/a	n/a	1
472.4450000000	n/a	472445	FrequentFixedSOA	1633	n/a	n/a	1
474.0780000000	n/a	474078	FrequentFixedSOA	1633	n/a	n/a	1
475.7110000000	n/a	475711	NovelFixedSOA	1633	n/a	n/a	1
477.3450000000	n/a	477345	FrequentFixedSOA	1633	n/a	n/a	1
478.9780000000	n/a	478978	FrequentFixedSOA	1633	n/a	n/a	1
480.6110000000	n/a	480611	FrequentFixedSOA	1633	n/a	n/a	1
482.2450000000	n/a	482245	NovelFixedSOA	1633	n/a	n/a	1
483.8780000000	n/a	483878	FrequentFixedSOA	1633	n/a	n/a	1
485.5110000000	n/a	485511	GoFixedSOA	468	n/a	n/a	1
487.1450000000	n/a	487145	FrequentFixedSOA	1633	n/a	n/a	1
488.7780000000	n/a	488778	FrequentFixedSOA	1633	n/a	n/a	1
490.4110000000	n/a	490411	GoFixedSOA	567	n/a	n/a	1
492.0450000000	n/a	492045	FrequentFixedSOA	1633	n/a	n/a	1
493.6780000000	n/a	493678	NovelFixedSOA	1633	n/a	n/a	1
495.3110000000	n/a	495311	FrequentFixedSOA	1633	n/a	n/a	1
496.9450000000	n/a	496945	FrequentFixedSOA	1633	n/a	n/a	1
498.5780000000	n/a	498578	FrequentFixedSOA	1633	n/a	n/a	1
500.2110000000	n/a	500211	FrequentFixedSOA	1633	n/a	n/a	1
501.8450000000	n/a	501845	FrequentFixedSOA	1633	n/a	n/a	1
503.4780000000	n/a	503478	GoFixedSOA	398	n/a	n/a	1
505.1110000000	n/a	505111	FrequentFixedSOA	1633	n/a	n/a	1
506.7450000000	n/a	506745	FrequentFixedSOA	1633	n/a	n/a	1
508.3780000000	n/a	508378	NovelFixedSOA	1633	n/a	n/a	1
510.0110000000	n/a	510011	FrequentFixedSOA	1633	n/a	n/a	1
511.6450000000	n/a	511645	FrequentFixedSOA	1633	n/a	n/a	1
513.2780000000	n/a	513278	FrequentFixedSOA	1633	n/a	n/a	1
514.9110000000	n/a	514911	FrequentFixedSOA	1633	n/a	n/a	1
516.5450000000	n/a	516545	FrequentFixedSOA	1633	n/a	n/a	1
518.1780000000	n/a	518178	NovelFixedSOA	1633	n/a	n/a	1
519.8110000000	n/a	519811	FrequentFixedSOA	1633	n/a	n/a	1
521.4450000000	n/a	521445	FrequentFixedSOA	1633	n/a	n/a	1
523.0780000000	n/a	523078	FrequentFixedSOA	1633	n/a	n/a	1
524.7110000000	n/a	524711	FrequentFixedSOA	1633	n/a	n/a	1
526.3450000000	n/a	526345	GoFixedSOA	504	n/a	n/a	1
527.9780000000	n/a	527978	FrequentFixedSOA	1633	n/a	n/a	1
529.6110000000	n/a	529611	FrequentFixedSOA	1633	n/a	n/a	1
531.2450000000	n/a	531245	NovelFixedSOA	1633	n/a	n/a	1
532.8780000000	n/a	532878	FrequentFixedSOA	1633	n/a	n/a	1
534.5110000000	n/a	534511	FrequentFixedSOA	1633	n/a	n/a	1
536.1450000000	n/a	536145	NovelFixedSOA	1633	n/a	n/a	1
537.7780000000	n/a	537778	FrequentFixedSOA	1633	n/a	n/a	1
539.4110000000	n/a	539411	FrequentFixedSOA	1633	n/a	n/a	1
541.0450000000	n/a	541045	FrequentFixedSOA	1633	n/a	n/a	1
542.6780000000	n/a	542678	FrequentFixedSOA	1633	n/a	n/a	1
544.3110000000	n/a	544311	FrequentFixedSOA	1633	n/a	n/a	1
545.9450000000	n/a	545945	GoFixedSOA	666	n/a	n/a	1
547.5780000000	n/a	547578	FrequentFixedSOA	1633	n/a	n/a	1
549.2110000000	n/a	549211	FrequentFixedSOA	1633	n/a	n/a	1
550.8450000000	n/a	550845	FrequentFixedSOA	1633	n/a	n/a	1
552.4780000000	n/a	552478	FrequentFixedSOA	1633	n/a	n/a	1
554.1110000000	n/a	554111	FrequentFixedSOA	1633	n/a	n/a	1
555.7450000000	n/a	555745	NovelFixedSOA	1633	n/a	n/a	1
557.3780000000	n/a	557378	FrequentFixedSOA	1633	n/a	n/a	1
559.0110000000	n/a	559011	GoFixedSOA	549	n/a	n/a	1
560.6450000000	n/a	560645	FrequentFixedSOA	1633	n/a	n/a	1
562.2780000000	n/a	562278	FrequentFixedSOA	1633	n/a	n/a	1
563.9110000000	n/a	563911	FrequentFixedSOA	1633	n/a	n/a	1
565.5450000000	n/a	565545	FrequentFixedSOA	1633	n/a	n/a	1
567.1780000000	n/a	567178	FrequentFixedSOA	1633	n/a	n/a	1
568.8110000000	n/a	568811	FrequentFixedSOA	1633	n/a	n/a	1
570.4450000000	n/a	570445	FrequentFixedSOA	1633	n/a	n/a	1
572.0780000000	n/a	572078	FrequentFixedSOA	1633	n/a	n/a	1
573.7110000000	n/a	573711	NovelFixedSOA	1633	n/a	n/a	1
575.3450000000	n/a	575345	FrequentFixedSOA	1633	n/a	n/a	1
576.9780000000	n/a	576978	FrequentFixedSOA	1633	n/a	n/a	1
578.6110000000	n/a	578611	GoVariableSOA	466	n/a	n/a	1
580.2610000000	n/a	580261	FrequentVariableSOA	1800	n/a	n/a	1
582.0610000000	n/a	582061	FrequentVariableSOA	1516	n/a	n/a	1
583.5780000000	n/a	583578	FrequentVariableSOA	1583	n/a	n/a	1
585.1610000000	n/a	585161	FrequentVariableSOA	1750	n/a	n/a	1
586.9110000000	n/a	586911	FrequentVariableSOA	1550	n/a	n/a	1
588.4610000000	n/a	588461	FrequentVariableSOA	1583	n/a	n/a	1
590.0450000000	n/a	590045	NovelVariableSOA	1766	n/a	n/a	1
591.8110000000	n/a	591811	FrequentVariableSOA	1616	n/a	n/a	1
593.4280000000	n/a	593428	FrequentVariableSOA	1700	n/a	n/a	1
595.1280000000	n/a	595128	FrequentVariableSOA	1733	n/a	n/a	1
596.8610000000	n/a	596861	NovelVariableSOA	1650	n/a	n/a	1
598.5110000000	n/a	598511	FrequentVariableSOA	1616	n/a	n/a	1
600.1280000000	n/a	600128	GoVariableSOA	446	n/a	n/a	1
601.6280000000	n/a	601628	FrequentVariableSOA	1583	n/a	n/a	1
603.2110000000	n/a	603211	FrequentVariableSOA	1750	n/a	n/a	1
604.9610000000	n/a	604961	GoVariableSOA	712	n/a	n/a	1
606.4950000000	n/a	606495	FrequentVariableSOA	1733	n/a	n/a	1
608.2280000000	n/a	608228	NovelVariableSOA	1616	n/a	n/a	1
609.8450000000	n/a	609845	FrequentVariableSOA	1550	n/a	n/a	1
611.3950000000	n/a	611395	FrequentVariableSOA	1733	n/a	n/a	1
613.1280000000	n/a	613128	FrequentVariableSOA	1500	n/a	n/a	1
614.6280000000	n/a	614628	FrequentVariableSOA	1550	n/a	n/a	1
616.1780000000	n/a	616178	FrequentVariableSOA	1516	n/a	n/a	1
617.6950000000	n/a	617695	GoVariableSOA	395	n/a	n/a	1
619.4950000000	n/a	619495	FrequentVariableSOA	1800	n/a	n/a	1
621.2950000000	n/a	621295	FrequentVariableSOA	1683	n/a	n/a	1
622.9780000000	n/a	622978	NovelVariableSOA	1733	n/a	n/a	1
624.7110000000	n/a	624711	FrequentVariableSOA	1600	n/a	n/a	1
626.3110000000	n/a	626311	FrequentVariableSOA	1566	n/a	n/a	1
627.8780000000	n/a	627878	FrequentVariableSOA	1783	n/a	n/a	1
629.6610000000	n/a	629661	FrequentVariableSOA	1516	n/a	n/a	1
631.1780000000	n/a	631178	FrequentVariableSOA	1766	n/a	n/a	1
632.9450000000	n/a	632945	NovelVariableSOA	1766	n/a	n/a	1
634.7110000000	n/a	634711	FrequentVariableSOA	1550	n/a	n/a	1
636.2610000000	n/a	636261	FrequentVariableSOA	1716	n/a	n/a	1
637.9780000000	n/a	637978	FrequentVariableSOA	1600	n/a	n/a	1
639.5780000000	n/a	639578	FrequentVariableSOA	1583	n/a	n/a	1
641.1610000000	n/a	641161	GoVariableSOA	418	n/a	n/a	1
642.7110000000	n/a	642711	FrequentVariableSOA	1533	n/a	n/a	1
644.2440000000	n/a	644244	FrequentVariableSOA	1733	n/a	n/a	1
645.9780000000	n/a	645978	NovelVariableSOA	1600	n/a	n/a	1
647.5780000000	n/a	647578	FrequentVariableSOA	1766	n/a	n/a	1
649.3440000000	n/a	649344	FrequentVariableSOA	1533	n/a	n/a	1
650.8780000000	n/a	650878	NovelVariableSOA	1666	n/a	n/a	1
652.5440000000	n/a	652544	FrequentVariableSOA	1583	n/a	n/a	1
654.1280000000	n/a	654128	FrequentVariableSOA	1733	n/a	n/a	1
655.8610000000	n/a	655861	FrequentVariableSOA	1633	n/a	n/a	1
657.4940000000	n/a	657494	FrequentVariableSOA	1800	n/a	n/a	1
659.2940000000	n/a	659294	FrequentVariableSOA	1516	n/a	n/a	1
660.8110000000	n/a	660811	GoVariableSOA	611	n/a	n/a	1
662.5440000000	n/a	662544	FrequentVariableSOA	1633	n/a	n/a	1
664.1780000000	n/a	664178	FrequentVariableSOA	1733	n/a	n/a	1
665.9110000000	n/a	665911	FrequentVariableSOA	1633	n/a	n/a	1
667.5440000000	n/a	667544	FrequentVariableSOA	1766	n/a	n/a	1
669.3110000000	n/a	669311	FrequentVariableSOA	1666	n/a	n/a	1
670.9780000000	n/a	670978	NovelVariableSOA	1683	n/a	n/a	1
672.6610000000	n/a	672661	FrequentVariableSOA	1750	n/a	n/a	1
674.4110000000	n/a	674411	GoVariableSOA	461	n/a	n/a	1
676.0610000000	n/a	676061	FrequentVariableSOA	1516	n/a	n/a	1
677.5780000000	n/a	677578	FrequentVariableSOA	1716	n/a	n/a	1
679.2940000000	n/a	679294	FrequentVariableSOA	1516	n/a	n/a	1
680.8110000000	n/a	680811	FrequentVariableSOA	1533	n/a	n/a	1
682.3440000000	n/a	682344	FrequentVariableSOA	1533	n/a	n/a	1
683.8780000000	n/a	683878	FrequentVariableSOA	1533	n/a	n/a	1
685.4110000000	n/a	685411	FrequentVariableSOA	1500	n/a	n/a	1
686.9110000000	n/a	686911	FrequentVariableSOA	1616	n/a	n/a	1
688.5280000000	n/a	688528	NovelVariableSOA	1666	n/a	n/a	1
690.1940000000	n/a	690194	FrequentVariableSOA	1516	n/a	n/a	1
691.7110000000	n/a	691711	FrequentVariableSOA	1616	n/a	n/a	1
693.3280000000	n/a	693328	GoFixedSOA	503	n/a	n/a	1
694.9610000000	n/a	694961	FrequentFixedSOA	1633	n/a	n/a	1
696.5940000000	n/a	696594	FrequentFixedSOA	1633	n/a	n/a	1
698.2280000000	n/a	698228	FrequentFixedSOA	1633	n/a	n/a	1
699.8610000000	n/a	699861	GoFixedSOA	1633	n/a	n/a	0
701.4940000000	n/a	701494	FrequentFixedSOA	1633	n/a	n/a	1
703.1280000000	n/a	703128	FrequentFixedSOA	1633	n/a	n/a	1
704.7610000000	n/a	704761	FrequentFixedSOA	1633	n/a	n/a	1
706.3940000000	n/a	706394	FrequentFixedSOA	1633	n/a	n/a	1
708.0280000000	n/a	708028	GoFixedSOA	394	n/a	n/a	1
709.6610000000	n/a	709661	FrequentFixedSOA	1633	n/a	n/a	1
711.2940000000	n/a	711294	FrequentFixedSOA	1633	n/a	n/a	1
712.9280000000	n/a	712928	NovelFixedSOA	1633	n/a	n/a	1
714.5610000000	n/a	714561	FrequentFixedSOA	1633	n/a	n/a	1
716.1940000000	n/a	716194	FrequentFixedSOA	1633	n/a	n/a	1
717.8280000000	n/a	717828	GoFixedSOA	388	n/a	n/a	1
719.4610000000	n/a	719461	FrequentFixedSOA	1633	n/a	n/a	1
721.0940000000	n/a	721094	FrequentFixedSOA	1633	n/a	n/a	1
722.7280000000	n/a	722728	FrequentFixedSOA	1633	n/a	n/a	1
724.3610000000	n/a	724361	NovelFixedSOA	1633	n/a	n/a	1
725.9940000000	n/a	725994	FrequentFixedSOA	1633	n/a	n/a	1
727.6280000000	n/a	727628	NovelFixedSOA	1633	n/a	n/a	1
729.2610000000	n/a	729261	FrequentFixedSOA	1633	n/a	n/a	1
730.8940000000	n/a	730894	FrequentFixedSOA	1633	n/a	n/a	1
732.5280000000	n/a	732528	FrequentFixedSOA	1633	n/a	n/a	1
734.1610000000	n/a	734161	GoFixedSOA	441	n/a	n/a	1
735.7940000000	n/a	735794	FrequentFixedSOA	1633	n/a	n/a	1
737.4280000000	n/a	737428	FrequentFixedSOA	1633	n/a	n/a	1
739.0610000000	n/a	739061	FrequentFixedSOA	1633	n/a	n/a	1
740.6940000000	n/a	740694	GoFixedSOA	503	n/a	n/a	1
742.3280000000	n/a	742328	FrequentFixedSOA	1633	n/a	n/a	1
743.9610000000	n/a	743961	FrequentFixedSOA	1633	n/a	n/a	1
745.5940000000	n/a	745594	NovelFixedSOA	1633	n/a	n/a	1
747.2280000000	n/a	747228	FrequentFixedSOA	1633	n/a	n/a	1
748.8610000000	n/a	748861	GoFixedSOA	411	n/a	n/a	1
750.4940000000	n/a	750494	FrequentFixedSOA	1633	n/a	n/a	1
752.1280000000	n/a	752128	FrequentFixedSOA	1633	n/a	n/a	1
753.7610000000	n/a	753761	FrequentFixedSOA	1633	n/a	n/a	1
755.3940000000	n/a	755394	FrequentFixedSOA	1633	n/a	n/a	1
757.0280000000	n/a	757028	FrequentFixedSOA	1633	n/a	n/a	1
758.6610000000	n/a	758661	FrequentFixedSOA	1633	n/a	n/a	1
760.2940000000	n/a	760294	NovelFixedSOA	1633	n/a	n/a	1
761.9280000000	n/a	761928	FrequentFixedSOA	1633	n/a	n/a	1
763.5610000000	n/a	763561	FrequentFixedSOA	1633	n/a	n/a	1
765.1940000000	n/a	765194	FrequentFixedSOA	1633	n/a	n/a	1
766.8280000000	n/a	766828	GoFixedSOA	540	n/a	n/a	1
768.4610000000	n/a	768461	FrequentFixedSOA	1633	n/a	n/a	1
770.0940000000	n/a	770094	FrequentFixedSOA	1633	n/a	n/a	1
771.7280000000	n/a	771728	FrequentFixedSOA	1633	n/a	n/a	1
773.3610000000	n/a	773361	FrequentFixedSOA	1633	n/a	n/a	1
774.9940000000	n/a	774994	NovelFixedSOA	1633	n/a	n/a	1
776.6280000000	n/a	776628	FrequentFixedSOA	1633	n/a	n/a	1
778.2610000000	n/a	778261	FrequentFixedSOA	1633	n/a	n/a	1
779.8940000000	n/a	779894	NovelFixedSOA	1633	n/a	n/a	1
781.5280000000	n/a	781528	FrequentFixedSOA	1633	n/a	n/a	1
783.1610000000	n/a	783161	NovelFixedSOA	1633	n/a	n/a	1
784.7940000000	n/a	784794	FrequentFixedSOA	1633	n/a	n/a	1
786.4280000000	n/a	786428	FrequentFixedSOA	1633	n/a	n/a	1
788.0610000000	n/a	788061	FrequentFixedSOA	1633	n/a	n/a	1
789.6940000000	n/a	789694	FrequentFixedSOA	1633	n/a	n/a	1
791.3280000000	n/a	791328	FrequentFixedSOA	1633	n/a	n/a	1
792.9610000000	n/a	792961	FrequentFixedSOA	1633	n/a	n/a	1
794.5940000000	n/a	794594	FrequentFixedSOA	1633	n/a	n/a	1
796.2280000000	n/a	796228	GoFixedSOA	471	n/a	n/a	1
797.8610000000	n/a	797861	FrequentFixedSOA	1633	n/a	n/a	1
799.4940000000	n/a	799494	GoFixedSOA	1633	n/a	n/a	0
801.1280000000	n/a	801128	FrequentFixedSOA	1633	n/a	n/a	1
802.7610000000	n/a	802761	FrequentFixedSOA	1633	n/a	n/a	1
804.3940000000	n/a	804394	NovelFixedSOA	1633	n/a	n/a	1
806.0280000000	n/a	806028	FrequentFixedSOA	1633	n/a	n/a	1
807.6610000000	n/a	807661	GoVariableSOA	532	n/a	n/a	1
809.2940000000	n/a	809294	FrequentVariableSOA	1550	n/a	n/a	1
810.8440000000	n/a	810844	FrequentVariableSOA	1533	n/a	n/a	1
812.3780000000	n/a	812378	FrequentVariableSOA	1800	n/a	n/a	1
814.1780000000	n/a	814178	GoVariableSOA	616	n/a	n/a	1
815.7940000000	n/a	815794	FrequentVariableSOA	1750	n/a	n/a	1
817.5440000000	n/a	817544	FrequentVariableSOA	1516	n/a	n/a	1
819.0610000000	n/a	819061	FrequentVariableSOA	1533	n/a	n/a	1
820.5940000000	n/a	820594	FrequentVariableSOA	1766	n/a	n/a	1
822.3610000000	n/a	822361	GoVariableSOA	1633	n/a	n/a	0
823.9940000000	n/a	823994	FrequentVariableSOA	1566	n/a	n/a	1
825.5610000000	n/a	825561	FrequentVariableSOA	1550	n/a	n/a	1
827.1110000000	n/a	827111	NovelVariableSOA	1550	n/a	n/a	1
828.6610000000	n/a	828661	FrequentVariableSOA	1683	n/a	n/a	1
830.3440000000	n/a	830344	FrequentVariableSOA	1566	n/a	n/a	1
831.9110000000	n/a	831911	GoVariableSOA	1533	n/a	n/a	0
833.4440000000	n/a	833444	FrequentVariableSOA	1716	n/a	n/a	1
835.1610000000	n/a	835161	FrequentVariableSOA	1750	n/a	n/a	1
836.9110000000	n/a	836911	FrequentVariableSOA	1783	n/a	n/a	1
838.6940000000	n/a	838694	NovelVariableSOA	1616	n/a	n/a	1
840.3110000000	n/a	840311	FrequentVariableSOA	1600	n/a	n/a	1
841.9110000000	n/a	841911	NovelVariableSOA	1716	n/a	n/a	1
843.6280000000	n/a	843628	FrequentVariableSOA	1550	n/a	n/a	1
845.1780000000	n/a	845178	FrequentVariableSOA	1666	n/a	n/a	1
846.8440000000	n/a	846844	FrequentVariableSOA	1766	n/a	n/a	1
848.6110000000	n/a	848611	GoVariableSOA	522	n/a	n/a	1
850.3280000000	n/a	850328	FrequentVariableSOA	1783	n/a	n/a	1
852.1110000000	n/a	852111	FrequentVariableSOA	1583	n/a	n/a	1
853.6940000000	n/a	853694	FrequentVariableSOA	1533	n/a	n/a	1
855.2280000000	n/a	855228	GoVariableSOA	1533	n/a	n/a	0
856.7610000000	n/a	856761	FrequentVariableSOA	1600	n/a	n/a	1
858.3610000000	n/a	858361	FrequentVariableSOA	1650	n/a	n/a	1
860.0110000000	n/a	860011	NovelVariableSOA	1566	n/a	n/a	1
861.5770000000	n/a	861577	FrequentVariableSOA	1783	n/a	n/a	1
863.3610000000	n/a	863361	GoVariableSOA	1783	n/a	n/a	0
865.1440000000	n/a	865144	FrequentVariableSOA	1533	n/a	n/a	1
866.6770000000	n/a	866677	FrequentVariableSOA	1583	n/a	n/a	1
868.2610000000	n/a	868261	FrequentVariableSOA	1783	n/a	n/a	1
870.0440000000	n/a	870044	FrequentVariableSOA	1600	n/a	n/a	1
871.6440000000	n/a	871644	FrequentVariableSOA	1650	n/a	n/a	1
873.2940000000	n/a	873294	FrequentVariableSOA	1683	n/a	n/a	1
874.9770000000	n/a	874977	NovelVariableSOA	1633	n/a	n/a	1
876.6110000000	n/a	876611	FrequentVariableSOA	1650	n/a	n/a	1
878.2610000000	n/a	878261	FrequentVariableSOA	1550	n/a	n/a	1
879.8110000000	n/a	879811	FrequentVariableSOA	1650	n/a	n/a	1
881.4610000000	n/a	881461	GoVariableSOA	607	n/a	n/a	1
883.0270000000	n/a	883027	FrequentVariableSOA	1716	n/a	n/a	1
884.7440000000	n/a	884744	FrequentVariableSOA	1683	n/a	n/a	1
886.4270000000	n/a	886427	FrequentVariableSOA	1666	n/a	n/a	1
888.0940000000	n/a	888094	FrequentVariableSOA	1583	n/a	n/a	1
889.6770000000	n/a	889677	NovelVariableSOA	1533	n/a	n/a	1
891.2110000000	n/a	891211	FrequentVariableSOA	1700	n/a	n/a	1
892.9110000000	n/a	892911	FrequentVariableSOA	1600	n/a	n/a	1
894.5110000000	n/a	894511	NovelVariableSOA	1800	n/a	n/a	1
896.3110000000	n/a	896311	FrequentVariableSOA	1700	n/a	n/a	1
898.0110000000	n/a	898011	NovelVariableSOA	1733	n/a	n/a	1
899.7440000000	n/a	899744	FrequentVariableSOA	1683	n/a	n/a	1
901.4270000000	n/a	901427	FrequentVariableSOA	1616	n/a	n/a	1
903.0440000000	n/a	903044	FrequentVariableSOA	1500	n/a	n/a	1
904.5440000000	n/a	904544	FrequentVariableSOA	1500	n/a	n/a	1
906.0440000000	n/a	906044	FrequentVariableSOA	1716	n/a	n/a	1
907.7610000000	n/a	907761	FrequentVariableSOA	1566	n/a	n/a	1
909.3270000000	n/a	909327	FrequentVariableSOA	1500	n/a	n/a	1
910.8270000000	n/a	910827	GoVariableSOA	512	n/a	n/a	1
912.4770000000	n/a	912477	FrequentVariableSOA	1566	n/a	n/a	1
914.0440000000	n/a	914044	GoVariableSOA	880	n/a	n/a	1
915.6440000000	n/a	915644	FrequentVariableSOA	1766	n/a	n/a	1
917.4110000000	n/a	917411	FrequentVariableSOA	1616	n/a	n/a	1
919.0270000000	n/a	919027	NovelVariableSOA	1733	n/a	n/a	1
920.7610000000	n/a	920761	FrequentVariableSOA	1616	n/a	n/a	1
