onset	duration	sample	trial_type	response_time	stim_file	value	correct
14.8950000000	n/a	14895	ignore	4606	n/a	n/a	0
20.5780000000	n/a	20578	ignore	1000	n/a	n/a	1
22.5780000000	n/a	22578	ignore	1700	n/a	n/a	1
24.2780000000	n/a	24278	ignore	2746	n/a	n/a	0
28.0950000000	n/a	28095	ignore	1000	n/a	n/a	1
30.0950000000	n/a	30095	ignore	1700	n/a	n/a	1
31.7950000000	n/a	31795	ignore	8374	n/a	n/a	1
41.2450000000	n/a	41245	ignore	1000	n/a	n/a	1
43.2450000000	n/a	43245	ignore	1700	n/a	n/a	1
44.9450000000	n/a	44945	ignore	4151	n/a	n/a	1
50.1620000000	n/a	50162	ignore	1000	n/a	n/a	1
52.1620000000	n/a	52162	ignore	1700	n/a	n/a	1
53.8620000000	n/a	53862	ignore	2146	n/a	n/a	0
57.0780000000	n/a	57078	ignore	1000	n/a	n/a	1
59.0780000000	n/a	59078	ignore	1700	n/a	n/a	1
60.7780000000	n/a	60778	ignore	8906	n/a	n/a	1
70.7620000000	n/a	70762	ignore	1000	n/a	n/a	1
72.7620000000	n/a	72762	ignore	1700	n/a	n/a	1
74.4620000000	n/a	74462	ignore	3101	n/a	n/a	0
78.6280000000	n/a	78628	ignore	1000	n/a	n/a	1
80.6280000000	n/a	80628	ignore	1700	n/a	n/a	1
82.3280000000	n/a	82328	ignore	3686	n/a	n/a	1
87.0780000000	n/a	87078	ignore	1000	n/a	n/a	1
89.0780000000	n/a	89078	ignore	1700	n/a	n/a	1
90.7780000000	n/a	90778	ignore	4305	n/a	n/a	1
95.1620000000	n/a	95162	ignore 	2000	n/a	n/a	1
105.7450000000	n/a	105745	ignore	1000	n/a	n/a	1
107.7450000000	n/a	107745	ignore	1700	n/a	n/a	1
109.4450000000	n/a	109445	ignore	365	n/a	n/a	0
110.8780000000	n/a	110878	ignore	1000	n/a	n/a	1
112.8780000000	n/a	112878	ignore	1700	n/a	n/a	1
114.5780000000	n/a	114578	ignore	512	n/a	n/a	1
116.1610000000	n/a	116161	ignore	1000	n/a	n/a	1
118.1620000000	n/a	118162	ignore	1700	n/a	n/a	1
119.8610000000	n/a	119861	ignore	637	n/a	n/a	1
121.5610000000	n/a	121561	ignore	1000	n/a	n/a	1
123.5620000000	n/a	123562	ignore	1700	n/a	n/a	1
125.2610000000	n/a	125261	ignore	454	n/a	n/a	0
126.7780000000	n/a	126778	ignore	1000	n/a	n/a	1
128.7780000000	n/a	128778	ignore	1700	n/a	n/a	1
130.4780000000	n/a	130478	ignore	441	n/a	n/a	1
131.9950000000	n/a	131995	ignore	1000	n/a	n/a	1
133.9950000000	n/a	133995	ignore	1700	n/a	n/a	1
135.6950000000	n/a	135695	ignore	419	n/a	n/a	0
137.1780000000	n/a	137178	ignore	1000	n/a	n/a	1
139.1780000000	n/a	139178	ignore	1700	n/a	n/a	1
140.8780000000	n/a	140878	ignore	341	n/a	n/a	0
142.2950000000	n/a	142295	ignore	1000	n/a	n/a	1
144.2950000000	n/a	144295	ignore	1700	n/a	n/a	1
145.9950000000	n/a	145995	ignore	277	n/a	n/a	1
146.3450000000	n/a	146345	ignore 	2000	n/a	n/a	1
157.4950000000	n/a	157495	PenaltyB1	1219	n/a	n/a	0
159.7780000000	n/a	159778	PunIncorrB1	1000	n/a	n/a	1
161.7780000000	n/a	161778	ignore	1700	n/a	n/a	1
163.4780000000	n/a	163478	PenaltyB1	3626	n/a	n/a	0
168.1780000000	n/a	168178	PunIncorrB1	1000	n/a	n/a	1
170.1780000000	n/a	170178	STATUS	1700	n/a	n/a	1
171.8780000000	n/a	171878	PenaltyB1	2585	n/a	n/a	1
175.5280000000	n/a	175528	NeuCorrB1	1000	n/a	n/a	1
177.5280000000	n/a	177528	STATUS	1700	n/a	n/a	1
179.2280000000	n/a	179228	RewardB1	3882	n/a	n/a	0
184.1780000000	n/a	184178	NeuIncorrB1	1000	n/a	n/a	1
186.1780000000	n/a	186178	STATUS	1700	n/a	n/a	1
187.8780000000	n/a	187878	RewardB1	700	n/a	n/a	0
189.6450000000	n/a	189645	NeuIncorrB1	1000	n/a	n/a	1
191.6450000000	n/a	191645	STATUS	1700	n/a	n/a	1
193.3450000000	n/a	193345	PenaltyB1	1414	n/a	n/a	0
195.8280000000	n/a	195828	PunIncorrB1	1000	n/a	n/a	1
197.8280000000	n/a	197828	STATUS	1700	n/a	n/a	1
199.5280000000	n/a	199528	PenaltyB1	3559	n/a	n/a	1
204.1610000000	n/a	204161	NeuCorrB1	1000	n/a	n/a	1
206.1610000000	n/a	206161	STATUS	1700	n/a	n/a	1
207.8610000000	n/a	207861	PenaltyB1	1745	n/a	n/a	1
210.6780000000	n/a	210678	NeuCorrB1	1000	n/a	n/a	1
212.6780000000	n/a	212678	STATUS	1700	n/a	n/a	1
214.3780000000	n/a	214378	PenaltyB1	1971	n/a	n/a	1
217.4110000000	n/a	217411	PunCorrB1	1000	n/a	n/a	1
219.4110000000	n/a	219411	STATUS	1700	n/a	n/a	1
221.1110000000	n/a	221111	RewardB1	1770	n/a	n/a	1
223.9450000000	n/a	223945	RewardCorrB1	1000	n/a	n/a	1
225.9450000000	n/a	225945	STATUS	1700	n/a	n/a	1
227.6450000000	n/a	227645	PenaltyB1	1925	n/a	n/a	1
230.6450000000	n/a	230645	NeuCorrB1	1000	n/a	n/a	1
232.6450000000	n/a	232645	STATUS	1700	n/a	n/a	1
234.3450000000	n/a	234345	RewardB1	1399	n/a	n/a	1
236.8110000000	n/a	236811	NeuCorrB1	1000	n/a	n/a	1
238.8110000000	n/a	238811	STATUS	1700	n/a	n/a	1
240.5110000000	n/a	240511	PenaltyB1	3135	n/a	n/a	0
244.7110000000	n/a	244711	PunIncorrB1	1000	n/a	n/a	1
246.7110000000	n/a	246711	STATUS	1700	n/a	n/a	1
248.4110000000	n/a	248411	RewardB1	952	n/a	n/a	0
250.4280000000	n/a	250428	NeuIncorrB1	1000	n/a	n/a	1
252.4280000000	n/a	252428	STATUS	1700	n/a	n/a	1
254.1280000000	n/a	254128	PenaltyB1	898	n/a	n/a	1
256.0950000000	n/a	256095	NeuCorrB1	1000	n/a	n/a	1
258.0950000000	n/a	258095	STATUS	1700	n/a	n/a	1
259.7950000000	n/a	259795	PenaltyB1	892	n/a	n/a	0
261.7610000000	n/a	261761	PunIncorrB1	1000	n/a	n/a	1
263.7610000000	n/a	263761	STATUS	1700	n/a	n/a	1
265.4610000000	n/a	265461	RewardB1	861	n/a	n/a	0
267.3950000000	n/a	267395	RewIncorrB1	1000	n/a	n/a	1
269.3950000000	n/a	269395	STATUS	1700	n/a	n/a	1
271.0950000000	n/a	271095	PenaltyB1	3221	n/a	n/a	1
275.3780000000	n/a	275378	NeuCorrB1	1000	n/a	n/a	1
277.3780000000	n/a	277378	STATUS	1700	n/a	n/a	1
279.0780000000	n/a	279078	RewardB1	1025	n/a	n/a	0
281.1780000000	n/a	281178	NeuIncorrB1	1000	n/a	n/a	1
283.1780000000	n/a	283178	STATUS	1700	n/a	n/a	1
284.8780000000	n/a	284878	RewardB1	485	n/a	n/a	0
286.4280000000	n/a	286428	NeuIncorrB1	1000	n/a	n/a	1
288.4280000000	n/a	288428	STATUS	1700	n/a	n/a	1
290.1280000000	n/a	290128	RewardB1	1080	n/a	n/a	0
292.2780000000	n/a	292278	RewIncorrB1	1000	n/a	n/a	1
294.2780000000	n/a	294278	STATUS	1700	n/a	n/a	1
295.9780000000	n/a	295978	RewardB1	726	n/a	n/a	0
297.7780000000	n/a	297778	NeuIncorrB1	1000	n/a	n/a	1
299.7780000000	n/a	299778	STATUS	1700	n/a	n/a	1
301.4780000000	n/a	301478	RewardB1	844	n/a	n/a	0
303.3950000000	n/a	303395	NeuIncorrB1	1000	n/a	n/a	1
305.3950000000	n/a	305395	STATUS	1700	n/a	n/a	1
307.0950000000	n/a	307095	PenaltyB1	2637	n/a	n/a	1
310.7940000000	n/a	310794	NeuCorrB1	1000	n/a	n/a	1
312.7950000000	n/a	312795	STATUS	1700	n/a	n/a	1
314.4940000000	n/a	314494	RewardB1	5741	n/a	n/a	1
321.3110000000	n/a	321311	RewardCorrB1	1000	n/a	n/a	1
323.3110000000	n/a	323311	STATUS	1700	n/a	n/a	1
325.0110000000	n/a	325011	PenaltyB1	843	n/a	n/a	1
326.9280000000	n/a	326928	PunCorrB1	1000	n/a	n/a	1
328.9280000000	n/a	328928	STATUS	1700	n/a	n/a	1
330.6280000000	n/a	330628	RewardB1	1750	n/a	n/a	1
333.4440000000	n/a	333444	RewardCorrB1	1000	n/a	n/a	1
335.4450000000	n/a	335445	STATUS	1700	n/a	n/a	1
337.1440000000	n/a	337144	RewardB1	990	n/a	n/a	0
339.2110000000	n/a	339211	NeuIncorrB1	1000	n/a	n/a	1
341.2110000000	n/a	341211	STATUS	1700	n/a	n/a	1
342.9110000000	n/a	342911	RewardB1	705	n/a	n/a	1
344.6940000000	n/a	344694	RewardCorrB1	1000	n/a	n/a	1
346.6940000000	n/a	346694	ignore	1700	n/a	n/a	1
348.3940000000	n/a	348394	PenaltyB1	892	n/a	n/a	1
350.3610000000	n/a	350361	NeuCorrB1	1000	n/a	n/a	1
352.3610000000	n/a	352361	ignore	1700	n/a	n/a	1
354.0610000000	n/a	354061	RewardB1	734	n/a	n/a	1
355.8610000000	n/a	355861	NeuCorrB1	1000	n/a	n/a	1
357.8610000000	n/a	357861	ignore	1700	n/a	n/a	1
359.5610000000	n/a	359561	PenaltyB1	2820	n/a	n/a	1
363.4440000000	n/a	363444	NeuCorrB1	1000	n/a	n/a	1
365.4440000000	n/a	365444	ignore	1700	n/a	n/a	1
367.1440000000	n/a	367144	RewardB1	858	n/a	n/a	0
369.0780000000	n/a	369078	NeuIncorrB1	1000	n/a	n/a	1
371.0780000000	n/a	371078	ignore	1700	n/a	n/a	1
372.7780000000	n/a	372778	PenaltyB1	2573	n/a	n/a	0
376.4280000000	n/a	376428	NeuIncorrB1	1000	n/a	n/a	1
378.4280000000	n/a	378428	ignore	1700	n/a	n/a	1
380.1280000000	n/a	380128	RewardB1	918	n/a	n/a	1
382.1110000000	n/a	382111	RewardCorrB1	1000	n/a	n/a	1
384.1110000000	n/a	384111	ignore	1700	n/a	n/a	1
385.8110000000	n/a	385811	PenaltyB1	2007	n/a	n/a	0
388.8940000000	n/a	388894	PunIncorrB1	1000	n/a	n/a	1
390.8940000000	n/a	390894	ignore	1700	n/a	n/a	1
392.5940000000	n/a	392594	PenaltyB1	1168	n/a	n/a	1
394.8280000000	n/a	394828	NeuCorrB1	1000	n/a	n/a	1
396.8280000000	n/a	396828	ignore	1700	n/a	n/a	1
398.5280000000	n/a	398528	RewardB1	2148	n/a	n/a	1
401.7440000000	n/a	401744	RewardCorrB1	1000	n/a	n/a	1
403.7440000000	n/a	403744	ignore	1700	n/a	n/a	1
405.4440000000	n/a	405444	PenaltyB1	6604	n/a	n/a	1
413.1110000000	n/a	413111	PunCorrB1	1000	n/a	n/a	1
415.1110000000	n/a	415111	ignore	1700	n/a	n/a	1
416.8110000000	n/a	416811	RewardB1	667	n/a	n/a	0
418.5440000000	n/a	418544	NeuIncorrB1	1000	n/a	n/a	1
420.5440000000	n/a	420544	ignore	1700	n/a	n/a	1
434.7780000000	n/a	434778	RewardB2	683	n/a	n/a	0
436.5280000000	n/a	436528	NeuIncorrB2	1000	n/a	n/a	1
438.5280000000	n/a	438528	ignore	1700	n/a	n/a	1
440.2280000000	n/a	440228	PenaltyB2	2585	n/a	n/a	0
443.8780000000	n/a	443878	PunIncorrB2	1000	n/a	n/a	1
445.8780000000	n/a	445878	STATUS	1700	n/a	n/a	1
447.5780000000	n/a	447578	RewardB2	535	n/a	n/a	0
449.1780000000	n/a	449178	NeuIncorrB2	1000	n/a	n/a	1
451.1780000000	n/a	451178	STATUS	1700	n/a	n/a	1
452.8780000000	n/a	452878	RewardB2	552	n/a	n/a	1
454.4940000000	n/a	454494	NeuCorrB2	1000	n/a	n/a	1
456.4940000000	n/a	456494	STATUS	1700	n/a	n/a	1
458.1940000000	n/a	458194	PenaltyB2	2860	n/a	n/a	1
462.1280000000	n/a	462128	NeuCorrB2	1000	n/a	n/a	1
464.1280000000	n/a	464128	STATUS	1700	n/a	n/a	1
465.8280000000	n/a	465828	RewardB2	879	n/a	n/a	1
467.7780000000	n/a	467778	RewardCorrB2	1000	n/a	n/a	1
469.7780000000	n/a	469778	ignore	1700	n/a	n/a	1
471.4780000000	n/a	471478	PenaltyB2	833	n/a	n/a	1
473.3780000000	n/a	473378	NeuCorrB2	1000	n/a	n/a	1
475.3780000000	n/a	475378	ignore	1700	n/a	n/a	1
477.0780000000	n/a	477078	RewardB2	568	n/a	n/a	1
478.7110000000	n/a	478711	RewardCorrB2	1000	n/a	n/a	1
480.7110000000	n/a	480711	ignore	1700	n/a	n/a	1
482.4110000000	n/a	482411	PenaltyB2	1479	n/a	n/a	0
484.9610000000	n/a	484961	PunIncorrB2	1000	n/a	n/a	1
486.9610000000	n/a	486961	ignore	1700	n/a	n/a	1
488.6610000000	n/a	488661	RewardB2	524	n/a	n/a	0
490.2610000000	n/a	490261	NeuIncorrB2	1000	n/a	n/a	1
492.2610000000	n/a	492261	ignore	1700	n/a	n/a	1
493.9610000000	n/a	493961	PenaltyB2	976	n/a	n/a	1
496.0110000000	n/a	496011	PunCorrB2	1000	n/a	n/a	1
498.0110000000	n/a	498011	STATUS	1700	n/a	n/a	1
499.7110000000	n/a	499711	RewardB2	539	n/a	n/a	0
501.3280000000	n/a	501328	NeuIncorrB2	1000	n/a	n/a	1
503.3280000000	n/a	503328	STATUS	1700	n/a	n/a	1
505.0280000000	n/a	505028	PenaltyB2	3731	n/a	n/a	0
509.8270000000	n/a	509827	PunIncorrB2	1000	n/a	n/a	1
511.8280000000	n/a	511828	STATUS	1700	n/a	n/a	1
513.5270000000	n/a	513527	RewardB2	630	n/a	n/a	1
515.2270000000	n/a	515227	RewardCorrB2	1000	n/a	n/a	1
517.2280000000	n/a	517228	STATUS	1700	n/a	n/a	1
518.9270000000	n/a	518927	PenaltyB2	811	n/a	n/a	1
520.8110000000	n/a	520811	NeuCorrB2	1000	n/a	n/a	1
522.8110000000	n/a	522811	STATUS	1700	n/a	n/a	1
524.5110000000	n/a	524511	RewardB2	526	n/a	n/a	1
526.1110000000	n/a	526111	NeuCorrB2	1000	n/a	n/a	1
528.1110000000	n/a	528111	STATUS	1700	n/a	n/a	1
529.8110000000	n/a	529811	PenaltyB2	1006	n/a	n/a	1
531.8940000000	n/a	531894	NeuCorrB2	1000	n/a	n/a	1
533.8940000000	n/a	533894	STATUS	1700	n/a	n/a	1
535.5940000000	n/a	535594	RewardB2	526	n/a	n/a	1
537.1940000000	n/a	537194	RewardCorrB2	1000	n/a	n/a	1
539.1940000000	n/a	539194	ignore	1700	n/a	n/a	1
540.8940000000	n/a	540894	PenaltyB2	573	n/a	n/a	0
542.5440000000	n/a	542544	PunIncorrB2	1000	n/a	n/a	1
544.5440000000	n/a	544544	STATUS	1700	n/a	n/a	1
546.2440000000	n/a	546244	RewardB2	602	n/a	n/a	0
547.9110000000	n/a	547911	NeuIncorrB2	1000	n/a	n/a	1
549.9110000000	n/a	549911	STATUS	1700	n/a	n/a	1
551.6110000000	n/a	551611	PenaltyB2	4657	n/a	n/a	1
557.3440000000	n/a	557344	PunCorrB2	1000	n/a	n/a	1
559.3440000000	n/a	559344	STATUS	1700	n/a	n/a	1
561.0440000000	n/a	561044	PenaltyB2	581	n/a	n/a	1
562.6940000000	n/a	562694	NeuCorrB2	1000	n/a	n/a	1
564.6940000000	n/a	564694	STATUS	1700	n/a	n/a	1
566.3940000000	n/a	566394	PenaltyB2	1021	n/a	n/a	0
568.4770000000	n/a	568477	PunIncorrB2	1000	n/a	n/a	1
570.4770000000	n/a	570477	STATUS	1700	n/a	n/a	1
572.1770000000	n/a	572177	RewardB2	554	n/a	n/a	1
573.7940000000	n/a	573794	RewardCorrB2	1000	n/a	n/a	1
575.7940000000	n/a	575794	STATUS	1700	n/a	n/a	1
577.4940000000	n/a	577494	RewardB2	780	n/a	n/a	0
579.3440000000	n/a	579344	RewIncorrB2	1000	n/a	n/a	1
581.3440000000	n/a	581344	STATUS	1700	n/a	n/a	1
583.0440000000	n/a	583044	RewardB2	576	n/a	n/a	0
584.6940000000	n/a	584694	NeuIncorrB2	1000	n/a	n/a	1
586.6940000000	n/a	586694	STATUS	1700	n/a	n/a	1
588.3940000000	n/a	588394	PenaltyB2	1107	n/a	n/a	1
590.5770000000	n/a	590577	NeuCorrB2	1000	n/a	n/a	1
592.5770000000	n/a	592577	STATUS	1700	n/a	n/a	1
594.2770000000	n/a	594277	PenaltyB2	3874	n/a	n/a	0
599.2270000000	n/a	599227	PunIncorrB2	1000	n/a	n/a	1
601.2270000000	n/a	601227	STATUS	1700	n/a	n/a	1
602.9270000000	n/a	602927	RewardB2	599	n/a	n/a	1
604.5940000000	n/a	604594	RewardCorrB2	1000	n/a	n/a	1
606.5940000000	n/a	606594	STATUS	1700	n/a	n/a	1
608.2940000000	n/a	608294	PenaltyB2	675	n/a	n/a	1
610.0440000000	n/a	610044	NeuCorrB2	1000	n/a	n/a	1
612.0440000000	n/a	612044	STATUS	1700	n/a	n/a	1
613.7440000000	n/a	613744	RewardB2	2111	n/a	n/a	0
616.9270000000	n/a	616927	RewIncorrB2	1000	n/a	n/a	1
618.9270000000	n/a	618927	ignore	1700	n/a	n/a	1
620.6270000000	n/a	620627	PenaltyB2	688	n/a	n/a	0
622.3940000000	n/a	622394	PunIncorrB2	1000	n/a	n/a	1
624.3940000000	n/a	624394	STATUS	1700	n/a	n/a	1
626.0940000000	n/a	626094	RewardB2	502	n/a	n/a	1
627.6610000000	n/a	627661	RewardCorrB2	1000	n/a	n/a	1
629.6610000000	n/a	629661	ignore	1700	n/a	n/a	1
631.3610000000	n/a	631361	PenaltyB2	582	n/a	n/a	1
633.0110000000	n/a	633011	NeuCorrB2	1000	n/a	n/a	1
635.0110000000	n/a	635011	ignore	1700	n/a	n/a	1
636.7110000000	n/a	636711	PenaltyB2	533	n/a	n/a	1
638.3110000000	n/a	638311	PunCorrB2	1000	n/a	n/a	1
640.3110000000	n/a	640311	STATUS	1700	n/a	n/a	1
642.0110000000	n/a	642011	RewardB2	476	n/a	n/a	0
643.5610000000	n/a	643561	NeuIncorrB2	1000	n/a	n/a	1
645.5610000000	n/a	645561	STATUS	1700	n/a	n/a	1
647.2610000000	n/a	647261	PenaltyB2	563	n/a	n/a	1
648.8940000000	n/a	648894	NeuCorrB2	1000	n/a	n/a	1
650.8940000000	n/a	650894	STATUS	1700	n/a	n/a	1
652.5940000000	n/a	652594	RewardB2	457	n/a	n/a	1
654.1270000000	n/a	654127	RewardCorrB2	1000	n/a	n/a	1
656.1270000000	n/a	656127	ignore	1700	n/a	n/a	1
657.8270000000	n/a	657827	PenaltyB2	451	n/a	n/a	1
659.3440000000	n/a	659344	PunCorrB2	1000	n/a	n/a	1
661.3440000000	n/a	661344	STATUS	1700	n/a	n/a	1
663.0440000000	n/a	663044	RewardB2	431	n/a	n/a	0
664.5440000000	n/a	664544	NeuIncorrB2	1000	n/a	n/a	1
666.5440000000	n/a	666544	STATUS	1700	n/a	n/a	1
671.6440000000	n/a	671644	RewardB3	572	n/a	n/a	0
673.2940000000	n/a	673294	NeuIncorrB3	1000	n/a	n/a	1
675.2940000000	n/a	675294	STATUS	1700	n/a	n/a	1
676.9940000000	n/a	676994	PenaltyB3	647	n/a	n/a	1
678.7110000000	n/a	678711	PunCorrB3	1000	n/a	n/a	1
680.7110000000	n/a	680711	STATUS	1700	n/a	n/a	1
682.4110000000	n/a	682411	RewardB3	577	n/a	n/a	1
684.0610000000	n/a	684061	RewardCorrB3	1000	n/a	n/a	1
686.0610000000	n/a	686061	STATUS	1700	n/a	n/a	1
687.7610000000	n/a	687761	PenaltyB3	906	n/a	n/a	0
689.7440000000	n/a	689744	PunIncorrB3	1000	n/a	n/a	1
691.7440000000	n/a	691744	STATUS	1700	n/a	n/a	1
693.4440000000	n/a	693444	PenaltyB3	925	n/a	n/a	1
695.4440000000	n/a	695444	NeuCorrB3	1000	n/a	n/a	1
697.4440000000	n/a	697444	STATUS	1700	n/a	n/a	1
699.1440000000	n/a	699144	RewardB3	2508	n/a	n/a	1
702.7270000000	n/a	702727	RewardCorrB3	1000	n/a	n/a	1
704.7270000000	n/a	704727	STATUS	1700	n/a	n/a	1
706.4270000000	n/a	706427	PenaltyB3	590	n/a	n/a	1
708.0940000000	n/a	708094	PunCorrB3	1000	n/a	n/a	1
710.0940000000	n/a	710094	STATUS	1700	n/a	n/a	1
711.7940000000	n/a	711794	RewardB3	504	n/a	n/a	0
713.3600000000	n/a	713360	NeuIncorrB3	1000	n/a	n/a	1
715.3610000000	n/a	715361	STATUS	1700	n/a	n/a	1
717.0600000000	n/a	717060	PenaltyB3	3025	n/a	n/a	1
721.1600000000	n/a	721160	NeuCorrB3	1000	n/a	n/a	1
723.1610000000	n/a	723161	STATUS	1700	n/a	n/a	1
724.8600000000	n/a	724860	RewardB3	527	n/a	n/a	1
726.4600000000	n/a	726460	NeuCorrB3	1000	n/a	n/a	1
728.4610000000	n/a	728461	STATUS	1700	n/a	n/a	1
730.1600000000	n/a	730160	PenaltyB3	1469	n/a	n/a	0
732.6940000000	n/a	732694	PunIncorrB3	1000	n/a	n/a	1
734.6940000000	n/a	734694	STATUS	1700	n/a	n/a	1
736.3940000000	n/a	736394	RewardB3	382	n/a	n/a	1
737.8440000000	n/a	737844	RewardCorrB3	1000	n/a	n/a	1
739.8440000000	n/a	739844	STATUS	1700	n/a	n/a	1
741.5440000000	n/a	741544	RewardB3	671	n/a	n/a	0
743.2770000000	n/a	743277	NeuIncorrB3	1000	n/a	n/a	1
745.2770000000	n/a	745277	STATUS	1700	n/a	n/a	1
746.9770000000	n/a	746977	RewardB3	369	n/a	n/a	1
748.4100000000	n/a	748410	RewardCorrB3	1000	n/a	n/a	1
750.4100000000	n/a	750410	STATUS	1700	n/a	n/a	1
752.1100000000	n/a	752110	PenaltyB3	831	n/a	n/a	1
754.0100000000	n/a	754010	PunCorrB3	1000	n/a	n/a	1
756.0100000000	n/a	756010	STATUS	1700	n/a	n/a	1
757.7100000000	n/a	757710	RewardB3	584	n/a	n/a	1
759.3600000000	n/a	759360	RewardCorrB3	1000	n/a	n/a	1
761.3600000000	n/a	761360	STATUS	1700	n/a	n/a	1
763.0600000000	n/a	763060	PenaltyB3	2012	n/a	n/a	1
766.1440000000	n/a	766144	NeuCorrB3	1000	n/a	n/a	1
768.1440000000	n/a	768144	STATUS	1700	n/a	n/a	1
769.8440000000	n/a	769844	RewardB3	542	n/a	n/a	0
771.4600000000	n/a	771460	NeuIncorrB3	1000	n/a	n/a	1
773.4600000000	n/a	773460	STATUS	1700	n/a	n/a	1
775.1600000000	n/a	775160	RewardB3	456	n/a	n/a	1
776.6940000000	n/a	776694	RewardCorrB3	1000	n/a	n/a	1
778.6940000000	n/a	778694	ignore	1700	n/a	n/a	1
780.3940000000	n/a	780394	RewardB3	439	n/a	n/a	1
781.9100000000	n/a	781910	NeuCorrB3	1000	n/a	n/a	1
783.9100000000	n/a	783910	ignore	1700	n/a	n/a	1
785.6100000000	n/a	785610	RewardB3	1983	n/a	n/a	0
788.6600000000	n/a	788660	NeuIncorrB3	1000	n/a	n/a	1
790.6600000000	n/a	790660	ignore	1700	n/a	n/a	1
792.3600000000	n/a	792360	RewardB3	330	n/a	n/a	0
793.7600000000	n/a	793760	NeuIncorrB3	1000	n/a	n/a	1
795.7600000000	n/a	795760	ignore	1700	n/a	n/a	1
797.4600000000	n/a	797460	PenaltyB3	210	n/a	n/a	0
798.7440000000	n/a	798744	PunIncorrB3	1000	n/a	n/a	1
800.7440000000	n/a	800744	STATUS	1700	n/a	n/a	1
802.4440000000	n/a	802444	RewardB3	517	n/a	n/a	0
804.0270000000	n/a	804027	RewIncorrB3	1000	n/a	n/a	1
806.0270000000	n/a	806027	ignore	1700	n/a	n/a	1
807.7270000000	n/a	807727	PenaltyB3	938	n/a	n/a	1
809.7440000000	n/a	809744	NeuCorrB3	1000	n/a	n/a	1
811.7440000000	n/a	811744	ignore	1700	n/a	n/a	1
813.4440000000	n/a	813444	PenaltyB3	845	n/a	n/a	1
815.3600000000	n/a	815360	NeuCorrB3	1000	n/a	n/a	1
817.3600000000	n/a	817360	ignore	1700	n/a	n/a	1
819.0600000000	n/a	819060	RewardB3	484	n/a	n/a	0
820.6100000000	n/a	820610	NeuIncorrB3	1000	n/a	n/a	1
822.6100000000	n/a	822610	ignore	1700	n/a	n/a	1
824.3100000000	n/a	824310	PenaltyB3	446	n/a	n/a	1
825.8270000000	n/a	825827	NeuCorrB3	1000	n/a	n/a	1
827.8270000000	n/a	827827	ignore	1700	n/a	n/a	1
829.5270000000	n/a	829527	RewardB3	585	n/a	n/a	0
831.1770000000	n/a	831177	RewIncorrB3	1000	n/a	n/a	1
833.1770000000	n/a	833177	ignore	1700	n/a	n/a	1
834.8770000000	n/a	834877	PenaltyB3	1749	n/a	n/a	0
837.6940000000	n/a	837694	PunIncorrB3	1000	n/a	n/a	1
839.6940000000	n/a	839694	ignore	1700	n/a	n/a	1
841.3940000000	n/a	841394	RewardB3	601	n/a	n/a	1
843.0600000000	n/a	843060	RewardCorrB3	1000	n/a	n/a	1
845.0600000000	n/a	845060	ignore	1700	n/a	n/a	1
846.7600000000	n/a	846760	PenaltyB3	637	n/a	n/a	1
848.4600000000	n/a	848460	PunCorrB3	1000	n/a	n/a	1
850.4600000000	n/a	850460	ignore	1700	n/a	n/a	1
852.1600000000	n/a	852160	PenaltyB3	834	n/a	n/a	1
854.0600000000	n/a	854060	NeuCorrB3	1000	n/a	n/a	1
856.0600000000	n/a	856060	ignore	1700	n/a	n/a	1
857.7600000000	n/a	857760	PenaltyB3	681	n/a	n/a	1
859.5100000000	n/a	859510	NeuCorrB3	1000	n/a	n/a	1
861.5100000000	n/a	861510	ignore	1700	n/a	n/a	1
863.2100000000	n/a	863210	PenaltyB3	720	n/a	n/a	1
864.9940000000	n/a	864994	NeuCorrB3	1000	n/a	n/a	1
866.9940000000	n/a	866994	ignore	1700	n/a	n/a	1
868.6940000000	n/a	868694	RewardB3	589	n/a	n/a	1
870.3600000000	n/a	870360	RewardCorrB3	1000	n/a	n/a	1
872.3600000000	n/a	872360	ignore	1700	n/a	n/a	1
874.0600000000	n/a	874060	RewardB3	512	n/a	n/a	0
875.6440000000	n/a	875644	NeuIncorrB3	1000	n/a	n/a	1
877.6440000000	n/a	877644	ignore	1700	n/a	n/a	1
879.3440000000	n/a	879344	PenaltyB3	1040	n/a	n/a	1
881.4600000000	n/a	881460	NeuCorrB3	1000	n/a	n/a	1
883.4600000000	n/a	883460	ignore	1700	n/a	n/a	1
885.1600000000	n/a	885160	PenaltyB3	341	n/a	n/a	1
886.5770000000	n/a	886577	NeuCorrB3	1000	n/a	n/a	1
888.5770000000	n/a	888577	ignore	1700	n/a	n/a	1
890.2770000000	n/a	890277	PenaltyB3	404	n/a	n/a	1
891.7440000000	n/a	891744	NeuCorrB3	1000	n/a	n/a	1
893.7440000000	n/a	893744	ignore	1700	n/a	n/a	1
899.4100000000	n/a	899410	RewardB4	663	n/a	n/a	0
901.1440000000	n/a	901144	NeuIncorrB4	1000	n/a	n/a	1
903.1440000000	n/a	903144	ignore	1700	n/a	n/a	1
904.8440000000	n/a	904844	PenaltyB4	605	n/a	n/a	1
906.5100000000	n/a	906510	PunCorrB4	1000	n/a	n/a	1
908.5100000000	n/a	908510	ignore	1700	n/a	n/a	1
910.2100000000	n/a	910210	RewardB4	603	n/a	n/a	1
911.8770000000	n/a	911877	RewardCorrB4	1000	n/a	n/a	1
913.8770000000	n/a	913877	ignore	1700	n/a	n/a	1
915.5770000000	n/a	915577	PenaltyB4	457	n/a	n/a	0
917.1100000000	n/a	917110	PunIncorrB4	1000	n/a	n/a	1
919.1100000000	n/a	919110	ignore	1700	n/a	n/a	1
920.8100000000	n/a	920810	RewardB4	560	n/a	n/a	0
922.4430000000	n/a	922443	NeuIncorrB4	1000	n/a	n/a	1
924.4440000000	n/a	924444	ignore	1700	n/a	n/a	1
926.1430000000	n/a	926143	PenaltyB4	1325	n/a	n/a	1
928.5430000000	n/a	928543	PunCorrB4	1000	n/a	n/a	1
930.5440000000	n/a	930544	STATUS	1700	n/a	n/a	1
932.2430000000	n/a	932243	PenaltyB4	661	n/a	n/a	1
933.9770000000	n/a	933977	NeuCorrB4	1000	n/a	n/a	1
935.9770000000	n/a	935977	STATUS	1700	n/a	n/a	1
937.6770000000	n/a	937677	RewardB4	547	n/a	n/a	1
939.2930000000	n/a	939293	RewardCorrB4	1000	n/a	n/a	1
941.2940000000	n/a	941294	ignore	1700	n/a	n/a	1
942.9930000000	n/a	942993	PenaltyB4	4001	n/a	n/a	0
948.0600000000	n/a	948060	PunIncorrB4	1000	n/a	n/a	1
950.0600000000	n/a	950060	STATUS	1700	n/a	n/a	1
951.7600000000	n/a	951760	RewardB4	383	n/a	n/a	0
953.2100000000	n/a	953210	RewIncorrB4	1000	n/a	n/a	1
955.2100000000	n/a	955210	ignore	1700	n/a	n/a	1
956.9100000000	n/a	956910	PenaltyB4	259	n/a	n/a	0
958.2430000000	n/a	958243	PunIncorrB4	1000	n/a	n/a	1
960.2430000000	n/a	960243	STATUS	1700	n/a	n/a	1
961.9430000000	n/a	961943	RewardB4	377	n/a	n/a	0
963.3930000000	n/a	963393	NeuIncorrB4	1000	n/a	n/a	1
965.3930000000	n/a	965393	STATUS	1700	n/a	n/a	1
967.0930000000	n/a	967093	PenaltyB4	616	n/a	n/a	1
968.7770000000	n/a	968777	NeuCorrB4	1000	n/a	n/a	1
970.7770000000	n/a	970777	STATUS	1700	n/a	n/a	1
972.4770000000	n/a	972477	PenaltyB4	1284	n/a	n/a	0
974.8270000000	n/a	974827	PunIncorrB4	1000	n/a	n/a	1
976.8270000000	n/a	976827	STATUS	1700	n/a	n/a	1
978.5270000000	n/a	978527	RewardB4	468	n/a	n/a	0
980.0600000000	n/a	980060	NeuIncorrB4	1000	n/a	n/a	1
982.0600000000	n/a	982060	STATUS	1700	n/a	n/a	1
983.7600000000	n/a	983760	RewardB4	471	n/a	n/a	0
985.2930000000	n/a	985293	RewIncorrB4	1000	n/a	n/a	1
987.2930000000	n/a	987293	STATUS	1700	n/a	n/a	1
988.9930000000	n/a	988993	RewardB4	10706	n/a	n/a	1
1000.7770000000	n/a	1000777	RewardCorrB4	1000	n/a	n/a	1
1002.7770000000	n/a	1002777	ignore	1700	n/a	n/a	1
1004.4770000000	n/a	1004477	PenaltyB4	566	n/a	n/a	1
1006.1100000000	n/a	1006110	NeuCorrB4	1000	n/a	n/a	1
1008.1100000000	n/a	1008110	ignore	1700	n/a	n/a	1
1009.8100000000	n/a	1009810	PenaltyB4	944	n/a	n/a	1
1011.8270000000	n/a	1011827	NeuCorrB4	1000	n/a	n/a	1
1013.8270000000	n/a	1013827	ignore	1700	n/a	n/a	1
1015.5270000000	n/a	1015527	PenaltyB4	467	n/a	n/a	1
1017.0600000000	n/a	1017060	PunCorrB4	1000	n/a	n/a	1
1019.0600000000	n/a	1019060	STATUS	1700	n/a	n/a	1
1020.7600000000	n/a	1020760	RewardB4	519	n/a	n/a	0
1022.3430000000	n/a	1022343	NeuIncorrB4	1000	n/a	n/a	1
1024.3430000000	n/a	1024343	STATUS	1700	n/a	n/a	1
1026.0430000000	n/a	1026043	PenaltyB4	474	n/a	n/a	1
1027.5930000000	n/a	1027593	NeuCorrB4	1000	n/a	n/a	1
1029.5930000000	n/a	1029593	STATUS	1700	n/a	n/a	1
1031.2930000000	n/a	1031293	RewardB4	618	n/a	n/a	1
1032.9770000000	n/a	1032977	RewardCorrB4	1000	n/a	n/a	1
1034.9770000000	n/a	1034977	ignore	1700	n/a	n/a	1
1036.6770000000	n/a	1036677	PenaltyB4	3038	n/a	n/a	0
1040.7930000000	n/a	1040793	PunIncorrB4	1000	n/a	n/a	1
1042.7930000000	n/a	1042793	STATUS	1700	n/a	n/a	1
1044.4930000000	n/a	1044493	RewardB4	472	n/a	n/a	1
1046.0430000000	n/a	1046043	NeuCorrB4	1000	n/a	n/a	1
1048.0430000000	n/a	1048043	STATUS	1700	n/a	n/a	1
1049.7430000000	n/a	1049743	PenaltyB4	691	n/a	n/a	0
1051.5100000000	n/a	1051510	PunIncorrB4	1000	n/a	n/a	1
1053.5100000000	n/a	1053510	STATUS	1700	n/a	n/a	1
1055.2100000000	n/a	1055210	RewardB4	646	n/a	n/a	1
1056.9270000000	n/a	1056927	RewardCorrB4	1000	n/a	n/a	1
1058.9270000000	n/a	1058927	STATUS	1700	n/a	n/a	1
1060.6270000000	n/a	1060627	PenaltyB4	684	n/a	n/a	1
1062.3770000000	n/a	1062377	NeuCorrB4	1000	n/a	n/a	1
1064.3770000000	n/a	1064377	STATUS	1700	n/a	n/a	1
1066.0770000000	n/a	1066077	RewardB4	1089	n/a	n/a	0
1068.2430000000	n/a	1068243	NeuIncorrB4	1000	n/a	n/a	1
1070.2430000000	n/a	1070243	STATUS	1700	n/a	n/a	1
1071.9430000000	n/a	1071943	PenaltyB4	700	n/a	n/a	1
1073.7100000000	n/a	1073710	PunCorrB4	1000	n/a	n/a	1
1075.7100000000	n/a	1075710	STATUS	1700	n/a	n/a	1
1077.4100000000	n/a	1077410	RewardB4	662	n/a	n/a	0
1079.1430000000	n/a	1079143	NeuIncorrB4	1000	n/a	n/a	1
1081.1430000000	n/a	1081143	STATUS	1700	n/a	n/a	1
1082.8430000000	n/a	1082843	PenaltyB4	1655	n/a	n/a	1
1085.5770000000	n/a	1085577	NeuCorrB4	1000	n/a	n/a	1
1087.5770000000	n/a	1087577	STATUS	1700	n/a	n/a	1
1089.2770000000	n/a	1089277	RewardB4	775	n/a	n/a	1
1091.1270000000	n/a	1091127	RewardCorrB4	1000	n/a	n/a	1
1093.1270000000	n/a	1093127	STATUS	1700	n/a	n/a	1
1094.8270000000	n/a	1094827	PenaltyB4	285	n/a	n/a	1
1096.1770000000	n/a	1096177	NeuCorrB4	1000	n/a	n/a	1
1098.1770000000	n/a	1098177	STATUS	1700	n/a	n/a	1
1099.8770000000	n/a	1099877	RewardB4	948	n/a	n/a	1
1101.8930000000	n/a	1101893	RewardCorrB4	1000	n/a	n/a	1
1103.8930000000	n/a	1103893	ignore	1700	n/a	n/a	1
1105.5930000000	n/a	1105593	PenaltyB4	719	n/a	n/a	0
1107.3770000000	n/a	1107377	PunIncorrB4	1000	n/a	n/a	1
1109.3770000000	n/a	1109377	STATUS	1700	n/a	n/a	1
1111.0770000000	n/a	1111077	RewardB4	455	n/a	n/a	1
1112.5930000000	n/a	1112593	NeuCorrB4	1000	n/a	n/a	1
1114.5930000000	n/a	1114593	STATUS	1700	n/a	n/a	1
1116.2930000000	n/a	1116293	RewardB4	451	n/a	n/a	0
1117.8100000000	n/a	1117810	NeuIncorrB4	1000	n/a	n/a	1
1119.8100000000	n/a	1119810	STATUS	1700	n/a	n/a	1
1121.5100000000	n/a	1121510	PenaltyB4	571	n/a	n/a	1
1123.1430000000	n/a	1123143	NeuCorrB4	1000	n/a	n/a	1
1125.1430000000	n/a	1125143	STATUS	1700	n/a	n/a	1
1126.8430000000	n/a	1126843	RewardB4	473	n/a	n/a	0
1128.3930000000	n/a	1128393	NeuIncorrB4	1000	n/a	n/a	1
1130.3930000000	n/a	1130393	STATUS	1700	n/a	n/a	1
1138.1770000000	n/a	1138177	STATUS	1700	n/a	n/a	1
