onset	duration	sample	trial_type	response_time	stim_file	value	correct
3.3010000000	n/a	3301	FrequentFixedSOA	234	n/a	n/a	0
4.9340000000	n/a	4934	FrequentFixedSOA	1633	n/a	n/a	1
6.5670000000	n/a	6567	FrequentFixedSOA	1633	n/a	n/a	1
8.2010000000	n/a	8201	FrequentFixedSOA	1633	n/a	n/a	1
9.8340000000	n/a	9834	FrequentFixedSOA	1633	n/a	n/a	1
11.4670000000	n/a	11467	FrequentFixedSOA	1633	n/a	n/a	1
13.1010000000	n/a	13101	FrequentFixedSOA	1633	n/a	n/a	1
14.7340000000	n/a	14734	FrequentFixedSOA	1633	n/a	n/a	1
16.3670000000	n/a	16367	FrequentFixedSOA	1633	n/a	n/a	1
18.0010000000	n/a	18001	FrequentFixedSOA	1633	n/a	n/a	1
19.6340000000	n/a	19634	NovelFixedSOA	368	n/a	n/a	0
21.2670000000	n/a	21267	FrequentFixedSOA	1633	n/a	n/a	1
22.9010000000	n/a	22901	GoFixedSOA	1633	n/a	n/a	0
24.5340000000	n/a	24534	FrequentFixedSOA	1633	n/a	n/a	1
26.1670000000	n/a	26167	FrequentFixedSOA	1633	n/a	n/a	1
27.8010000000	n/a	27801	FrequentFixedSOA	1633	n/a	n/a	1
29.4340000000	n/a	29434	GoFixedSOA	512	n/a	n/a	1
31.0670000000	n/a	31067	FrequentFixedSOA	1633	n/a	n/a	1
32.7010000000	n/a	32701	FrequentFixedSOA	1633	n/a	n/a	1
34.3340000000	n/a	34334	FrequentFixedSOA	1633	n/a	n/a	1
35.9670000000	n/a	35967	NovelFixedSOA	1633	n/a	n/a	1
37.6010000000	n/a	37601	FrequentFixedSOA	1633	n/a	n/a	1
39.2340000000	n/a	39234	FrequentFixedSOA	1633	n/a	n/a	1
40.8670000000	n/a	40867	FrequentFixedSOA	1633	n/a	n/a	1
42.5010000000	n/a	42501	GoFixedSOA	372	n/a	n/a	1
44.1340000000	n/a	44134	FrequentFixedSOA	1633	n/a	n/a	1
45.7670000000	n/a	45767	NovelFixedSOA	1633	n/a	n/a	1
47.4010000000	n/a	47401	FrequentFixedSOA	1633	n/a	n/a	1
49.0340000000	n/a	49034	FrequentFixedSOA	1633	n/a	n/a	1
50.6670000000	n/a	50667	FrequentFixedSOA	1633	n/a	n/a	1
52.3010000000	n/a	52301	GoFixedSOA	348	n/a	n/a	1
53.9340000000	n/a	53934	FrequentFixedSOA	1633	n/a	n/a	1
55.5670000000	n/a	55567	GoFixedSOA	428	n/a	n/a	1
57.2010000000	n/a	57201	FrequentFixedSOA	1633	n/a	n/a	1
58.8340000000	n/a	58834	FrequentFixedSOA	1633	n/a	n/a	1
60.4670000000	n/a	60467	GoFixedSOA	281	n/a	n/a	1
62.1010000000	n/a	62101	FrequentFixedSOA	1633	n/a	n/a	1
63.7340000000	n/a	63734	FrequentFixedSOA	1633	n/a	n/a	1
65.3670000000	n/a	65367	FrequentFixedSOA	1633	n/a	n/a	1
67.0010000000	n/a	67001	FrequentFixedSOA	1633	n/a	n/a	1
68.6340000000	n/a	68634	NovelFixedSOA	1633	n/a	n/a	1
70.2670000000	n/a	70267	FrequentFixedSOA	1633	n/a	n/a	1
71.9010000000	n/a	71901	NovelFixedSOA	1633	n/a	n/a	1
73.5340000000	n/a	73534	FrequentFixedSOA	1633	n/a	n/a	1
75.1670000000	n/a	75167	FrequentFixedSOA	1633	n/a	n/a	1
76.8010000000	n/a	76801	GoFixedSOA	377	n/a	n/a	1
78.4340000000	n/a	78434	FrequentFixedSOA	1633	n/a	n/a	1
80.0670000000	n/a	80067	FrequentFixedSOA	1633	n/a	n/a	1
81.7010000000	n/a	81701	FrequentFixedSOA	1633	n/a	n/a	1
83.3340000000	n/a	83334	FrequentFixedSOA	1633	n/a	n/a	1
84.9670000000	n/a	84967	NovelFixedSOA	1633	n/a	n/a	1
86.6010000000	n/a	86601	FrequentFixedSOA	1633	n/a	n/a	1
88.2340000000	n/a	88234	FrequentFixedSOA	1633	n/a	n/a	1
89.8670000000	n/a	89867	FrequentFixedSOA	1633	n/a	n/a	1
91.5010000000	n/a	91501	FrequentFixedSOA	1633	n/a	n/a	1
93.1340000000	n/a	93134	GoFixedSOA	815	n/a	n/a	1
94.7670000000	n/a	94767	FrequentFixedSOA	1633	n/a	n/a	1
96.4010000000	n/a	96401	FrequentFixedSOA	1633	n/a	n/a	1
98.0340000000	n/a	98034	NovelFixedSOA	1633	n/a	n/a	1
99.6670000000	n/a	99667	FrequentFixedSOA	1633	n/a	n/a	1
101.3010000000	n/a	101301	FrequentFixedSOA	1633	n/a	n/a	1
102.9340000000	n/a	102934	GoFixedSOA	434	n/a	n/a	1
104.5670000000	n/a	104567	FrequentFixedSOA	1633	n/a	n/a	1
106.2010000000	n/a	106201	FrequentFixedSOA	1633	n/a	n/a	1
107.8340000000	n/a	107834	FrequentFixedSOA	1633	n/a	n/a	1
109.4670000000	n/a	109467	FrequentFixedSOA	1633	n/a	n/a	1
111.1010000000	n/a	111101	NovelFixedSOA	1633	n/a	n/a	1
112.7340000000	n/a	112734	FrequentFixedSOA	1633	n/a	n/a	1
114.3670000000	n/a	114367	FrequentFixedSOA	1633	n/a	n/a	1
116.0010000000	n/a	116001	GoFixedSOA	1633	n/a	n/a	0
117.6340000000	n/a	117634	FrequentVariableSOA	1600	n/a	n/a	1
119.2340000000	n/a	119234	FrequentVariableSOA	1550	n/a	n/a	1
120.7840000000	n/a	120784	FrequentVariableSOA	1733	n/a	n/a	1
122.5170000000	n/a	122517	FrequentVariableSOA	1583	n/a	n/a	1
124.1010000000	n/a	124101	FrequentVariableSOA	1516	n/a	n/a	1
125.6170000000	n/a	125617	FrequentVariableSOA	1666	n/a	n/a	1
127.2840000000	n/a	127284	FrequentVariableSOA	1616	n/a	n/a	1
128.9010000000	n/a	128901	FrequentVariableSOA	1700	n/a	n/a	1
130.6010000000	n/a	130601	FrequentVariableSOA	1650	n/a	n/a	1
132.2510000000	n/a	132251	FrequentVariableSOA	1733	n/a	n/a	1
133.9840000000	n/a	133984	NovelVariableSOA	1650	n/a	n/a	1
135.6340000000	n/a	135634	FrequentVariableSOA	1516	n/a	n/a	1
137.1510000000	n/a	137151	GoVariableSOA	353	n/a	n/a	1
138.7670000000	n/a	138767	FrequentVariableSOA	1750	n/a	n/a	1
140.5170000000	n/a	140517	FrequentVariableSOA	1550	n/a	n/a	1
142.0670000000	n/a	142067	FrequentVariableSOA	1750	n/a	n/a	1
143.8170000000	n/a	143817	GoVariableSOA	504	n/a	n/a	1
145.4340000000	n/a	145434	FrequentVariableSOA	1700	n/a	n/a	1
147.1340000000	n/a	147134	FrequentVariableSOA	1516	n/a	n/a	1
148.6510000000	n/a	148651	FrequentVariableSOA	1600	n/a	n/a	1
150.2510000000	n/a	150251	NovelVariableSOA	1783	n/a	n/a	1
152.0340000000	n/a	152034	FrequentVariableSOA	1733	n/a	n/a	1
153.7670000000	n/a	153767	FrequentVariableSOA	1783	n/a	n/a	1
155.5510000000	n/a	155551	FrequentVariableSOA	1683	n/a	n/a	1
157.2340000000	n/a	157234	GoVariableSOA	522	n/a	n/a	1
158.9340000000	n/a	158934	FrequentVariableSOA	1733	n/a	n/a	1
160.6670000000	n/a	160667	NovelVariableSOA	1750	n/a	n/a	1
162.4170000000	n/a	162417	FrequentVariableSOA	1666	n/a	n/a	1
164.0840000000	n/a	164084	FrequentVariableSOA	1650	n/a	n/a	1
165.7340000000	n/a	165734	FrequentVariableSOA	1583	n/a	n/a	1
167.3170000000	n/a	167317	GoVariableSOA	459	n/a	n/a	1
169.0340000000	n/a	169034	FrequentVariableSOA	1550	n/a	n/a	1
170.5840000000	n/a	170584	GoVariableSOA	405	n/a	n/a	1
172.2840000000	n/a	172284	FrequentVariableSOA	1783	n/a	n/a	1
174.0670000000	n/a	174067	FrequentVariableSOA	1700	n/a	n/a	1
175.7670000000	n/a	175767	GoVariableSOA	372	n/a	n/a	1
177.4170000000	n/a	177417	FrequentVariableSOA	1583	n/a	n/a	1
179.0000000000	n/a	179000	FrequentVariableSOA	1800	n/a	n/a	1
180.8000000000	n/a	180800	FrequentVariableSOA	1716	n/a	n/a	1
182.5170000000	n/a	182517	FrequentVariableSOA	1783	n/a	n/a	1
184.3000000000	n/a	184300	NovelVariableSOA	1750	n/a	n/a	1
186.0500000000	n/a	186050	FrequentVariableSOA	1550	n/a	n/a	1
187.6000000000	n/a	187600	NovelVariableSOA	1666	n/a	n/a	1
189.2670000000	n/a	189267	FrequentVariableSOA	1800	n/a	n/a	1
191.0670000000	n/a	191067	FrequentVariableSOA	1733	n/a	n/a	1
192.8000000000	n/a	192800	GoVariableSOA	482	n/a	n/a	1
194.4340000000	n/a	194434	FrequentVariableSOA	1566	n/a	n/a	1
196.0000000000	n/a	196000	FrequentVariableSOA	1750	n/a	n/a	1
197.7500000000	n/a	197750	FrequentVariableSOA	1700	n/a	n/a	1
199.4500000000	n/a	199450	FrequentVariableSOA	1700	n/a	n/a	1
201.1500000000	n/a	201150	NovelVariableSOA	1766	n/a	n/a	1
202.9170000000	n/a	202917	FrequentVariableSOA	1566	n/a	n/a	1
204.4840000000	n/a	204484	FrequentVariableSOA	1566	n/a	n/a	1
206.0500000000	n/a	206050	FrequentVariableSOA	1733	n/a	n/a	1
207.7840000000	n/a	207784	FrequentVariableSOA	1566	n/a	n/a	1
209.3500000000	n/a	209350	GoVariableSOA	444	n/a	n/a	1
211.1500000000	n/a	211150	FrequentVariableSOA	1683	n/a	n/a	1
212.8340000000	n/a	212834	FrequentVariableSOA	1800	n/a	n/a	1
214.6340000000	n/a	214634	NovelVariableSOA	1633	n/a	n/a	1
216.2670000000	n/a	216267	FrequentVariableSOA	1766	n/a	n/a	1
218.0340000000	n/a	218034	FrequentVariableSOA	1650	n/a	n/a	1
219.6840000000	n/a	219684	GoVariableSOA	1533	n/a	n/a	0
221.2170000000	n/a	221217	FrequentVariableSOA	1733	n/a	n/a	1
222.9500000000	n/a	222950	FrequentVariableSOA	1633	n/a	n/a	1
224.5840000000	n/a	224584	FrequentVariableSOA	1516	n/a	n/a	1
226.1000000000	n/a	226100	FrequentVariableSOA	1766	n/a	n/a	1
227.8670000000	n/a	227867	NovelVariableSOA	1550	n/a	n/a	1
229.4170000000	n/a	229417	FrequentVariableSOA	1566	n/a	n/a	1
230.9840000000	n/a	230984	FrequentVariableSOA	1616	n/a	n/a	1
232.6000000000	n/a	232600	GoVariableSOA	620	n/a	n/a	1
234.1840000000	n/a	234184	FrequentFixedSOA	1633	n/a	n/a	1
235.8170000000	n/a	235817	FrequentFixedSOA	1633	n/a	n/a	1
237.4500000000	n/a	237450	FrequentFixedSOA	1633	n/a	n/a	1
239.0840000000	n/a	239084	GoFixedSOA	485	n/a	n/a	1
240.7170000000	n/a	240717	FrequentFixedSOA	1633	n/a	n/a	1
242.3500000000	n/a	242350	FrequentFixedSOA	1633	n/a	n/a	1
243.9840000000	n/a	243984	FrequentFixedSOA	1633	n/a	n/a	1
245.6170000000	n/a	245617	GoFixedSOA	566	n/a	n/a	1
247.2500000000	n/a	247250	FrequentFixedSOA	1633	n/a	n/a	1
248.8840000000	n/a	248884	FrequentFixedSOA	1633	n/a	n/a	1
250.5170000000	n/a	250517	FrequentFixedSOA	1633	n/a	n/a	1
252.1500000000	n/a	252150	NovelFixedSOA	1633	n/a	n/a	1
253.7840000000	n/a	253784	FrequentFixedSOA	1633	n/a	n/a	1
255.4170000000	n/a	255417	NovelFixedSOA	1633	n/a	n/a	1
257.0500000000	n/a	257050	FrequentFixedSOA	1633	n/a	n/a	1
258.6840000000	n/a	258684	FrequentFixedSOA	1633	n/a	n/a	1
260.3170000000	n/a	260317	NovelFixedSOA	1633	n/a	n/a	1
261.9500000000	n/a	261950	FrequentFixedSOA	1633	n/a	n/a	1
263.5840000000	n/a	263584	FrequentFixedSOA	1633	n/a	n/a	1
265.2170000000	n/a	265217	FrequentFixedSOA	1633	n/a	n/a	1
266.8500000000	n/a	266850	FrequentFixedSOA	1633	n/a	n/a	1
268.4840000000	n/a	268484	FrequentFixedSOA	1633	n/a	n/a	1
270.1170000000	n/a	270117	NovelFixedSOA	1633	n/a	n/a	1
271.7500000000	n/a	271750	FrequentFixedSOA	1633	n/a	n/a	1
273.3840000000	n/a	273384	FrequentFixedSOA	1633	n/a	n/a	1
275.0170000000	n/a	275017	FrequentFixedSOA	1633	n/a	n/a	1
276.6500000000	n/a	276650	FrequentFixedSOA	1633	n/a	n/a	1
278.2840000000	n/a	278284	FrequentFixedSOA	1633	n/a	n/a	1
279.9170000000	n/a	279917	GoFixedSOA	1633	n/a	n/a	0
281.5500000000	n/a	281550	FrequentFixedSOA	1633	n/a	n/a	1
283.1840000000	n/a	283184	FrequentFixedSOA	1633	n/a	n/a	1
284.8170000000	n/a	284817	GoFixedSOA	1633	n/a	n/a	0
286.4500000000	n/a	286450	FrequentFixedSOA	1633	n/a	n/a	1
288.0840000000	n/a	288084	NovelFixedSOA	1633	n/a	n/a	1
289.7170000000	n/a	289717	FrequentFixedSOA	1633	n/a	n/a	1
291.3500000000	n/a	291350	GoFixedSOA	338	n/a	n/a	1
292.9840000000	n/a	292984	FrequentFixedSOA	1633	n/a	n/a	1
294.6170000000	n/a	294617	GoFixedSOA	455	n/a	n/a	1
296.2500000000	n/a	296250	FrequentFixedSOA	1633	n/a	n/a	1
297.8840000000	n/a	297884	FrequentFixedSOA	1633	n/a	n/a	1
299.5170000000	n/a	299517	FrequentFixedSOA	1633	n/a	n/a	1
301.1500000000	n/a	301150	FrequentFixedSOA	1633	n/a	n/a	1
302.7840000000	n/a	302784	GoFixedSOA	496	n/a	n/a	1
304.4170000000	n/a	304417	FrequentFixedSOA	1633	n/a	n/a	1
306.0500000000	n/a	306050	FrequentFixedSOA	1633	n/a	n/a	1
307.6840000000	n/a	307684	FrequentFixedSOA	208	n/a	n/a	0
309.3170000000	n/a	309317	NovelFixedSOA	1633	n/a	n/a	1
310.9500000000	n/a	310950	FrequentFixedSOA	1633	n/a	n/a	1
312.5840000000	n/a	312584	FrequentFixedSOA	1633	n/a	n/a	1
314.2170000000	n/a	314217	FrequentFixedSOA	1633	n/a	n/a	1
315.8500000000	n/a	315850	FrequentFixedSOA	1633	n/a	n/a	1
317.4840000000	n/a	317484	NovelFixedSOA	1633	n/a	n/a	1
319.1170000000	n/a	319117	FrequentFixedSOA	1633	n/a	n/a	1
320.7500000000	n/a	320750	FrequentFixedSOA	1633	n/a	n/a	1
322.3840000000	n/a	322384	FrequentFixedSOA	1633	n/a	n/a	1
324.0170000000	n/a	324017	FrequentFixedSOA	1633	n/a	n/a	1
325.6500000000	n/a	325650	NovelFixedSOA	1633	n/a	n/a	1
327.2840000000	n/a	327284	FrequentFixedSOA	1633	n/a	n/a	1
328.9170000000	n/a	328917	FrequentFixedSOA	1633	n/a	n/a	1
330.5500000000	n/a	330550	GoFixedSOA	510	n/a	n/a	1
332.1840000000	n/a	332184	FrequentFixedSOA	1633	n/a	n/a	1
333.8170000000	n/a	333817	FrequentFixedSOA	1633	n/a	n/a	1
335.4500000000	n/a	335450	FrequentFixedSOA	1633	n/a	n/a	1
337.0840000000	n/a	337084	FrequentFixedSOA	1633	n/a	n/a	1
338.7170000000	n/a	338717	NovelFixedSOA	1633	n/a	n/a	1
340.3500000000	n/a	340350	FrequentFixedSOA	1633	n/a	n/a	1
341.9840000000	n/a	341984	FrequentFixedSOA	1633	n/a	n/a	1
343.6170000000	n/a	343617	FrequentFixedSOA	1633	n/a	n/a	1
345.2500000000	n/a	345250	FrequentFixedSOA	1633	n/a	n/a	1
346.8840000000	n/a	346884	FrequentFixedSOA	1633	n/a	n/a	1
348.5170000000	n/a	348517	FrequentVariableSOA	1700	n/a	n/a	1
350.2170000000	n/a	350217	FrequentVariableSOA	1533	n/a	n/a	1
351.7500000000	n/a	351750	FrequentVariableSOA	1633	n/a	n/a	1
353.3840000000	n/a	353384	GoVariableSOA	403	n/a	n/a	1
354.9000000000	n/a	354900	FrequentVariableSOA	1766	n/a	n/a	1
356.6670000000	n/a	356667	FrequentVariableSOA	1700	n/a	n/a	1
358.3670000000	n/a	358367	FrequentVariableSOA	1666	n/a	n/a	1
360.0340000000	n/a	360034	GoVariableSOA	452	n/a	n/a	1
361.7670000000	n/a	361767	FrequentVariableSOA	1533	n/a	n/a	1
363.3000000000	n/a	363300	FrequentVariableSOA	1683	n/a	n/a	1
364.9840000000	n/a	364984	FrequentVariableSOA	1716	n/a	n/a	1
366.7000000000	n/a	366700	NovelVariableSOA	1783	n/a	n/a	1
368.4830000000	n/a	368483	FrequentVariableSOA	1683	n/a	n/a	1
370.1670000000	n/a	370167	NovelVariableSOA	1650	n/a	n/a	1
371.8170000000	n/a	371817	FrequentVariableSOA	1650	n/a	n/a	1
373.4670000000	n/a	373467	FrequentVariableSOA	1683	n/a	n/a	1
375.1500000000	n/a	375150	NovelVariableSOA	1733	n/a	n/a	1
376.8830000000	n/a	376883	FrequentVariableSOA	1650	n/a	n/a	1
378.5330000000	n/a	378533	FrequentVariableSOA	1666	n/a	n/a	1
380.2000000000	n/a	380200	FrequentVariableSOA	1716	n/a	n/a	1
381.9170000000	n/a	381917	FrequentVariableSOA	1716	n/a	n/a	1
383.6330000000	n/a	383633	FrequentVariableSOA	1550	n/a	n/a	1
385.1830000000	n/a	385183	NovelVariableSOA	1750	n/a	n/a	1
386.9330000000	n/a	386933	FrequentVariableSOA	1633	n/a	n/a	1
388.5670000000	n/a	388567	FrequentVariableSOA	1716	n/a	n/a	1
390.2830000000	n/a	390283	FrequentVariableSOA	1616	n/a	n/a	1
391.9000000000	n/a	391900	FrequentVariableSOA	1800	n/a	n/a	1
393.7000000000	n/a	393700	FrequentVariableSOA	1750	n/a	n/a	1
395.4500000000	n/a	395450	GoVariableSOA	1783	n/a	n/a	0
397.2330000000	n/a	397233	FrequentVariableSOA	1633	n/a	n/a	1
398.8670000000	n/a	398867	FrequentVariableSOA	1733	n/a	n/a	1
400.6000000000	n/a	400600	GoVariableSOA	720	n/a	n/a	1
402.3170000000	n/a	402317	FrequentVariableSOA	1633	n/a	n/a	1
403.9500000000	n/a	403950	NovelVariableSOA	1683	n/a	n/a	1
405.6330000000	n/a	405633	FrequentVariableSOA	1516	n/a	n/a	1
407.1500000000	n/a	407150	GoVariableSOA	417	n/a	n/a	1
408.8170000000	n/a	408817	FrequentVariableSOA	1616	n/a	n/a	1
410.4330000000	n/a	410433	GoVariableSOA	408	n/a	n/a	1
411.9670000000	n/a	411967	FrequentVariableSOA	1583	n/a	n/a	1
413.5500000000	n/a	413550	FrequentVariableSOA	1516	n/a	n/a	1
415.0670000000	n/a	415067	FrequentVariableSOA	1566	n/a	n/a	1
416.6330000000	n/a	416633	FrequentVariableSOA	1550	n/a	n/a	1
418.1830000000	n/a	418183	GoVariableSOA	481	n/a	n/a	1
419.9000000000	n/a	419900	FrequentVariableSOA	1533	n/a	n/a	1
421.4330000000	n/a	421433	FrequentVariableSOA	1650	n/a	n/a	1
423.0830000000	n/a	423083	FrequentVariableSOA	1533	n/a	n/a	1
424.6170000000	n/a	424617	NovelVariableSOA	1800	n/a	n/a	1
426.4170000000	n/a	426417	FrequentVariableSOA	1733	n/a	n/a	1
428.1500000000	n/a	428150	FrequentVariableSOA	1616	n/a	n/a	1
429.7670000000	n/a	429767	FrequentVariableSOA	1783	n/a	n/a	1
431.5500000000	n/a	431550	FrequentVariableSOA	1600	n/a	n/a	1
433.1500000000	n/a	433150	NovelVariableSOA	1683	n/a	n/a	1
434.8330000000	n/a	434833	FrequentVariableSOA	1566	n/a	n/a	1
436.4000000000	n/a	436400	FrequentVariableSOA	1750	n/a	n/a	1
438.1500000000	n/a	438150	FrequentVariableSOA	1733	n/a	n/a	1
439.8830000000	n/a	439883	FrequentVariableSOA	1566	n/a	n/a	1
441.4500000000	n/a	441450	NovelVariableSOA	1516	n/a	n/a	1
442.9670000000	n/a	442967	FrequentVariableSOA	1783	n/a	n/a	1
444.7500000000	n/a	444750	FrequentVariableSOA	1600	n/a	n/a	1
446.3500000000	n/a	446350	GoVariableSOA	1583	n/a	n/a	0
447.9330000000	n/a	447933	FrequentVariableSOA	1633	n/a	n/a	1
449.5670000000	n/a	449567	FrequentVariableSOA	1550	n/a	n/a	1
451.1170000000	n/a	451117	FrequentVariableSOA	1683	n/a	n/a	1
452.8000000000	n/a	452800	FrequentVariableSOA	1783	n/a	n/a	1
454.5830000000	n/a	454583	NovelVariableSOA	1666	n/a	n/a	1
456.2500000000	n/a	456250	FrequentVariableSOA	1666	n/a	n/a	1
457.9170000000	n/a	457917	FrequentVariableSOA	1750	n/a	n/a	1
459.6670000000	n/a	459667	FrequentVariableSOA	1666	n/a	n/a	1
461.3330000000	n/a	461333	FrequentVariableSOA	1616	n/a	n/a	1
462.9500000000	n/a	462950	FrequentVariableSOA	1516	n/a	n/a	1
464.4670000000	n/a	464467	GoFixedSOA	1633	n/a	n/a	0
466.1000000000	n/a	466100	FrequentFixedSOA	1633	n/a	n/a	1
467.7330000000	n/a	467733	FrequentFixedSOA	1633	n/a	n/a	1
469.3670000000	n/a	469367	FrequentFixedSOA	1633	n/a	n/a	1
471.0000000000	n/a	471000	FrequentFixedSOA	1633	n/a	n/a	1
472.6330000000	n/a	472633	FrequentFixedSOA	1633	n/a	n/a	1
474.2670000000	n/a	474267	FrequentFixedSOA	1633	n/a	n/a	1
475.9000000000	n/a	475900	NovelFixedSOA	1633	n/a	n/a	1
477.5330000000	n/a	477533	FrequentFixedSOA	1633	n/a	n/a	1
479.1670000000	n/a	479167	FrequentFixedSOA	1633	n/a	n/a	1
480.8000000000	n/a	480800	FrequentFixedSOA	1633	n/a	n/a	1
482.4330000000	n/a	482433	NovelFixedSOA	1633	n/a	n/a	1
484.0670000000	n/a	484067	FrequentFixedSOA	1633	n/a	n/a	1
485.7000000000	n/a	485700	GoFixedSOA	380	n/a	n/a	1
487.3330000000	n/a	487333	FrequentFixedSOA	1633	n/a	n/a	1
488.9670000000	n/a	488967	FrequentFixedSOA	1633	n/a	n/a	1
490.6000000000	n/a	490600	GoFixedSOA	1633	n/a	n/a	0
492.2330000000	n/a	492233	FrequentFixedSOA	1633	n/a	n/a	1
493.8670000000	n/a	493867	NovelFixedSOA	1633	n/a	n/a	1
495.5000000000	n/a	495500	FrequentFixedSOA	1633	n/a	n/a	1
497.1330000000	n/a	497133	FrequentFixedSOA	1633	n/a	n/a	1
498.7670000000	n/a	498767	FrequentFixedSOA	1633	n/a	n/a	1
500.4000000000	n/a	500400	FrequentFixedSOA	1633	n/a	n/a	1
502.0330000000	n/a	502033	FrequentFixedSOA	1633	n/a	n/a	1
503.6670000000	n/a	503667	GoFixedSOA	396	n/a	n/a	1
505.3000000000	n/a	505300	FrequentFixedSOA	1633	n/a	n/a	1
506.9330000000	n/a	506933	FrequentFixedSOA	1633	n/a	n/a	1
508.5670000000	n/a	508567	NovelFixedSOA	1633	n/a	n/a	1
510.2000000000	n/a	510200	FrequentFixedSOA	1633	n/a	n/a	1
511.8330000000	n/a	511833	FrequentFixedSOA	1633	n/a	n/a	1
513.4670000000	n/a	513467	FrequentFixedSOA	1633	n/a	n/a	1
515.1000000000	n/a	515100	FrequentFixedSOA	1633	n/a	n/a	1
516.7330000000	n/a	516733	FrequentFixedSOA	1633	n/a	n/a	1
518.3670000000	n/a	518367	NovelFixedSOA	1633	n/a	n/a	1
520.0000000000	n/a	520000	FrequentFixedSOA	1633	n/a	n/a	1
521.6330000000	n/a	521633	FrequentFixedSOA	1633	n/a	n/a	1
523.2670000000	n/a	523267	FrequentFixedSOA	1633	n/a	n/a	1
524.9000000000	n/a	524900	FrequentFixedSOA	1633	n/a	n/a	1
526.5330000000	n/a	526533	GoFixedSOA	490	n/a	n/a	1
528.1670000000	n/a	528167	FrequentFixedSOA	1633	n/a	n/a	1
529.8000000000	n/a	529800	FrequentFixedSOA	1633	n/a	n/a	1
531.4330000000	n/a	531433	NovelFixedSOA	1633	n/a	n/a	1
533.0670000000	n/a	533067	FrequentFixedSOA	1633	n/a	n/a	1
534.7000000000	n/a	534700	FrequentFixedSOA	1633	n/a	n/a	1
536.3330000000	n/a	536333	NovelFixedSOA	1633	n/a	n/a	1
537.9670000000	n/a	537967	FrequentFixedSOA	1633	n/a	n/a	1
539.6000000000	n/a	539600	FrequentFixedSOA	1633	n/a	n/a	1
541.2330000000	n/a	541233	FrequentFixedSOA	1633	n/a	n/a	1
542.8670000000	n/a	542867	FrequentFixedSOA	1633	n/a	n/a	1
544.5000000000	n/a	544500	FrequentFixedSOA	1633	n/a	n/a	1
546.1330000000	n/a	546133	GoFixedSOA	1633	n/a	n/a	0
547.7670000000	n/a	547767	FrequentFixedSOA	1633	n/a	n/a	1
549.4000000000	n/a	549400	FrequentFixedSOA	1633	n/a	n/a	1
551.0330000000	n/a	551033	FrequentFixedSOA	1633	n/a	n/a	1
552.6670000000	n/a	552667	FrequentFixedSOA	1633	n/a	n/a	1
554.3000000000	n/a	554300	FrequentFixedSOA	1633	n/a	n/a	1
555.9330000000	n/a	555933	NovelFixedSOA	1633	n/a	n/a	1
557.5670000000	n/a	557567	FrequentFixedSOA	1633	n/a	n/a	1
559.2000000000	n/a	559200	GoFixedSOA	688	n/a	n/a	1
560.8330000000	n/a	560833	FrequentFixedSOA	1633	n/a	n/a	1
562.4670000000	n/a	562467	FrequentFixedSOA	1633	n/a	n/a	1
564.1000000000	n/a	564100	FrequentFixedSOA	1633	n/a	n/a	1
565.7330000000	n/a	565733	FrequentFixedSOA	1633	n/a	n/a	1
567.3670000000	n/a	567367	FrequentFixedSOA	1633	n/a	n/a	1
569.0000000000	n/a	569000	FrequentFixedSOA	1633	n/a	n/a	1
570.6330000000	n/a	570633	FrequentFixedSOA	1633	n/a	n/a	1
572.2660000000	n/a	572266	FrequentFixedSOA	1633	n/a	n/a	1
573.9000000000	n/a	573900	NovelFixedSOA	1633	n/a	n/a	1
575.5330000000	n/a	575533	FrequentFixedSOA	1633	n/a	n/a	1
577.1660000000	n/a	577166	FrequentFixedSOA	1633	n/a	n/a	1
578.8000000000	n/a	578800	GoVariableSOA	1666	n/a	n/a	0
580.4660000000	n/a	580466	FrequentVariableSOA	1766	n/a	n/a	1
582.2330000000	n/a	582233	FrequentVariableSOA	1533	n/a	n/a	1
583.7660000000	n/a	583766	FrequentVariableSOA	1550	n/a	n/a	1
585.3160000000	n/a	585316	FrequentVariableSOA	1566	n/a	n/a	1
586.8830000000	n/a	586883	FrequentVariableSOA	1700	n/a	n/a	1
588.5830000000	n/a	588583	FrequentVariableSOA	1533	n/a	n/a	1
590.1160000000	n/a	590116	NovelVariableSOA	1533	n/a	n/a	1
591.6500000000	n/a	591650	FrequentVariableSOA	1766	n/a	n/a	1
593.4160000000	n/a	593416	FrequentVariableSOA	1783	n/a	n/a	1
595.2000000000	n/a	595200	FrequentVariableSOA	1516	n/a	n/a	1
596.7160000000	n/a	596716	NovelVariableSOA	1700	n/a	n/a	1
598.4160000000	n/a	598416	FrequentVariableSOA	1600	n/a	n/a	1
600.0160000000	n/a	600016	GoVariableSOA	494	n/a	n/a	1
601.8000000000	n/a	601800	FrequentVariableSOA	1566	n/a	n/a	1
603.3660000000	n/a	603366	FrequentVariableSOA	1583	n/a	n/a	1
604.9500000000	n/a	604950	GoVariableSOA	1566	n/a	n/a	0
606.5160000000	n/a	606516	FrequentVariableSOA	1716	n/a	n/a	1
608.2330000000	n/a	608233	NovelVariableSOA	1616	n/a	n/a	1
609.8500000000	n/a	609850	FrequentVariableSOA	1600	n/a	n/a	1
611.4500000000	n/a	611450	FrequentVariableSOA	1633	n/a	n/a	1
613.0830000000	n/a	613083	FrequentVariableSOA	1716	n/a	n/a	1
614.8000000000	n/a	614800	FrequentVariableSOA	1733	n/a	n/a	1
616.5330000000	n/a	616533	FrequentVariableSOA	1616	n/a	n/a	1
618.1500000000	n/a	618150	GoVariableSOA	432	n/a	n/a	1
619.6500000000	n/a	619650	FrequentVariableSOA	1750	n/a	n/a	1
621.4000000000	n/a	621400	FrequentVariableSOA	1633	n/a	n/a	1
623.0330000000	n/a	623033	NovelVariableSOA	1650	n/a	n/a	1
624.6830000000	n/a	624683	FrequentVariableSOA	1566	n/a	n/a	1
626.2500000000	n/a	626250	FrequentVariableSOA	1766	n/a	n/a	1
628.0160000000	n/a	628016	FrequentVariableSOA	1516	n/a	n/a	1
629.5330000000	n/a	629533	FrequentVariableSOA	1650	n/a	n/a	1
631.1830000000	n/a	631183	FrequentVariableSOA	1750	n/a	n/a	1
632.9330000000	n/a	632933	NovelVariableSOA	1533	n/a	n/a	1
634.4660000000	n/a	634466	FrequentVariableSOA	1650	n/a	n/a	1
636.1160000000	n/a	636116	FrequentVariableSOA	1683	n/a	n/a	1
637.8000000000	n/a	637800	FrequentVariableSOA	1566	n/a	n/a	1
639.3660000000	n/a	639366	FrequentVariableSOA	1783	n/a	n/a	1
641.1500000000	n/a	641150	GoVariableSOA	1783	n/a	n/a	0
642.9330000000	n/a	642933	FrequentVariableSOA	1683	n/a	n/a	1
644.6160000000	n/a	644616	FrequentVariableSOA	1583	n/a	n/a	1
646.2000000000	n/a	646200	NovelVariableSOA	1583	n/a	n/a	1
647.7830000000	n/a	647783	FrequentVariableSOA	1750	n/a	n/a	1
649.5330000000	n/a	649533	FrequentVariableSOA	1666	n/a	n/a	1
651.2000000000	n/a	651200	NovelVariableSOA	1583	n/a	n/a	1
652.7830000000	n/a	652783	FrequentVariableSOA	1750	n/a	n/a	1
654.5330000000	n/a	654533	FrequentVariableSOA	1716	n/a	n/a	1
656.2500000000	n/a	656250	FrequentVariableSOA	1783	n/a	n/a	1
658.0330000000	n/a	658033	FrequentVariableSOA	1550	n/a	n/a	1
659.5830000000	n/a	659583	FrequentVariableSOA	1616	n/a	n/a	1
661.2000000000	n/a	661200	GoVariableSOA	1666	n/a	n/a	0
662.8660000000	n/a	662866	FrequentVariableSOA	1633	n/a	n/a	1
664.5000000000	n/a	664500	FrequentVariableSOA	1766	n/a	n/a	1
666.2660000000	n/a	666266	FrequentVariableSOA	1600	n/a	n/a	1
667.8660000000	n/a	667866	FrequentVariableSOA	1683	n/a	n/a	1
669.5500000000	n/a	669550	FrequentVariableSOA	1583	n/a	n/a	1
671.1330000000	n/a	671133	NovelVariableSOA	1500	n/a	n/a	1
672.6330000000	n/a	672633	FrequentVariableSOA	1666	n/a	n/a	1
674.3000000000	n/a	674300	GoVariableSOA	617	n/a	n/a	1
676.0660000000	n/a	676066	FrequentVariableSOA	1650	n/a	n/a	1
677.7160000000	n/a	677716	FrequentVariableSOA	1550	n/a	n/a	1
679.2660000000	n/a	679266	FrequentVariableSOA	1500	n/a	n/a	1
680.7660000000	n/a	680766	FrequentVariableSOA	1550	n/a	n/a	1
682.3160000000	n/a	682316	FrequentVariableSOA	1633	n/a	n/a	1
683.9500000000	n/a	683950	FrequentVariableSOA	1666	n/a	n/a	1
685.6160000000	n/a	685616	FrequentVariableSOA	1733	n/a	n/a	1
687.3500000000	n/a	687350	FrequentVariableSOA	1600	n/a	n/a	1
688.9500000000	n/a	688950	NovelVariableSOA	1550	n/a	n/a	1
690.5000000000	n/a	690500	FrequentVariableSOA	1533	n/a	n/a	1
692.0330000000	n/a	692033	FrequentVariableSOA	1500	n/a	n/a	1
693.5330000000	n/a	693533	GoFixedSOA	1633	n/a	n/a	0
695.1660000000	n/a	695166	FrequentFixedSOA	1633	n/a	n/a	1
696.8000000000	n/a	696800	FrequentFixedSOA	1633	n/a	n/a	1
698.4330000000	n/a	698433	FrequentFixedSOA	1633	n/a	n/a	1
700.0660000000	n/a	700066	GoFixedSOA	1633	n/a	n/a	0
701.7000000000	n/a	701700	FrequentFixedSOA	1633	n/a	n/a	1
703.3330000000	n/a	703333	FrequentFixedSOA	1633	n/a	n/a	1
704.9660000000	n/a	704966	FrequentFixedSOA	1633	n/a	n/a	1
706.6000000000	n/a	706600	FrequentFixedSOA	1633	n/a	n/a	1
708.2330000000	n/a	708233	GoFixedSOA	532	n/a	n/a	1
709.8660000000	n/a	709866	FrequentFixedSOA	1633	n/a	n/a	1
711.5000000000	n/a	711500	FrequentFixedSOA	1633	n/a	n/a	1
713.1330000000	n/a	713133	NovelFixedSOA	1633	n/a	n/a	1
714.7660000000	n/a	714766	FrequentFixedSOA	1633	n/a	n/a	1
716.4000000000	n/a	716400	FrequentFixedSOA	1633	n/a	n/a	1
718.0330000000	n/a	718033	GoFixedSOA	591	n/a	n/a	1
719.6660000000	n/a	719666	FrequentFixedSOA	1633	n/a	n/a	1
721.3000000000	n/a	721300	FrequentFixedSOA	1633	n/a	n/a	1
722.9330000000	n/a	722933	FrequentFixedSOA	1633	n/a	n/a	1
724.5660000000	n/a	724566	NovelFixedSOA	1633	n/a	n/a	1
726.2000000000	n/a	726200	FrequentFixedSOA	1633	n/a	n/a	1
727.8330000000	n/a	727833	NovelFixedSOA	1047	n/a	n/a	0
729.4660000000	n/a	729466	FrequentFixedSOA	1633	n/a	n/a	1
731.1000000000	n/a	731100	FrequentFixedSOA	1633	n/a	n/a	1
732.7330000000	n/a	732733	FrequentFixedSOA	1633	n/a	n/a	1
734.3660000000	n/a	734366	GoFixedSOA	467	n/a	n/a	1
736.0000000000	n/a	736000	FrequentFixedSOA	1633	n/a	n/a	1
737.6330000000	n/a	737633	FrequentFixedSOA	1633	n/a	n/a	1
739.2660000000	n/a	739266	FrequentFixedSOA	1633	n/a	n/a	1
740.9000000000	n/a	740900	GoFixedSOA	1633	n/a	n/a	0
742.5330000000	n/a	742533	FrequentFixedSOA	1633	n/a	n/a	1
744.1660000000	n/a	744166	FrequentFixedSOA	1633	n/a	n/a	1
745.8000000000	n/a	745800	NovelFixedSOA	1633	n/a	n/a	1
747.4330000000	n/a	747433	FrequentFixedSOA	1633	n/a	n/a	1
749.0660000000	n/a	749066	GoFixedSOA	397	n/a	n/a	1
750.7000000000	n/a	750700	FrequentFixedSOA	1633	n/a	n/a	1
752.3330000000	n/a	752333	FrequentFixedSOA	1633	n/a	n/a	1
753.9660000000	n/a	753966	FrequentFixedSOA	1633	n/a	n/a	1
755.6000000000	n/a	755600	FrequentFixedSOA	1633	n/a	n/a	1
757.2330000000	n/a	757233	FrequentFixedSOA	1633	n/a	n/a	1
758.8660000000	n/a	758866	FrequentFixedSOA	1633	n/a	n/a	1
760.5000000000	n/a	760500	NovelFixedSOA	1633	n/a	n/a	1
762.1330000000	n/a	762133	FrequentFixedSOA	1633	n/a	n/a	1
763.7660000000	n/a	763766	FrequentFixedSOA	1633	n/a	n/a	1
765.4000000000	n/a	765400	FrequentFixedSOA	1633	n/a	n/a	1
767.0330000000	n/a	767033	GoFixedSOA	419	n/a	n/a	1
768.6660000000	n/a	768666	FrequentFixedSOA	1633	n/a	n/a	1
770.3000000000	n/a	770300	FrequentFixedSOA	1633	n/a	n/a	1
771.9330000000	n/a	771933	FrequentFixedSOA	1633	n/a	n/a	1
773.5660000000	n/a	773566	FrequentFixedSOA	1633	n/a	n/a	1
775.1990000000	n/a	775199	NovelFixedSOA	1633	n/a	n/a	1
776.8330000000	n/a	776833	FrequentFixedSOA	1633	n/a	n/a	1
778.4660000000	n/a	778466	FrequentFixedSOA	1633	n/a	n/a	1
780.0990000000	n/a	780099	NovelFixedSOA	1633	n/a	n/a	1
781.7330000000	n/a	781733	FrequentFixedSOA	1633	n/a	n/a	1
783.3660000000	n/a	783366	NovelFixedSOA	1633	n/a	n/a	1
784.9990000000	n/a	784999	FrequentFixedSOA	1633	n/a	n/a	1
786.6330000000	n/a	786633	FrequentFixedSOA	1633	n/a	n/a	1
788.2660000000	n/a	788266	FrequentFixedSOA	1633	n/a	n/a	1
789.8990000000	n/a	789899	FrequentFixedSOA	1633	n/a	n/a	1
791.5330000000	n/a	791533	FrequentFixedSOA	1633	n/a	n/a	1
793.1660000000	n/a	793166	FrequentFixedSOA	1633	n/a	n/a	1
794.7990000000	n/a	794799	FrequentFixedSOA	1633	n/a	n/a	1
796.4330000000	n/a	796433	GoFixedSOA	496	n/a	n/a	1
798.0660000000	n/a	798066	FrequentFixedSOA	1633	n/a	n/a	1
799.6990000000	n/a	799699	GoFixedSOA	476	n/a	n/a	1
801.3330000000	n/a	801333	FrequentFixedSOA	1633	n/a	n/a	1
802.9660000000	n/a	802966	FrequentFixedSOA	1633	n/a	n/a	1
804.5990000000	n/a	804599	NovelFixedSOA	1633	n/a	n/a	1
806.2330000000	n/a	806233	FrequentFixedSOA	1633	n/a	n/a	1
807.8660000000	n/a	807866	GoVariableSOA	776	n/a	n/a	1
809.3830000000	n/a	809383	FrequentVariableSOA	1683	n/a	n/a	1
811.0660000000	n/a	811066	FrequentVariableSOA	1516	n/a	n/a	1
812.5830000000	n/a	812583	FrequentVariableSOA	1800	n/a	n/a	1
814.3830000000	n/a	814383	GoVariableSOA	1516	n/a	n/a	0
815.8990000000	n/a	815899	FrequentVariableSOA	1750	n/a	n/a	1
817.6490000000	n/a	817649	FrequentVariableSOA	1566	n/a	n/a	1
819.2160000000	n/a	819216	FrequentVariableSOA	1550	n/a	n/a	1
820.7660000000	n/a	820766	FrequentVariableSOA	1566	n/a	n/a	1
822.3330000000	n/a	822333	GoVariableSOA	1583	n/a	n/a	0
823.9160000000	n/a	823916	FrequentVariableSOA	1616	n/a	n/a	1
825.5330000000	n/a	825533	FrequentVariableSOA	1783	n/a	n/a	1
827.3160000000	n/a	827316	NovelVariableSOA	1650	n/a	n/a	1
828.9660000000	n/a	828966	FrequentVariableSOA	1700	n/a	n/a	1
830.6660000000	n/a	830666	FrequentVariableSOA	1766	n/a	n/a	1
832.4330000000	n/a	832433	GoVariableSOA	1800	n/a	n/a	0
834.2330000000	n/a	834233	FrequentVariableSOA	1600	n/a	n/a	1
835.8330000000	n/a	835833	FrequentVariableSOA	1766	n/a	n/a	1
837.5990000000	n/a	837599	FrequentVariableSOA	1666	n/a	n/a	1
839.2660000000	n/a	839266	NovelVariableSOA	1683	n/a	n/a	1
840.9490000000	n/a	840949	FrequentVariableSOA	1716	n/a	n/a	1
842.6660000000	n/a	842666	NovelVariableSOA	1583	n/a	n/a	1
844.2490000000	n/a	844249	FrequentVariableSOA	1783	n/a	n/a	1
846.0330000000	n/a	846033	FrequentVariableSOA	1550	n/a	n/a	1
847.5830000000	n/a	847583	FrequentVariableSOA	1550	n/a	n/a	1
849.1330000000	n/a	849133	GoVariableSOA	1733	n/a	n/a	0
850.8660000000	n/a	850866	FrequentVariableSOA	1783	n/a	n/a	1
852.6490000000	n/a	852649	FrequentVariableSOA	1633	n/a	n/a	1
854.2830000000	n/a	854283	FrequentVariableSOA	1666	n/a	n/a	1
855.9490000000	n/a	855949	GoVariableSOA	1783	n/a	n/a	0
857.7330000000	n/a	857733	FrequentVariableSOA	1716	n/a	n/a	1
859.4490000000	n/a	859449	FrequentVariableSOA	1700	n/a	n/a	1
861.1490000000	n/a	861149	NovelVariableSOA	1533	n/a	n/a	1
862.6830000000	n/a	862683	FrequentVariableSOA	1583	n/a	n/a	1
864.2660000000	n/a	864266	GoVariableSOA	423	n/a	n/a	1
865.8160000000	n/a	865816	FrequentVariableSOA	1733	n/a	n/a	1
867.5490000000	n/a	867549	FrequentVariableSOA	1550	n/a	n/a	1
869.0990000000	n/a	869099	FrequentVariableSOA	1666	n/a	n/a	1
870.7660000000	n/a	870766	FrequentVariableSOA	1733	n/a	n/a	1
872.4990000000	n/a	872499	FrequentVariableSOA	1683	n/a	n/a	1
874.1830000000	n/a	874183	FrequentVariableSOA	1516	n/a	n/a	1
875.6990000000	n/a	875699	NovelVariableSOA	1766	n/a	n/a	1
877.4660000000	n/a	877466	FrequentVariableSOA	1700	n/a	n/a	1
879.1660000000	n/a	879166	FrequentVariableSOA	1650	n/a	n/a	1
880.8160000000	n/a	880816	FrequentVariableSOA	1583	n/a	n/a	1
882.3990000000	n/a	882399	GoVariableSOA	386	n/a	n/a	1
884.1660000000	n/a	884166	FrequentVariableSOA	1766	n/a	n/a	1
885.9330000000	n/a	885933	FrequentVariableSOA	1650	n/a	n/a	1
887.5830000000	n/a	887583	FrequentVariableSOA	1800	n/a	n/a	1
889.3830000000	n/a	889383	FrequentVariableSOA	1616	n/a	n/a	1
890.9990000000	n/a	890999	NovelVariableSOA	1633	n/a	n/a	1
892.6330000000	n/a	892633	FrequentVariableSOA	1716	n/a	n/a	1
894.3490000000	n/a	894349	FrequentVariableSOA	1800	n/a	n/a	1
896.1490000000	n/a	896149	NovelVariableSOA	1800	n/a	n/a	1
897.9490000000	n/a	897949	FrequentVariableSOA	1600	n/a	n/a	1
899.5490000000	n/a	899549	NovelVariableSOA	1633	n/a	n/a	1
901.1830000000	n/a	901183	FrequentVariableSOA	1516	n/a	n/a	1
902.6990000000	n/a	902699	FrequentVariableSOA	1683	n/a	n/a	1
904.3830000000	n/a	904383	FrequentVariableSOA	1550	n/a	n/a	1
905.9330000000	n/a	905933	FrequentVariableSOA	1700	n/a	n/a	1
907.6330000000	n/a	907633	FrequentVariableSOA	1633	n/a	n/a	1
909.2660000000	n/a	909266	FrequentVariableSOA	1700	n/a	n/a	1
910.9660000000	n/a	910966	FrequentVariableSOA	1583	n/a	n/a	1
912.5490000000	n/a	912549	GoVariableSOA	1683	n/a	n/a	0
914.2330000000	n/a	914233	FrequentVariableSOA	1650	n/a	n/a	1
915.8830000000	n/a	915883	GoVariableSOA	525	n/a	n/a	1
917.6160000000	n/a	917616	FrequentVariableSOA	1633	n/a	n/a	1
919.2490000000	n/a	919249	FrequentVariableSOA	1616	n/a	n/a	1
920.8660000000	n/a	920866	NovelVariableSOA	1750	n/a	n/a	1
922.6160000000	n/a	922616	FrequentVariableSOA	1533	n/a	n/a	1
