onset	duration	sample	trial_type	response_time	stim_file	value	correct
9.6970000000	n/a	9697	ignore	n/a	n/a	n/a	n/a
12.7960000000	n/a	12796	ignore	n/a	n/a	n/a	n/a
15.8120000000	n/a	15812	ignore	n/a	n/a	n/a	n/a
30.9300000000	n/a	30930	ignore	n/a	n/a	n/a	n/a
34.0300000000	n/a	34030	ignore	n/a	n/a	n/a	n/a
37.0170000000	n/a	37017	ignore	n/a	n/a	n/a	n/a
53.9130000000	n/a	53913	PosStim	n/a	n/a	n/a	n/a
56.9460000000	n/a	56946	PosNonAlcStimWithoutStartle	n/a	n/a	n/a	n/a
73.5630000000	n/a	73563	NegStim	n/a	n/a	n/a	n/a
76.5960000000	n/a	76596	NegNonAlcStimWithoutStartle	n/a	n/a	n/a	n/a
92.2630000000	n/a	92263	NeuStim	n/a	n/a	n/a	n/a
95.3630000000	n/a	95363	NeuNonAlcP2000	n/a	n/a	n/a	n/a
99.3500000000	n/a	99350	NeuNonAlcP2000	n/a	n/a	n/a	n/a
111.0960000000	n/a	111096	NegStim	n/a	n/a	n/a	n/a
114.1960000000	n/a	114196	NegAlcP2000	n/a	n/a	n/a	n/a
118.1830000000	n/a	118183	NegAlcP2000	n/a	n/a	n/a	n/a
130.7460000000	n/a	130746	NeuStim	n/a	n/a	n/a	n/a
133.7800000000	n/a	133780	NeuAlcStimWithoutStartle	n/a	n/a	n/a	n/a
149.1960000000	n/a	149196	PosStim	n/a	n/a	n/a	n/a
152.2960000000	n/a	152296	PosAlcP1000	n/a	n/a	n/a	n/a
157.2830000000	n/a	157283	PosAlcP1000	n/a	n/a	n/a	n/a
168.4300000000	n/a	168430	NeuStim	n/a	n/a	n/a	n/a
171.5300000000	n/a	171530	NeuAlcP2000	n/a	n/a	n/a	n/a
175.5170000000	n/a	175517	NeuAlcP2000	n/a	n/a	n/a	n/a
187.3300000000	n/a	187330	NegStim	n/a	n/a	n/a	n/a
190.4300000000	n/a	190430	NegAlcP3000	n/a	n/a	n/a	n/a
193.4170000000	n/a	193417	NegAlcP3000	n/a	n/a	n/a	n/a
206.5300000000	n/a	206530	PosStim	n/a	n/a	n/a	n/a
209.5630000000	n/a	209563	PosNonAlcStimWithoutStartle	n/a	n/a	n/a	n/a
223.1130000000	n/a	223113	NeuStim	n/a	n/a	n/a	n/a
226.2130000000	n/a	226213	NeuAlcP1000	n/a	n/a	n/a	n/a
231.2000000000	n/a	231200	NeuAlcP1000	n/a	n/a	n/a	n/a
241.3630000000	n/a	241363	NegStim	n/a	n/a	n/a	n/a
244.4630000000	n/a	244463	NegNonAlcP3000	n/a	n/a	n/a	n/a
247.4500000000	n/a	247450	NegNonAlcP3000	n/a	n/a	n/a	n/a
259.5460000000	n/a	259546	PosStim	n/a	n/a	n/a	n/a
262.6460000000	n/a	262646	PosAlcP2000	n/a	n/a	n/a	n/a
266.6330000000	n/a	266633	PosAlcP2000	n/a	n/a	n/a	n/a
277.9290000000	n/a	277929	NegStim	n/a	n/a	n/a	n/a
280.9630000000	n/a	280963	NegNonAlcStimWithoutStartle	n/a	n/a	n/a	n/a
295.4790000000	n/a	295479	PosStim	n/a	n/a	n/a	n/a
298.5130000000	n/a	298513	PosAlcStimWithoutStartle	n/a	n/a	n/a	n/a
314.1460000000	n/a	314146	NeuStim	n/a	n/a	n/a	n/a
317.2460000000	n/a	317246	NeuNonAlcP3000	n/a	n/a	n/a	n/a
320.2330000000	n/a	320233	NeuNonAlcP3000	n/a	n/a	n/a	n/a
331.9290000000	n/a	331929	NegStim	n/a	n/a	n/a	n/a
335.0290000000	n/a	335029	NegAlcP1000	n/a	n/a	n/a	n/a
340.0160000000	n/a	340016	NegAlcP1000	n/a	n/a	n/a	n/a
350.4290000000	n/a	350429	NeuStim	n/a	n/a	n/a	n/a
353.5290000000	n/a	353529	NeuAlcP3000	n/a	n/a	n/a	n/a
356.5160000000	n/a	356516	NeuAlcP3000	n/a	n/a	n/a	n/a
368.3290000000	n/a	368329	PosStim	n/a	n/a	n/a	n/a
371.4290000000	n/a	371429	PosAlcP3000	n/a	n/a	n/a	n/a
374.4160000000	n/a	374416	PosAlcP3000	n/a	n/a	n/a	n/a
388.4130000000	n/a	388413	NeuStim	n/a	n/a	n/a	n/a
391.4460000000	n/a	391446	NeuAlcStimWithoutStartle	n/a	n/a	n/a	n/a
407.5960000000	n/a	407596	NegStim	n/a	n/a	n/a	n/a
410.6960000000	n/a	410696	NegAlcP1000	n/a	n/a	n/a	n/a
415.6830000000	n/a	415683	NegAlcP1000	n/a	n/a	n/a	n/a
425.5630000000	n/a	425563	NeuStim	n/a	n/a	n/a	n/a
428.6630000000	n/a	428663	NeuNonAlcP3000	n/a	n/a	n/a	n/a
431.6500000000	n/a	431650	NeuNonAlcP3000	n/a	n/a	n/a	n/a
444.2460000000	n/a	444246	NegStim	n/a	n/a	n/a	n/a
447.3460000000	n/a	447346	NegNonAlcP2000	n/a	n/a	n/a	n/a
451.3330000000	n/a	451333	NegNonAlcP2000	n/a	n/a	n/a	n/a
463.5620000000	n/a	463562	PosStim	n/a	n/a	n/a	n/a
466.5960000000	n/a	466596	PosNonAlcStimWithoutStartle	n/a	n/a	n/a	n/a
482.7790000000	n/a	482779	NeuStim	n/a	n/a	n/a	n/a
485.8120000000	n/a	485812	NeuNonAlcStimWithoutStartle	n/a	n/a	n/a	n/a
499.8620000000	n/a	499862	PosStim	n/a	n/a	n/a	n/a
502.9620000000	n/a	502962	PosNonAlcP1000	n/a	n/a	n/a	n/a
507.9490000000	n/a	507949	PosNonAlcP1000	n/a	n/a	n/a	n/a
517.6790000000	n/a	517679	NegStim	n/a	n/a	n/a	n/a
520.7120000000	n/a	520712	NegAlcStimWithoutStartle	n/a	n/a	n/a	n/a
537.6960000000	n/a	537696	NeuStim	n/a	n/a	n/a	n/a
540.7960000000	n/a	540796	NeuAlcP2000	n/a	n/a	n/a	n/a
544.7830000000	n/a	544783	NeuAlcP2000	n/a	n/a	n/a	n/a
555.3120000000	n/a	555312	PosStim	n/a	n/a	n/a	n/a
558.4120000000	n/a	558412	PosNonAlcP1000	n/a	n/a	n/a	n/a
563.3990000000	n/a	563399	PosNonAlcP1000	n/a	n/a	n/a	n/a
574.1960000000	n/a	574196	NeuStim	n/a	n/a	n/a	n/a
577.2960000000	n/a	577296	NeuNonAlcP1000	n/a	n/a	n/a	n/a
582.2830000000	n/a	582283	NeuNonAlcP1000	n/a	n/a	n/a	n/a
593.0960000000	n/a	593096	PosStim	n/a	n/a	n/a	n/a
596.1290000000	n/a	596129	PosNonAlcStimWithoutStartle	n/a	n/a	n/a	n/a
610.5960000000	n/a	610596	NegStim	n/a	n/a	n/a	n/a
613.6960000000	n/a	613696	NegAlcP2000	n/a	n/a	n/a	n/a
617.6830000000	n/a	617683	NegAlcP2000	n/a	n/a	n/a	n/a
627.2460000000	n/a	627246	NeuStim	n/a	n/a	n/a	n/a
630.3460000000	n/a	630346	NeuAlcP3000	n/a	n/a	n/a	n/a
633.3330000000	n/a	633333	NeuAlcP3000	n/a	n/a	n/a	n/a
645.1960000000	n/a	645196	NegStim	n/a	n/a	n/a	n/a
648.2290000000	n/a	648229	NegAlcStimWithoutStartle	n/a	n/a	n/a	n/a
662.0620000000	n/a	662062	NeuStim	n/a	n/a	n/a	n/a
665.1620000000	n/a	665162	NeuNonAlcP2000	n/a	n/a	n/a	n/a
669.1490000000	n/a	669149	NeuNonAlcP2000	n/a	n/a	n/a	n/a
680.2620000000	n/a	680262	PosStim	n/a	n/a	n/a	n/a
683.3620000000	n/a	683362	PosNonAlcP3000	n/a	n/a	n/a	n/a
686.3490000000	n/a	686349	PosNonAlcP3000	n/a	n/a	n/a	n/a
697.1620000000	n/a	697162	NegStim	n/a	n/a	n/a	n/a
700.2620000000	n/a	700262	NegAlcP3000	n/a	n/a	n/a	n/a
703.2490000000	n/a	703249	NegAlcP3000	n/a	n/a	n/a	n/a
716.8790000000	n/a	716879	PosStim	n/a	n/a	n/a	n/a
719.9120000000	n/a	719912	PosAlcStimWithoutStartle	n/a	n/a	n/a	n/a
734.2790000000	n/a	734279	NegStim	n/a	n/a	n/a	n/a
737.3790000000	n/a	737379	NegAlcP1000	n/a	n/a	n/a	n/a
742.3660000000	n/a	742366	NegAlcP1000	n/a	n/a	n/a	n/a
752.9790000000	n/a	752979	PosStim	n/a	n/a	n/a	n/a
756.0120000000	n/a	756012	PosAlcStimWithoutStartle	n/a	n/a	n/a	n/a
770.9950000000	n/a	770995	NegStim	n/a	n/a	n/a	n/a
774.0950000000	n/a	774095	NegNonAlcP2000	n/a	n/a	n/a	n/a
778.0820000000	n/a	778082	NegNonAlcP2000	n/a	n/a	n/a	n/a
787.9450000000	n/a	787945	PosStim	n/a	n/a	n/a	n/a
791.0450000000	n/a	791045	PosAlcP2000	n/a	n/a	n/a	n/a
795.0320000000	n/a	795032	PosAlcP2000	n/a	n/a	n/a	n/a
804.2790000000	n/a	804279	NeuStim	n/a	n/a	n/a	n/a
807.3120000000	n/a	807312	NeuNonAlcStimWithoutStartle	n/a	n/a	n/a	n/a
823.4950000000	n/a	823495	PosStim	n/a	n/a	n/a	n/a
826.5950000000	n/a	826595	PosNonAlcP2000	n/a	n/a	n/a	n/a
830.5820000000	n/a	830582	PosNonAlcP2000	n/a	n/a	n/a	n/a
841.9290000000	n/a	841929	NegStim	n/a	n/a	n/a	n/a
844.9620000000	n/a	844962	NegAlcStimWithoutStartle	n/a	n/a	n/a	n/a
858.5950000000	n/a	858595	PosStim	n/a	n/a	n/a	n/a
861.6950000000	n/a	861695	PosAlcP3000	n/a	n/a	n/a	n/a
864.6820000000	n/a	864682	PosAlcP3000	n/a	n/a	n/a	n/a
875.8620000000	n/a	875862	PosStim	n/a	n/a	n/a	n/a
878.9620000000	n/a	878962	PosNonAlcP3000	n/a	n/a	n/a	n/a
881.9490000000	n/a	881949	PosNonAlcP3000	n/a	n/a	n/a	n/a
895.2450000000	n/a	895245	NeuStim	n/a	n/a	n/a	n/a
898.2790000000	n/a	898279	NeuNonAlcStimWithoutStartle	n/a	n/a	n/a	n/a
912.9120000000	n/a	912912	NeuStim	n/a	n/a	n/a	n/a
916.0120000000	n/a	916012	NeuNonAlcP3000	n/a	n/a	n/a	n/a
918.9990000000	n/a	918999	NeuNonAlcP3000	n/a	n/a	n/a	n/a
932.1950000000	n/a	932195	PosStim	n/a	n/a	n/a	n/a
935.2950000000	n/a	935295	PosAlcP2000	n/a	n/a	n/a	n/a
939.2820000000	n/a	939282	PosAlcP2000	n/a	n/a	n/a	n/a
950.6280000000	n/a	950628	NegStim	n/a	n/a	n/a	n/a
953.7280000000	n/a	953728	NegAlcP1000	n/a	n/a	n/a	n/a
958.7150000000	n/a	958715	NegAlcP1000	n/a	n/a	n/a	n/a
969.1780000000	n/a	969178	PosStim	n/a	n/a	n/a	n/a
972.2780000000	n/a	972278	PosNonAlcP2000	n/a	n/a	n/a	n/a
976.2650000000	n/a	976265	PosNonAlcP2000	n/a	n/a	n/a	n/a
986.3280000000	n/a	986328	NeuStim	n/a	n/a	n/a	n/a
989.3620000000	n/a	989362	NeuNonAlcStimWithoutStartle	n/a	n/a	n/a	n/a
1006.0120000000	n/a	1006012	NegStim	n/a	n/a	n/a	n/a
1009.1120000000	n/a	1009112	NegAlcP2000	n/a	n/a	n/a	n/a
1013.0990000000	n/a	1013099	NegAlcP2000	n/a	n/a	n/a	n/a
1022.9450000000	n/a	1022945	PosStim	n/a	n/a	n/a	n/a
1026.0450000000	n/a	1026045	PosAlcP3000	n/a	n/a	n/a	n/a
1029.0320000000	n/a	1029032	PosAlcP3000	n/a	n/a	n/a	n/a
1042.3950000000	n/a	1042395	NeuStim	n/a	n/a	n/a	n/a
1045.4280000000	n/a	1045428	NeuAlcStimWithoutStartle	n/a	n/a	n/a	n/a
1059.0950000000	n/a	1059095	NegStim	n/a	n/a	n/a	n/a
1062.1950000000	n/a	1062195	NegNonAlcP3000	n/a	n/a	n/a	n/a
1065.1820000000	n/a	1065182	NegNonAlcP3000	n/a	n/a	n/a	n/a
