onset	duration	sample	trial_type	response_time	stim_file	value	correct
8.9690000000	n/a	8969	ignore	992	n/a	n/a	1
11.0360000000	n/a	11036	ignore	1000	n/a	n/a	1
13.0360000000	n/a	13036	ignore	1700	n/a	n/a	1
14.7360000000	n/a	14736	ignore	1219	n/a	n/a	0
17.0190000000	n/a	17019	ignore	1000	n/a	n/a	1
19.0190000000	n/a	19019	ignore	1700	n/a	n/a	1
20.7190000000	n/a	20719	ignore	692	n/a	n/a	1
22.4860000000	n/a	22486	ignore	1000	n/a	n/a	1
24.4860000000	n/a	24486	ignore	1700	n/a	n/a	1
26.1860000000	n/a	26186	ignore	627	n/a	n/a	1
27.8860000000	n/a	27886	ignore	1000	n/a	n/a	1
29.8860000000	n/a	29886	ignore	1700	n/a	n/a	1
31.5860000000	n/a	31586	ignore	1310	n/a	n/a	1
33.9690000000	n/a	33969	ignore	1000	n/a	n/a	1
35.9690000000	n/a	35969	ignore	1700	n/a	n/a	1
37.6690000000	n/a	37669	ignore	945	n/a	n/a	1
39.6860000000	n/a	39686	ignore	1000	n/a	n/a	1
41.6860000000	n/a	41686	ignore	1700	n/a	n/a	1
43.3860000000	n/a	43386	ignore	647	n/a	n/a	1
45.1030000000	n/a	45103	ignore	1000	n/a	n/a	1
47.1030000000	n/a	47103	ignore	1700	n/a	n/a	1
48.8030000000	n/a	48803	ignore	1243	n/a	n/a	1
51.1190000000	n/a	51119	ignore	1000	n/a	n/a	1
53.1190000000	n/a	53119	STATUS	1700	n/a	n/a	1
54.8190000000	n/a	54819	ignore	4616	n/a	n/a	1
59.5030000000	n/a	59503	ignore 	2000	n/a	n/a	1
66.6360000000	n/a	66636	ignore	1000	n/a	n/a	1
68.6360000000	n/a	68636	STATUS	1700	n/a	n/a	1
70.3360000000	n/a	70336	ignore	343	n/a	n/a	0
71.7530000000	n/a	71753	ignore	1000	n/a	n/a	1
73.7530000000	n/a	73753	ignore	1700	n/a	n/a	1
75.4530000000	n/a	75453	ignore	1481	n/a	n/a	1
78.0030000000	n/a	78003	ignore	1000	n/a	n/a	1
80.0030000000	n/a	80003	ignore	1700	n/a	n/a	1
81.7030000000	n/a	81703	ignore	496	n/a	n/a	1
83.2690000000	n/a	83269	ignore	1000	n/a	n/a	1
85.2690000000	n/a	85269	ignore	1700	n/a	n/a	1
86.9690000000	n/a	86969	ignore	2604	n/a	n/a	1
90.6360000000	n/a	90636	ignore	1000	n/a	n/a	1
92.6360000000	n/a	92636	ignore	1700	n/a	n/a	1
94.3360000000	n/a	94336	ignore	1993	n/a	n/a	1
97.4020000000	n/a	97402	ignore	1000	n/a	n/a	1
99.4030000000	n/a	99403	ignore	1700	n/a	n/a	1
101.1020000000	n/a	101102	ignore	709	n/a	n/a	1
102.8860000000	n/a	102886	ignore	1000	n/a	n/a	1
104.8860000000	n/a	104886	ignore	1700	n/a	n/a	1
106.5860000000	n/a	106586	ignore	716	n/a	n/a	1
108.3690000000	n/a	108369	ignore	1000	n/a	n/a	1
110.3690000000	n/a	110369	ignore	1700	n/a	n/a	1
112.0690000000	n/a	112069	ignore	2277	n/a	n/a	1
114.4190000000	n/a	114419	ignore 	2000	n/a	n/a	1
126.0690000000	n/a	126069	PenaltyB1	1647	n/a	n/a	1
128.7860000000	n/a	128786	NeuCorrB1	1000	n/a	n/a	1
130.7860000000	n/a	130786	ignore	1700	n/a	n/a	1
132.4860000000	n/a	132486	PenaltyB1	1548	n/a	n/a	1
135.1020000000	n/a	135102	NeuCorrB1	1000	n/a	n/a	1
137.1020000000	n/a	137102	ignore	1700	n/a	n/a	1
138.8020000000	n/a	138802	PenaltyB1	1237	n/a	n/a	1
141.1020000000	n/a	141102	NeuCorrB1	1000	n/a	n/a	1
143.1020000000	n/a	143102	ignore	1700	n/a	n/a	1
144.8020000000	n/a	144802	RewardB1	2315	n/a	n/a	1
148.1860000000	n/a	148186	RewardCorrB1	1000	n/a	n/a	1
150.1860000000	n/a	150186	ignore	1700	n/a	n/a	1
151.8860000000	n/a	151886	RewardB1	1145	n/a	n/a	1
154.1020000000	n/a	154102	RewardCorrB1	1000	n/a	n/a	1
156.1020000000	n/a	156102	ignore	1700	n/a	n/a	1
157.8020000000	n/a	157802	PenaltyB1	671	n/a	n/a	1
159.5360000000	n/a	159536	NeuCorrB1	1000	n/a	n/a	1
161.5360000000	n/a	161536	ignore	1700	n/a	n/a	1
163.2360000000	n/a	163236	PenaltyB1	1230	n/a	n/a	1
165.5360000000	n/a	165536	NeuCorrB1	1000	n/a	n/a	1
167.5360000000	n/a	167536	ignore	1700	n/a	n/a	1
169.2360000000	n/a	169236	PenaltyB1	1043	n/a	n/a	1
171.3520000000	n/a	171352	NeuCorrB1	1000	n/a	n/a	1
173.3520000000	n/a	173352	ignore	1700	n/a	n/a	1
175.0520000000	n/a	175052	PenaltyB1	498	n/a	n/a	1
176.6190000000	n/a	176619	PunCorrB1	1000	n/a	n/a	1
178.6190000000	n/a	178619	ignore	1700	n/a	n/a	1
180.3190000000	n/a	180319	RewardB1	950	n/a	n/a	0
182.3360000000	n/a	182336	NeuIncorrB1	1000	n/a	n/a	1
184.3360000000	n/a	184336	ignore	1700	n/a	n/a	1
186.0360000000	n/a	186036	PenaltyB1	1425	n/a	n/a	1
188.5360000000	n/a	188536	NeuCorrB1	1000	n/a	n/a	1
190.5360000000	n/a	190536	ignore	1700	n/a	n/a	1
192.2360000000	n/a	192236	RewardB1	1546	n/a	n/a	1
194.8520000000	n/a	194852	NeuCorrB1	1000	n/a	n/a	1
196.8520000000	n/a	196852	ignore	1700	n/a	n/a	1
198.5520000000	n/a	198552	PenaltyB1	403	n/a	n/a	1
200.0190000000	n/a	200019	NeuCorrB1	1000	n/a	n/a	1
202.0190000000	n/a	202019	ignore	1700	n/a	n/a	1
203.7190000000	n/a	203719	RewardB1	653	n/a	n/a	1
205.4360000000	n/a	205436	RewardCorrB1	1000	n/a	n/a	1
207.4360000000	n/a	207436	ignore	1700	n/a	n/a	1
209.1360000000	n/a	209136	PenaltyB1	625	n/a	n/a	1
210.8360000000	n/a	210836	NeuCorrB1	1000	n/a	n/a	1
212.8360000000	n/a	212836	ignore	1700	n/a	n/a	1
214.5360000000	n/a	214536	PenaltyB1	752	n/a	n/a	1
216.3520000000	n/a	216352	NeuCorrB1	1000	n/a	n/a	1
218.3520000000	n/a	218352	ignore	1700	n/a	n/a	1
220.0520000000	n/a	220052	RewardB1	598	n/a	n/a	1
221.7190000000	n/a	221719	NeuCorrB1	1000	n/a	n/a	1
223.7190000000	n/a	223719	ignore	1700	n/a	n/a	1
225.4190000000	n/a	225419	PenaltyB1	788	n/a	n/a	0
227.2690000000	n/a	227269	PunIncorrB1	1000	n/a	n/a	1
229.2690000000	n/a	229269	ignore	1700	n/a	n/a	1
230.9690000000	n/a	230969	RewardB1	629	n/a	n/a	1
232.6690000000	n/a	232669	RewardCorrB1	1000	n/a	n/a	1
234.6690000000	n/a	234669	ignore	1700	n/a	n/a	1
236.3690000000	n/a	236369	RewardB1	565	n/a	n/a	1
238.0020000000	n/a	238002	RewardCorrB1	1000	n/a	n/a	1
240.0020000000	n/a	240002	ignore	1700	n/a	n/a	1
241.7020000000	n/a	241702	RewardB1	1258	n/a	n/a	0
244.0360000000	n/a	244036	RewIncorrB1	1000	n/a	n/a	1
246.0360000000	n/a	246036	ignore	1700	n/a	n/a	1
247.7360000000	n/a	247736	RewardB1	556	n/a	n/a	0
249.3690000000	n/a	249369	NeuIncorrB1	1000	n/a	n/a	1
251.3690000000	n/a	251369	ignore	1700	n/a	n/a	1
253.0690000000	n/a	253069	RewardB1	529	n/a	n/a	1
254.6690000000	n/a	254669	RewardCorrB1	1000	n/a	n/a	1
256.6690000000	n/a	256669	ignore	1700	n/a	n/a	1
258.3690000000	n/a	258369	PenaltyB1	590	n/a	n/a	1
260.0360000000	n/a	260036	NeuCorrB1	1000	n/a	n/a	1
262.0360000000	n/a	262036	ignore	1700	n/a	n/a	1
263.7360000000	n/a	263736	RewardB1	595	n/a	n/a	0
265.4020000000	n/a	265402	NeuIncorrB1	1000	n/a	n/a	1
267.4020000000	n/a	267402	ignore	1700	n/a	n/a	1
269.1020000000	n/a	269102	PenaltyB1	1097	n/a	n/a	1
271.2690000000	n/a	271269	PunCorrB1	1000	n/a	n/a	1
273.2690000000	n/a	273269	ignore	1700	n/a	n/a	1
274.9690000000	n/a	274969	RewardB1	619	n/a	n/a	0
276.6520000000	n/a	276652	NeuIncorrB1	1000	n/a	n/a	1
278.6520000000	n/a	278652	ignore	1700	n/a	n/a	1
280.3520000000	n/a	280352	RewardB1	612	n/a	n/a	1
282.0350000000	n/a	282035	RewardCorrB1	1000	n/a	n/a	1
284.0360000000	n/a	284036	ignore	1700	n/a	n/a	1
285.7350000000	n/a	285735	RewardB1	817	n/a	n/a	0
287.6190000000	n/a	287619	NeuIncorrB1	1000	n/a	n/a	1
289.6190000000	n/a	289619	ignore	1700	n/a	n/a	1
291.3190000000	n/a	291319	PenaltyB1	1566	n/a	n/a	0
293.9520000000	n/a	293952	PunIncorrB1	1000	n/a	n/a	1
295.9520000000	n/a	295952	ignore	1700	n/a	n/a	1
297.6520000000	n/a	297652	RewardB1	617	n/a	n/a	0
299.3350000000	n/a	299335	RewIncorrB1	1000	n/a	n/a	1
301.3350000000	n/a	301335	ignore	1700	n/a	n/a	1
303.0350000000	n/a	303035	PenaltyB1	1510	n/a	n/a	1
305.6190000000	n/a	305619	NeuCorrB1	1000	n/a	n/a	1
307.6190000000	n/a	307619	ignore	1700	n/a	n/a	1
309.3190000000	n/a	309319	RewardB1	488	n/a	n/a	1
310.8690000000	n/a	310869	RewardCorrB1	1000	n/a	n/a	1
312.8690000000	n/a	312869	ignore	1700	n/a	n/a	1
314.5690000000	n/a	314569	PenaltyB1	810	n/a	n/a	1
316.4520000000	n/a	316452	PunCorrB1	1000	n/a	n/a	1
318.4520000000	n/a	318452	ignore	1700	n/a	n/a	1
320.1520000000	n/a	320152	RewardB1	598	n/a	n/a	0
321.8190000000	n/a	321819	NeuIncorrB1	1000	n/a	n/a	1
323.8190000000	n/a	323819	ignore	1700	n/a	n/a	1
325.5190000000	n/a	325519	PenaltyB1	922	n/a	n/a	0
327.5190000000	n/a	327519	PunIncorrB1	1000	n/a	n/a	1
329.5190000000	n/a	329519	ignore	1700	n/a	n/a	1
331.2190000000	n/a	331219	PenaltyB1	563	n/a	n/a	1
332.8520000000	n/a	332852	NeuCorrB1	1000	n/a	n/a	1
334.8520000000	n/a	334852	ignore	1700	n/a	n/a	1
336.5520000000	n/a	336552	RewardB1	568	n/a	n/a	0
338.1850000000	n/a	338185	NeuIncorrB1	1000	n/a	n/a	1
340.1850000000	n/a	340185	ignore	1700	n/a	n/a	1
341.8850000000	n/a	341885	PenaltyB1	1238	n/a	n/a	1
344.1850000000	n/a	344185	PunCorrB1	1000	n/a	n/a	1
346.1850000000	n/a	346185	ignore	1700	n/a	n/a	1
347.8850000000	n/a	347885	RewardB1	557	n/a	n/a	1
349.5190000000	n/a	349519	RewardCorrB1	1000	n/a	n/a	1
351.5190000000	n/a	351519	ignore	1700	n/a	n/a	1
354.8350000000	n/a	354835	RewardB2	488	n/a	n/a	1
356.4020000000	n/a	356402	RewardCorrB2	1000	n/a	n/a	1
358.4020000000	n/a	358402	ignore	1700	n/a	n/a	1
360.1020000000	n/a	360102	PenaltyB2	939	n/a	n/a	1
362.1190000000	n/a	362119	NeuCorrB2	1000	n/a	n/a	1
364.1190000000	n/a	364119	ignore	1700	n/a	n/a	1
365.8190000000	n/a	365819	RewardB2	517	n/a	n/a	1
367.4020000000	n/a	367402	RewardCorrB2	1000	n/a	n/a	1
369.4020000000	n/a	369402	ignore	1700	n/a	n/a	1
371.1020000000	n/a	371102	RewardB2	986	n/a	n/a	0
373.1520000000	n/a	373152	RewIncorrB2	1000	n/a	n/a	1
375.1520000000	n/a	375152	ignore	1700	n/a	n/a	1
376.8520000000	n/a	376852	PenaltyB2	632	n/a	n/a	1
378.5520000000	n/a	378552	NeuCorrB2	1000	n/a	n/a	1
380.5520000000	n/a	380552	ignore	1700	n/a	n/a	1
382.2520000000	n/a	382252	RewardB2	617	n/a	n/a	0
383.9350000000	n/a	383935	NeuIncorrB2	1000	n/a	n/a	1
385.9350000000	n/a	385935	ignore	1700	n/a	n/a	1
387.6350000000	n/a	387635	PenaltyB2	864	n/a	n/a	1
389.5690000000	n/a	389569	NeuCorrB2	1000	n/a	n/a	1
391.5690000000	n/a	391569	ignore	1700	n/a	n/a	1
393.2690000000	n/a	393269	RewardB2	502	n/a	n/a	0
394.8350000000	n/a	394835	NeuIncorrB2	1000	n/a	n/a	1
396.8350000000	n/a	396835	ignore	1700	n/a	n/a	1
398.5350000000	n/a	398535	PenaltyB2	569	n/a	n/a	1
400.1690000000	n/a	400169	NeuCorrB2	1000	n/a	n/a	1
402.1690000000	n/a	402169	ignore	1700	n/a	n/a	1
403.8690000000	n/a	403869	RewardB2	541	n/a	n/a	1
405.4850000000	n/a	405485	RewardCorrB2	1000	n/a	n/a	1
407.4850000000	n/a	407485	STATUS	1700	n/a	n/a	1
409.1850000000	n/a	409185	PenaltyB2	560	n/a	n/a	1
410.8190000000	n/a	410819	PunCorrB2	1000	n/a	n/a	1
412.8190000000	n/a	412819	ignore	1700	n/a	n/a	1
414.5190000000	n/a	414519	RewardB2	574	n/a	n/a	1
416.1690000000	n/a	416169	RewardCorrB2	1000	n/a	n/a	1
418.1690000000	n/a	418169	STATUS	1700	n/a	n/a	1
419.8690000000	n/a	419869	PenaltyB2	619	n/a	n/a	0
421.5520000000	n/a	421552	PunIncorrB2	1000	n/a	n/a	1
423.5520000000	n/a	423552	ignore	1700	n/a	n/a	1
425.2520000000	n/a	425252	RewardB2	602	n/a	n/a	0
426.9190000000	n/a	426919	NeuIncorrB2	1000	n/a	n/a	1
428.9190000000	n/a	428919	ignore	1700	n/a	n/a	1
430.6190000000	n/a	430619	PenaltyB2	592	n/a	n/a	1
432.2850000000	n/a	432285	NeuCorrB2	1000	n/a	n/a	1
434.2850000000	n/a	434285	ignore	1700	n/a	n/a	1
435.9850000000	n/a	435985	RewardB2	360	n/a	n/a	0
437.4190000000	n/a	437419	RewIncorrB2	1000	n/a	n/a	1
439.4190000000	n/a	439419	STATUS	1700	n/a	n/a	1
441.1190000000	n/a	441119	PenaltyB2	1428	n/a	n/a	1
443.6190000000	n/a	443619	NeuCorrB2	1000	n/a	n/a	1
445.6190000000	n/a	445619	STATUS	1700	n/a	n/a	1
447.3190000000	n/a	447319	RewardB2	503	n/a	n/a	0
448.8850000000	n/a	448885	NeuIncorrB2	1000	n/a	n/a	1
450.8850000000	n/a	450885	STATUS	1700	n/a	n/a	1
452.5850000000	n/a	452585	PenaltyB2	467	n/a	n/a	1
454.1180000000	n/a	454118	NeuCorrB2	1000	n/a	n/a	1
456.1190000000	n/a	456119	STATUS	1700	n/a	n/a	1
457.8180000000	n/a	457818	RewardB2	540	n/a	n/a	1
459.4350000000	n/a	459435	RewardCorrB2	1000	n/a	n/a	1
461.4350000000	n/a	461435	STATUS	1700	n/a	n/a	1
463.1350000000	n/a	463135	PenaltyB2	1459	n/a	n/a	1
465.6680000000	n/a	465668	PunCorrB2	1000	n/a	n/a	1
467.6690000000	n/a	467669	STATUS	1700	n/a	n/a	1
469.3680000000	n/a	469368	PenaltyB2	638	n/a	n/a	1
471.0850000000	n/a	471085	NeuCorrB2	1000	n/a	n/a	1
473.0850000000	n/a	473085	STATUS	1700	n/a	n/a	1
474.7850000000	n/a	474785	PenaltyB2	1508	n/a	n/a	0
477.3680000000	n/a	477368	PunIncorrB2	1000	n/a	n/a	1
479.3690000000	n/a	479369	ignore	1700	n/a	n/a	1
481.0680000000	n/a	481068	RewardB2	652	n/a	n/a	0
482.7850000000	n/a	482785	NeuIncorrB2	1000	n/a	n/a	1
484.7850000000	n/a	484785	ignore	1700	n/a	n/a	1
486.4850000000	n/a	486485	RewardB2	560	n/a	n/a	1
488.1180000000	n/a	488118	NeuCorrB2	1000	n/a	n/a	1
490.1180000000	n/a	490118	ignore	1700	n/a	n/a	1
491.8180000000	n/a	491818	RewardB2	502	n/a	n/a	1
493.3850000000	n/a	493385	RewardCorrB2	1000	n/a	n/a	1
495.3850000000	n/a	495385	STATUS	1700	n/a	n/a	1
497.0850000000	n/a	497085	PenaltyB2	637	n/a	n/a	1
498.7850000000	n/a	498785	NeuCorrB2	1000	n/a	n/a	1
500.7850000000	n/a	500785	STATUS	1700	n/a	n/a	1
502.4850000000	n/a	502485	PenaltyB2	1343	n/a	n/a	1
504.9020000000	n/a	504902	NeuCorrB2	1000	n/a	n/a	1
506.9020000000	n/a	506902	STATUS	1700	n/a	n/a	1
508.6020000000	n/a	508602	RewardB2	589	n/a	n/a	0
510.2680000000	n/a	510268	NeuIncorrB2	1000	n/a	n/a	1
512.2680000000	n/a	512268	STATUS	1700	n/a	n/a	1
513.9680000000	n/a	513968	PenaltyB2	1270	n/a	n/a	1
516.3020000000	n/a	516302	NeuCorrB2	1000	n/a	n/a	1
518.3020000000	n/a	518302	STATUS	1700	n/a	n/a	1
520.0020000000	n/a	520002	RewardB2	488	n/a	n/a	1
521.5520000000	n/a	521552	NeuCorrB2	1000	n/a	n/a	1
523.5520000000	n/a	523552	STATUS	1700	n/a	n/a	1
525.2520000000	n/a	525252	PenaltyB2	457	n/a	n/a	1
526.7850000000	n/a	526785	NeuCorrB2	1000	n/a	n/a	1
528.7850000000	n/a	528785	STATUS	1700	n/a	n/a	1
530.4850000000	n/a	530485	RewardB2	499	n/a	n/a	0
532.0520000000	n/a	532052	NeuIncorrB2	1000	n/a	n/a	1
534.0520000000	n/a	534052	STATUS	1700	n/a	n/a	1
535.7520000000	n/a	535752	PenaltyB2	849	n/a	n/a	0
537.6680000000	n/a	537668	PunIncorrB2	1000	n/a	n/a	1
539.6680000000	n/a	539668	ignore	1700	n/a	n/a	1
541.3680000000	n/a	541368	PenaltyB2	1008	n/a	n/a	1
543.4520000000	n/a	543452	PunCorrB2	1000	n/a	n/a	1
545.4520000000	n/a	545452	ignore	1700	n/a	n/a	1
547.1520000000	n/a	547152	RewardB2	461	n/a	n/a	1
548.6850000000	n/a	548685	RewardCorrB2	1000	n/a	n/a	1
550.6850000000	n/a	550685	ignore	1700	n/a	n/a	1
552.3850000000	n/a	552385	PenaltyB2	733	n/a	n/a	1
554.1850000000	n/a	554185	NeuCorrB2	1000	n/a	n/a	1
556.1850000000	n/a	556185	ignore	1700	n/a	n/a	1
557.8850000000	n/a	557885	RewardB2	739	n/a	n/a	0
559.7020000000	n/a	559702	NeuIncorrB2	1000	n/a	n/a	1
561.7020000000	n/a	561702	ignore	1700	n/a	n/a	1
563.4020000000	n/a	563402	PenaltyB2	783	n/a	n/a	1
565.2520000000	n/a	565252	PunCorrB2	1000	n/a	n/a	1
567.2520000000	n/a	567252	ignore	1700	n/a	n/a	1
568.9520000000	n/a	568952	RewardB2	456	n/a	n/a	1
570.4850000000	n/a	570485	RewardCorrB2	1000	n/a	n/a	1
572.4850000000	n/a	572485	ignore	1700	n/a	n/a	1
575.7850000000	n/a	575785	RewardB3	550	n/a	n/a	1
577.4020000000	n/a	577402	RewardCorrB3	1000	n/a	n/a	1
579.4020000000	n/a	579402	STATUS	1700	n/a	n/a	1
581.1020000000	n/a	581102	PenaltyB3	551	n/a	n/a	1
582.7180000000	n/a	582718	PunCorrB3	1000	n/a	n/a	1
584.7180000000	n/a	584718	ignore	1700	n/a	n/a	1
586.4180000000	n/a	586418	RewardB3	551	n/a	n/a	0
588.0350000000	n/a	588035	NeuIncorrB3	1000	n/a	n/a	1
590.0350000000	n/a	590035	ignore	1700	n/a	n/a	1
591.7350000000	n/a	591735	PenaltyB3	725	n/a	n/a	1
593.5350000000	n/a	593535	NeuCorrB3	1000	n/a	n/a	1
595.5350000000	n/a	595535	ignore	1700	n/a	n/a	1
597.2350000000	n/a	597235	PenaltyB3	693	n/a	n/a	1
599.0020000000	n/a	599002	NeuCorrB3	1000	n/a	n/a	1
601.0020000000	n/a	601002	ignore	1700	n/a	n/a	1
602.7020000000	n/a	602702	RewardB3	563	n/a	n/a	0
604.3350000000	n/a	604335	NeuIncorrB3	1000	n/a	n/a	1
606.3350000000	n/a	606335	ignore	1700	n/a	n/a	1
608.0350000000	n/a	608035	PenaltyB3	562	n/a	n/a	1
609.6680000000	n/a	609668	PunCorrB3	1000	n/a	n/a	1
611.6680000000	n/a	611668	ignore	1700	n/a	n/a	1
613.3680000000	n/a	613368	RewardB3	518	n/a	n/a	1
614.9520000000	n/a	614952	RewardCorrB3	1000	n/a	n/a	1
616.9520000000	n/a	616952	ignore	1700	n/a	n/a	1
618.6520000000	n/a	618652	PenaltyB3	559	n/a	n/a	1
620.2850000000	n/a	620285	NeuCorrB3	1000	n/a	n/a	1
622.2850000000	n/a	622285	ignore	1700	n/a	n/a	1
623.9850000000	n/a	623985	RewardB3	486	n/a	n/a	0
625.5350000000	n/a	625535	RewIncorrB3	1000	n/a	n/a	1
627.5350000000	n/a	627535	STATUS	1700	n/a	n/a	1
629.2350000000	n/a	629235	PenaltyB3	1190	n/a	n/a	1
631.5020000000	n/a	631502	NeuCorrB3	1000	n/a	n/a	1
633.5020000000	n/a	633502	STATUS	1700	n/a	n/a	1
635.2010000000	n/a	635201	RewardB3	381	n/a	n/a	0
636.6510000000	n/a	636651	NeuIncorrB3	1000	n/a	n/a	1
638.6520000000	n/a	638652	STATUS	1700	n/a	n/a	1
640.3510000000	n/a	640351	RewardB3	393	n/a	n/a	1
641.8180000000	n/a	641818	RewardCorrB3	1000	n/a	n/a	1
643.8180000000	n/a	643818	STATUS	1700	n/a	n/a	1
645.5180000000	n/a	645518	RewardB3	623	n/a	n/a	0
647.2180000000	n/a	647218	NeuIncorrB3	1000	n/a	n/a	1
649.2180000000	n/a	649218	STATUS	1700	n/a	n/a	1
650.9180000000	n/a	650918	PenaltyB3	1508	n/a	n/a	1
653.5010000000	n/a	653501	PunCorrB3	1000	n/a	n/a	1
655.5020000000	n/a	655502	STATUS	1700	n/a	n/a	1
657.2010000000	n/a	657201	RewardB3	424	n/a	n/a	0
658.7010000000	n/a	658701	NeuIncorrB3	1000	n/a	n/a	1
660.7020000000	n/a	660702	STATUS	1700	n/a	n/a	1
662.4010000000	n/a	662401	PenaltyB3	665	n/a	n/a	1
664.1350000000	n/a	664135	NeuCorrB3	1000	n/a	n/a	1
666.1350000000	n/a	666135	STATUS	1700	n/a	n/a	1
667.8350000000	n/a	667835	RewardB3	495	n/a	n/a	1
669.4010000000	n/a	669401	RewardCorrB3	1000	n/a	n/a	1
671.4010000000	n/a	671401	STATUS	1700	n/a	n/a	1
673.1010000000	n/a	673101	RewardB3	594	n/a	n/a	0
674.7680000000	n/a	674768	NeuIncorrB3	1000	n/a	n/a	1
676.7680000000	n/a	676768	STATUS	1700	n/a	n/a	1
678.4680000000	n/a	678468	RewardB3	592	n/a	n/a	0
680.1350000000	n/a	680135	RewIncorrB3	1000	n/a	n/a	1
682.1350000000	n/a	682135	STATUS	1700	n/a	n/a	1
683.8350000000	n/a	683835	RewardB3	475	n/a	n/a	1
685.3850000000	n/a	685385	RewardCorrB3	1000	n/a	n/a	1
687.3850000000	n/a	687385	STATUS	1700	n/a	n/a	1
689.0850000000	n/a	689085	RewardB3	377	n/a	n/a	1
690.5350000000	n/a	690535	RewardCorrB3	1000	n/a	n/a	1
692.5350000000	n/a	692535	STATUS	1700	n/a	n/a	1
694.2350000000	n/a	694235	PenaltyB3	702	n/a	n/a	0
696.0010000000	n/a	696001	PunIncorrB3	1000	n/a	n/a	1
698.0010000000	n/a	698001	STATUS	1700	n/a	n/a	1
699.7010000000	n/a	699701	RewardB3	484	n/a	n/a	1
701.2510000000	n/a	701251	NeuCorrB3	1000	n/a	n/a	1
703.2510000000	n/a	703251	STATUS	1700	n/a	n/a	1
704.9510000000	n/a	704951	PenaltyB3	1080	n/a	n/a	1
707.1010000000	n/a	707101	NeuCorrB3	1000	n/a	n/a	1
709.1010000000	n/a	709101	STATUS	1700	n/a	n/a	1
710.8010000000	n/a	710801	PenaltyB3	1362	n/a	n/a	1
713.2350000000	n/a	713235	NeuCorrB3	1000	n/a	n/a	1
715.2350000000	n/a	715235	STATUS	1700	n/a	n/a	1
716.9350000000	n/a	716935	RewardB3	344	n/a	n/a	1
718.3510000000	n/a	718351	RewardCorrB3	1000	n/a	n/a	1
720.3510000000	n/a	720351	STATUS	1700	n/a	n/a	1
722.0510000000	n/a	722051	PenaltyB3	929	n/a	n/a	1
724.0510000000	n/a	724051	NeuCorrB3	1000	n/a	n/a	1
726.0510000000	n/a	726051	STATUS	1700	n/a	n/a	1
727.7510000000	n/a	727751	RewardB3	477	n/a	n/a	1
729.3010000000	n/a	729301	NeuCorrB3	1000	n/a	n/a	1
731.3010000000	n/a	731301	STATUS	1700	n/a	n/a	1
733.0010000000	n/a	733001	PenaltyB3	1033	n/a	n/a	1
735.1010000000	n/a	735101	NeuCorrB3	1000	n/a	n/a	1
737.1010000000	n/a	737101	STATUS	1700	n/a	n/a	1
738.8010000000	n/a	738801	RewardB3	406	n/a	n/a	0
740.2850000000	n/a	740285	NeuIncorrB3	1000	n/a	n/a	1
742.2850000000	n/a	742285	STATUS	1700	n/a	n/a	1
743.9850000000	n/a	743985	PenaltyB3	806	n/a	n/a	1
745.8680000000	n/a	745868	PunCorrB3	1000	n/a	n/a	1
747.8680000000	n/a	747868	STATUS	1700	n/a	n/a	1
749.5680000000	n/a	749568	PenaltyB3	827	n/a	n/a	1
751.4680000000	n/a	751468	NeuCorrB3	1000	n/a	n/a	1
753.4680000000	n/a	753468	STATUS	1700	n/a	n/a	1
755.1680000000	n/a	755168	PenaltyB3	631	n/a	n/a	1
756.8680000000	n/a	756868	NeuCorrB3	1000	n/a	n/a	1
758.8680000000	n/a	758868	STATUS	1700	n/a	n/a	1
760.5680000000	n/a	760568	PenaltyB3	613	n/a	n/a	1
762.2510000000	n/a	762251	NeuCorrB3	1000	n/a	n/a	1
764.2510000000	n/a	764251	STATUS	1700	n/a	n/a	1
765.9510000000	n/a	765951	RewardB3	463	n/a	n/a	0
767.4850000000	n/a	767485	NeuIncorrB3	1000	n/a	n/a	1
769.4850000000	n/a	769485	STATUS	1700	n/a	n/a	1
771.1850000000	n/a	771185	RewardB3	446	n/a	n/a	1
772.7010000000	n/a	772701	RewardCorrB3	1000	n/a	n/a	1
774.7010000000	n/a	774701	STATUS	1700	n/a	n/a	1
776.4010000000	n/a	776401	PenaltyB3	550	n/a	n/a	1
778.0180000000	n/a	778018	NeuCorrB3	1000	n/a	n/a	1
780.0180000000	n/a	780018	STATUS	1700	n/a	n/a	1
781.7180000000	n/a	781718	PenaltyB3	888	n/a	n/a	1
783.6680000000	n/a	783668	NeuCorrB3	1000	n/a	n/a	1
785.6680000000	n/a	785668	STATUS	1700	n/a	n/a	1
787.3680000000	n/a	787368	PenaltyB3	563	n/a	n/a	1
789.0010000000	n/a	789001	NeuCorrB3	1000	n/a	n/a	1
791.0010000000	n/a	791001	STATUS	1700	n/a	n/a	1
800.6680000000	n/a	800668	RewardB4	1211	n/a	n/a	1
802.9510000000	n/a	802951	RewardCorrB4	1000	n/a	n/a	1
804.9510000000	n/a	804951	STATUS	1700	n/a	n/a	1
806.6510000000	n/a	806651	PenaltyB4	853	n/a	n/a	1
808.5680000000	n/a	808568	PunCorrB4	1000	n/a	n/a	1
810.5680000000	n/a	810568	STATUS	1700	n/a	n/a	1
812.2680000000	n/a	812268	RewardB4	353	n/a	n/a	0
813.6850000000	n/a	813685	NeuIncorrB4	1000	n/a	n/a	1
815.6850000000	n/a	815685	STATUS	1700	n/a	n/a	1
817.3840000000	n/a	817384	PenaltyB4	703	n/a	n/a	0
819.1510000000	n/a	819151	PunIncorrB4	1000	n/a	n/a	1
821.1510000000	n/a	821151	STATUS	1700	n/a	n/a	1
822.8510000000	n/a	822851	RewardB4	446	n/a	n/a	1
824.3680000000	n/a	824368	RewardCorrB4	1000	n/a	n/a	1
826.3680000000	n/a	826368	STATUS	1700	n/a	n/a	1
828.0680000000	n/a	828068	PenaltyB4	740	n/a	n/a	1
829.8840000000	n/a	829884	PunCorrB4	1000	n/a	n/a	1
831.8850000000	n/a	831885	STATUS	1700	n/a	n/a	1
833.5840000000	n/a	833584	PenaltyB4	794	n/a	n/a	1
835.4510000000	n/a	835451	NeuCorrB4	1000	n/a	n/a	1
837.4510000000	n/a	837451	STATUS	1700	n/a	n/a	1
839.1510000000	n/a	839151	RewardB4	407	n/a	n/a	0
840.6340000000	n/a	840634	NeuIncorrB4	1000	n/a	n/a	1
842.6350000000	n/a	842635	STATUS	1700	n/a	n/a	1
844.3340000000	n/a	844334	PenaltyB4	708	n/a	n/a	1
846.1180000000	n/a	846118	NeuCorrB4	1000	n/a	n/a	1
848.1180000000	n/a	848118	STATUS	1700	n/a	n/a	1
849.8180000000	n/a	849818	RewardB4	478	n/a	n/a	1
851.3680000000	n/a	851368	NeuCorrB4	1000	n/a	n/a	1
853.3680000000	n/a	853368	STATUS	1700	n/a	n/a	1
855.0680000000	n/a	855068	PenaltyB4	740	n/a	n/a	0
856.8840000000	n/a	856884	PunIncorrB4	1000	n/a	n/a	1
858.8840000000	n/a	858884	STATUS	1700	n/a	n/a	1
860.5840000000	n/a	860584	RewardB4	539	n/a	n/a	0
862.2010000000	n/a	862201	NeuIncorrB4	1000	n/a	n/a	1
864.2010000000	n/a	864201	STATUS	1700	n/a	n/a	1
865.9010000000	n/a	865901	PenaltyB4	784	n/a	n/a	1
867.7510000000	n/a	867751	NeuCorrB4	1000	n/a	n/a	1
869.7510000000	n/a	869751	STATUS	1700	n/a	n/a	1
871.4510000000	n/a	871451	PenaltyB4	1044	n/a	n/a	1
873.5680000000	n/a	873568	NeuCorrB4	1000	n/a	n/a	1
875.5680000000	n/a	875568	STATUS	1700	n/a	n/a	1
877.2680000000	n/a	877268	RewardB4	352	n/a	n/a	1
878.6840000000	n/a	878684	RewardCorrB4	1000	n/a	n/a	1
880.6840000000	n/a	880684	STATUS	1700	n/a	n/a	1
882.3840000000	n/a	882384	RewardB4	366	n/a	n/a	1
883.8180000000	n/a	883818	NeuCorrB4	1000	n/a	n/a	1
885.8180000000	n/a	885818	STATUS	1700	n/a	n/a	1
887.5180000000	n/a	887518	RewardB4	423	n/a	n/a	0
889.0180000000	n/a	889018	NeuIncorrB4	1000	n/a	n/a	1
891.0180000000	n/a	891018	STATUS	1700	n/a	n/a	1
892.7180000000	n/a	892718	PenaltyB4	1466	n/a	n/a	1
895.2510000000	n/a	895251	NeuCorrB4	1000	n/a	n/a	1
897.2510000000	n/a	897251	STATUS	1700	n/a	n/a	1
898.9510000000	n/a	898951	PenaltyB4	671	n/a	n/a	1
900.6840000000	n/a	900684	NeuCorrB4	1000	n/a	n/a	1
902.6840000000	n/a	902684	STATUS	1700	n/a	n/a	1
904.3840000000	n/a	904384	PenaltyB4	812	n/a	n/a	1
906.2680000000	n/a	906268	PunCorrB4	1000	n/a	n/a	1
908.2680000000	n/a	908268	STATUS	1700	n/a	n/a	1
909.9680000000	n/a	909968	RewardB4	524	n/a	n/a	1
911.5680000000	n/a	911568	RewardCorrB4	1000	n/a	n/a	1
913.5680000000	n/a	913568	STATUS	1700	n/a	n/a	1
915.2680000000	n/a	915268	PenaltyB4	721	n/a	n/a	1
917.0510000000	n/a	917051	NeuCorrB4	1000	n/a	n/a	1
919.0510000000	n/a	919051	STATUS	1700	n/a	n/a	1
920.7510000000	n/a	920751	RewardB4	485	n/a	n/a	0
922.3010000000	n/a	922301	NeuIncorrB4	1000	n/a	n/a	1
924.3010000000	n/a	924301	STATUS	1700	n/a	n/a	1
926.0010000000	n/a	926001	PenaltyB4	609	n/a	n/a	0
927.6840000000	n/a	927684	PunIncorrB4	1000	n/a	n/a	1
929.6840000000	n/a	929684	STATUS	1700	n/a	n/a	1
931.3840000000	n/a	931384	RewardB4	416	n/a	n/a	0
932.8680000000	n/a	932868	RewIncorrB4	1000	n/a	n/a	1
934.8680000000	n/a	934868	STATUS	1700	n/a	n/a	1
936.5680000000	n/a	936568	PenaltyB4	542	n/a	n/a	1
938.1840000000	n/a	938184	NeuCorrB4	1000	n/a	n/a	1
940.1840000000	n/a	940184	STATUS	1700	n/a	n/a	1
941.8840000000	n/a	941884	RewardB4	420	n/a	n/a	0
943.3680000000	n/a	943368	NeuIncorrB4	1000	n/a	n/a	1
945.3680000000	n/a	945368	STATUS	1700	n/a	n/a	1
947.0680000000	n/a	947068	PenaltyB4	1061	n/a	n/a	1
949.2010000000	n/a	949201	NeuCorrB4	1000	n/a	n/a	1
951.2010000000	n/a	951201	STATUS	1700	n/a	n/a	1
952.9010000000	n/a	952901	RewardB4	484	n/a	n/a	1
954.4510000000	n/a	954451	RewardCorrB4	1000	n/a	n/a	1
956.4510000000	n/a	956451	STATUS	1700	n/a	n/a	1
958.1510000000	n/a	958151	PenaltyB4	547	n/a	n/a	1
959.7680000000	n/a	959768	PunCorrB4	1000	n/a	n/a	1
961.7680000000	n/a	961768	STATUS	1700	n/a	n/a	1
963.4680000000	n/a	963468	RewardB4	546	n/a	n/a	1
965.0840000000	n/a	965084	RewardCorrB4	1000	n/a	n/a	1
967.0840000000	n/a	967084	STATUS	1700	n/a	n/a	1
968.7840000000	n/a	968784	PenaltyB4	599	n/a	n/a	1
970.4510000000	n/a	970451	NeuCorrB4	1000	n/a	n/a	1
972.4510000000	n/a	972451	STATUS	1700	n/a	n/a	1
974.1510000000	n/a	974151	RewardB4	371	n/a	n/a	0
975.5840000000	n/a	975584	NeuIncorrB4	1000	n/a	n/a	1
977.5840000000	n/a	977584	STATUS	1700	n/a	n/a	1
979.2840000000	n/a	979284	PenaltyB4	1275	n/a	n/a	0
981.6340000000	n/a	981634	PunIncorrB4	1000	n/a	n/a	1
983.6340000000	n/a	983634	STATUS	1700	n/a	n/a	1
985.3340000000	n/a	985334	RewardB4	396	n/a	n/a	0
986.8010000000	n/a	986801	NeuIncorrB4	1000	n/a	n/a	1
988.8010000000	n/a	988801	STATUS	1700	n/a	n/a	1
990.5010000000	n/a	990501	PenaltyB4	739	n/a	n/a	1
992.3180000000	n/a	992318	NeuCorrB4	1000	n/a	n/a	1
994.3180000000	n/a	994318	STATUS	1700	n/a	n/a	1
996.0180000000	n/a	996018	RewardB4	313	n/a	n/a	0
997.4010000000	n/a	997401	RewIncorrB4	1000	n/a	n/a	1
999.4010000000	n/a	999401	STATUS	1700	n/a	n/a	1
1001.1010000000	n/a	1001101	RewardB4	457	n/a	n/a	1
1002.6340000000	n/a	1002634	RewardCorrB4	1000	n/a	n/a	1
1004.6340000000	n/a	1004634	STATUS	1700	n/a	n/a	1
1006.3340000000	n/a	1006334	PenaltyB4	610	n/a	n/a	1
1008.0170000000	n/a	1008017	NeuCorrB4	1000	n/a	n/a	1
1010.0180000000	n/a	1010018	STATUS	1700	n/a	n/a	1
1011.7170000000	n/a	1011717	RewardB4	412	n/a	n/a	1
1013.2010000000	n/a	1013201	RewardCorrB4	1000	n/a	n/a	1
1015.2010000000	n/a	1015201	STATUS	1700	n/a	n/a	1
1020.9510000000	n/a	1020951	STATUS	1700	n/a	n/a	1
