onset	duration	sample	trial_type	response_time	stim_file	value	correct
7.6620000000	n/a	7662	ignore	n/a	n/a	n/a	n/a
10.7620000000	n/a	10762	ignore	n/a	n/a	n/a	n/a
13.7670000000	n/a	13767	ignore	n/a	n/a	n/a	n/a
28.9290000000	n/a	28929	ignore	n/a	n/a	n/a	n/a
32.0290000000	n/a	32029	ignore	n/a	n/a	n/a	n/a
35.0160000000	n/a	35016	ignore	n/a	n/a	n/a	n/a
52.9290000000	n/a	52929	PosStim	n/a	n/a	n/a	n/a
55.9620000000	n/a	55962	PosNonAlcStimWithoutStartle	n/a	n/a	n/a	n/a
71.0450000000	n/a	71045	NegStim	n/a	n/a	n/a	n/a
74.0790000000	n/a	74079	NegNonAlcStimWithoutStartle	n/a	n/a	n/a	n/a
87.7290000000	n/a	87729	NeuStim	n/a	n/a	n/a	n/a
90.8290000000	n/a	90829	NeuNonAlcP2000	n/a	n/a	n/a	n/a
94.8160000000	n/a	94816	NeuNonAlcP2000	n/a	n/a	n/a	n/a
107.3620000000	n/a	107362	NegStim	n/a	n/a	n/a	n/a
110.4620000000	n/a	110462	NegAlcP2000	n/a	n/a	n/a	n/a
114.4490000000	n/a	114449	NegAlcP2000	n/a	n/a	n/a	n/a
125.0620000000	n/a	125062	NeuStim	n/a	n/a	n/a	n/a
128.0950000000	n/a	128095	NeuAlcStimWithoutStartle	n/a	n/a	n/a	n/a
143.3620000000	n/a	143362	PosStim	n/a	n/a	n/a	n/a
146.4620000000	n/a	146462	PosAlcP1000	n/a	n/a	n/a	n/a
151.4490000000	n/a	151449	PosAlcP1000	n/a	n/a	n/a	n/a
160.6620000000	n/a	160662	NeuStim	n/a	n/a	n/a	n/a
163.7620000000	n/a	163762	NeuAlcP2000	n/a	n/a	n/a	n/a
167.7490000000	n/a	167749	NeuAlcP2000	n/a	n/a	n/a	n/a
179.8280000000	n/a	179828	NegStim	n/a	n/a	n/a	n/a
182.9280000000	n/a	182928	NegAlcP3000	n/a	n/a	n/a	n/a
185.9150000000	n/a	185915	NegAlcP3000	n/a	n/a	n/a	n/a
198.9950000000	n/a	198995	PosStim	n/a	n/a	n/a	n/a
202.0280000000	n/a	202028	PosNonAlcStimWithoutStartle	n/a	n/a	n/a	n/a
218.7620000000	n/a	218762	NeuStim	n/a	n/a	n/a	n/a
221.8620000000	n/a	221862	NeuAlcP1000	n/a	n/a	n/a	n/a
226.8490000000	n/a	226849	NeuAlcP1000	n/a	n/a	n/a	n/a
235.9120000000	n/a	235912	NegStim	n/a	n/a	n/a	n/a
239.0120000000	n/a	239012	NegNonAlcP3000	n/a	n/a	n/a	n/a
241.9990000000	n/a	241999	NegNonAlcP3000	n/a	n/a	n/a	n/a
253.0780000000	n/a	253078	PosStim	n/a	n/a	n/a	n/a
256.1780000000	n/a	256178	PosAlcP2000	n/a	n/a	n/a	n/a
260.1650000000	n/a	260165	PosAlcP2000	n/a	n/a	n/a	n/a
270.4780000000	n/a	270478	NegStim	n/a	n/a	n/a	n/a
273.5120000000	n/a	273512	NegNonAlcStimWithoutStartle	n/a	n/a	n/a	n/a
288.0780000000	n/a	288078	PosStim	n/a	n/a	n/a	n/a
291.1120000000	n/a	291112	PosAlcStimWithoutStartle	n/a	n/a	n/a	n/a
306.4780000000	n/a	306478	NeuStim	n/a	n/a	n/a	n/a
309.5780000000	n/a	309578	NeuNonAlcP3000	n/a	n/a	n/a	n/a
312.5650000000	n/a	312565	NeuNonAlcP3000	n/a	n/a	n/a	n/a
325.5620000000	n/a	325562	NegStim	n/a	n/a	n/a	n/a
328.6620000000	n/a	328662	NegAlcP1000	n/a	n/a	n/a	n/a
333.6490000000	n/a	333649	NegAlcP1000	n/a	n/a	n/a	n/a
343.9950000000	n/a	343995	NeuStim	n/a	n/a	n/a	n/a
347.0950000000	n/a	347095	NeuAlcP3000	n/a	n/a	n/a	n/a
350.0820000000	n/a	350082	NeuAlcP3000	n/a	n/a	n/a	n/a
360.4450000000	n/a	360445	PosStim	n/a	n/a	n/a	n/a
363.5450000000	n/a	363545	PosAlcP3000	n/a	n/a	n/a	n/a
366.5320000000	n/a	366532	PosAlcP3000	n/a	n/a	n/a	n/a
378.2280000000	n/a	378228	NeuStim	n/a	n/a	n/a	n/a
381.2610000000	n/a	381261	NeuAlcStimWithoutStartle	n/a	n/a	n/a	n/a
397.0950000000	n/a	397095	NegStim	n/a	n/a	n/a	n/a
400.1950000000	n/a	400195	NegAlcP1000	n/a	n/a	n/a	n/a
405.1820000000	n/a	405182	NegAlcP1000	n/a	n/a	n/a	n/a
416.8780000000	n/a	416878	NeuStim	n/a	n/a	n/a	n/a
419.9780000000	n/a	419978	NeuNonAlcP3000	n/a	n/a	n/a	n/a
422.9650000000	n/a	422965	NeuNonAlcP3000	n/a	n/a	n/a	n/a
435.8950000000	n/a	435895	NegStim	n/a	n/a	n/a	n/a
438.9950000000	n/a	438995	NegNonAlcP2000	n/a	n/a	n/a	n/a
442.9820000000	n/a	442982	NegNonAlcP2000	n/a	n/a	n/a	n/a
453.8450000000	n/a	453845	PosStim	n/a	n/a	n/a	n/a
456.8780000000	n/a	456878	PosNonAlcStimWithoutStartle	n/a	n/a	n/a	n/a
473.4610000000	n/a	473461	NeuStim	n/a	n/a	n/a	n/a
476.4950000000	n/a	476495	NeuNonAlcStimWithoutStartle	n/a	n/a	n/a	n/a
492.9280000000	n/a	492928	PosStim	n/a	n/a	n/a	n/a
496.0280000000	n/a	496028	PosNonAlcP1000	n/a	n/a	n/a	n/a
501.0150000000	n/a	501015	PosNonAlcP1000	n/a	n/a	n/a	n/a
513.0110000000	n/a	513011	NegStim	n/a	n/a	n/a	n/a
516.0450000000	n/a	516045	NegAlcStimWithoutStartle	n/a	n/a	n/a	n/a
530.8940000000	n/a	530894	NeuStim	n/a	n/a	n/a	n/a
533.9940000000	n/a	533994	NeuAlcP2000	n/a	n/a	n/a	n/a
537.9820000000	n/a	537982	NeuAlcP2000	n/a	n/a	n/a	n/a
547.6110000000	n/a	547611	PosStim	n/a	n/a	n/a	n/a
550.7110000000	n/a	550711	PosNonAlcP1000	n/a	n/a	n/a	n/a
555.6980000000	n/a	555698	PosNonAlcP1000	n/a	n/a	n/a	n/a
564.4110000000	n/a	564411	NeuStim	n/a	n/a	n/a	n/a
567.5110000000	n/a	567511	NeuNonAlcP1000	n/a	n/a	n/a	n/a
572.4980000000	n/a	572498	NeuNonAlcP1000	n/a	n/a	n/a	n/a
581.7110000000	n/a	581711	PosStim	n/a	n/a	n/a	n/a
584.7440000000	n/a	584744	PosNonAlcStimWithoutStartle	n/a	n/a	n/a	n/a
600.1610000000	n/a	600161	NegStim	n/a	n/a	n/a	n/a
603.2610000000	n/a	603261	NegAlcP2000	n/a	n/a	n/a	n/a
607.2480000000	n/a	607248	NegAlcP2000	n/a	n/a	n/a	n/a
617.5440000000	n/a	617544	NeuStim	n/a	n/a	n/a	n/a
620.6440000000	n/a	620644	NeuAlcP3000	n/a	n/a	n/a	n/a
623.6310000000	n/a	623631	NeuAlcP3000	n/a	n/a	n/a	n/a
636.3110000000	n/a	636311	NegStim	n/a	n/a	n/a	n/a
639.3440000000	n/a	639344	NegAlcStimWithoutStartle	n/a	n/a	n/a	n/a
654.3440000000	n/a	654344	NeuStim	n/a	n/a	n/a	n/a
657.4440000000	n/a	657444	NeuNonAlcP2000	n/a	n/a	n/a	n/a
661.4310000000	n/a	661431	NeuNonAlcP2000	n/a	n/a	n/a	n/a
673.8610000000	n/a	673861	PosStim	n/a	n/a	n/a	n/a
676.9610000000	n/a	676961	PosNonAlcP3000	n/a	n/a	n/a	n/a
679.9480000000	n/a	679948	PosNonAlcP3000	n/a	n/a	n/a	n/a
691.0280000000	n/a	691028	NegStim	n/a	n/a	n/a	n/a
694.1280000000	n/a	694128	NegAlcP3000	n/a	n/a	n/a	n/a
697.1150000000	n/a	697115	NegAlcP3000	n/a	n/a	n/a	n/a
710.8940000000	n/a	710894	PosStim	n/a	n/a	n/a	n/a
713.9270000000	n/a	713927	PosAlcStimWithoutStartle	n/a	n/a	n/a	n/a
730.2770000000	n/a	730277	NegStim	n/a	n/a	n/a	n/a
733.3770000000	n/a	733377	NegAlcP1000	n/a	n/a	n/a	n/a
738.3640000000	n/a	738364	NegAlcP1000	n/a	n/a	n/a	n/a
750.0270000000	n/a	750027	PosStim	n/a	n/a	n/a	n/a
753.0610000000	n/a	753061	PosAlcStimWithoutStartle	n/a	n/a	n/a	n/a
766.8610000000	n/a	766861	NegStim	n/a	n/a	n/a	n/a
769.9610000000	n/a	769961	NegNonAlcP2000	n/a	n/a	n/a	n/a
773.9480000000	n/a	773948	NegNonAlcP2000	n/a	n/a	n/a	n/a
786.4110000000	n/a	786411	PosStim	n/a	n/a	n/a	n/a
789.5110000000	n/a	789511	PosAlcP2000	n/a	n/a	n/a	n/a
793.4980000000	n/a	793498	PosAlcP2000	n/a	n/a	n/a	n/a
805.0110000000	n/a	805011	NeuStim	n/a	n/a	n/a	n/a
808.0440000000	n/a	808044	NeuNonAlcStimWithoutStartle	n/a	n/a	n/a	n/a
823.6940000000	n/a	823694	PosStim	n/a	n/a	n/a	n/a
826.7940000000	n/a	826794	PosNonAlcP2000	n/a	n/a	n/a	n/a
830.7810000000	n/a	830781	PosNonAlcP2000	n/a	n/a	n/a	n/a
841.6440000000	n/a	841644	NegStim	n/a	n/a	n/a	n/a
844.6770000000	n/a	844677	NegAlcStimWithoutStartle	n/a	n/a	n/a	n/a
861.7110000000	n/a	861711	PosStim	n/a	n/a	n/a	n/a
864.8110000000	n/a	864811	PosAlcP3000	n/a	n/a	n/a	n/a
867.7980000000	n/a	867798	PosAlcP3000	n/a	n/a	n/a	n/a
881.5940000000	n/a	881594	PosStim	n/a	n/a	n/a	n/a
884.6940000000	n/a	884694	PosNonAlcP3000	n/a	n/a	n/a	n/a
887.6810000000	n/a	887681	PosNonAlcP3000	n/a	n/a	n/a	n/a
900.7270000000	n/a	900727	NeuStim	n/a	n/a	n/a	n/a
903.7600000000	n/a	903760	NeuNonAlcStimWithoutStartle	n/a	n/a	n/a	n/a
920.3440000000	n/a	920344	NeuStim	n/a	n/a	n/a	n/a
923.4440000000	n/a	923444	NeuNonAlcP3000	n/a	n/a	n/a	n/a
926.4310000000	n/a	926431	NeuNonAlcP3000	n/a	n/a	n/a	n/a
940.4100000000	n/a	940410	PosStim	n/a	n/a	n/a	n/a
943.5100000000	n/a	943510	PosAlcP2000	n/a	n/a	n/a	n/a
947.4970000000	n/a	947497	PosAlcP2000	n/a	n/a	n/a	n/a
960.4600000000	n/a	960460	NegStim	n/a	n/a	n/a	n/a
963.5600000000	n/a	963560	NegAlcP1000	n/a	n/a	n/a	n/a
968.5470000000	n/a	968547	NegAlcP1000	n/a	n/a	n/a	n/a
977.5440000000	n/a	977544	PosStim	n/a	n/a	n/a	n/a
980.6440000000	n/a	980644	PosNonAlcP2000	n/a	n/a	n/a	n/a
984.6310000000	n/a	984631	PosNonAlcP2000	n/a	n/a	n/a	n/a
997.6770000000	n/a	997677	NeuStim	n/a	n/a	n/a	n/a
1000.7100000000	n/a	1000710	NeuNonAlcStimWithoutStartle	n/a	n/a	n/a	n/a
1016.6440000000	n/a	1016644	NegStim	n/a	n/a	n/a	n/a
1019.7440000000	n/a	1019744	NegAlcP2000	n/a	n/a	n/a	n/a
1023.7310000000	n/a	1023731	NegAlcP2000	n/a	n/a	n/a	n/a
1033.2100000000	n/a	1033210	PosStim	n/a	n/a	n/a	n/a
1036.3100000000	n/a	1036310	PosAlcP3000	n/a	n/a	n/a	n/a
1039.2970000000	n/a	1039297	PosAlcP3000	n/a	n/a	n/a	n/a
1053.0940000000	n/a	1053094	NeuStim	n/a	n/a	n/a	n/a
1056.1270000000	n/a	1056127	NeuAlcStimWithoutStartle	n/a	n/a	n/a	n/a
1069.4100000000	n/a	1069410	NegStim	n/a	n/a	n/a	n/a
1072.5100000000	n/a	1072510	NegNonAlcP3000	n/a	n/a	n/a	n/a
1075.4970000000	n/a	1075497	NegNonAlcP3000	n/a	n/a	n/a	n/a
