onset	duration	sample	trial_type	response_time	stim_file	value	correct
3.2490000000	n/a	3249	FrequentFixedSOA	1633	n/a	n/a	1
4.8820000000	n/a	4882	FrequentFixedSOA	1633	n/a	n/a	1
6.5150000000	n/a	6515	FrequentFixedSOA	1633	n/a	n/a	1
8.1480000000	n/a	8148	FrequentFixedSOA	1633	n/a	n/a	1
9.7820000000	n/a	9782	FrequentFixedSOA	1633	n/a	n/a	1
11.4150000000	n/a	11415	FrequentFixedSOA	1633	n/a	n/a	1
13.0480000000	n/a	13048	FrequentFixedSOA	1633	n/a	n/a	1
14.6820000000	n/a	14682	FrequentFixedSOA	1633	n/a	n/a	1
16.3150000000	n/a	16315	FrequentFixedSOA	1633	n/a	n/a	1
17.9480000000	n/a	17948	FrequentFixedSOA	1633	n/a	n/a	1
19.5820000000	n/a	19582	NovelFixedSOA	292	n/a	n/a	0
21.2150000000	n/a	21215	FrequentFixedSOA	1633	n/a	n/a	1
22.8480000000	n/a	22848	GoFixedSOA	299	n/a	n/a	1
24.4820000000	n/a	24482	FrequentFixedSOA	1633	n/a	n/a	1
26.1150000000	n/a	26115	FrequentFixedSOA	1633	n/a	n/a	1
27.7480000000	n/a	27748	FrequentFixedSOA	1633	n/a	n/a	1
29.3820000000	n/a	29382	GoFixedSOA	278	n/a	n/a	1
31.0150000000	n/a	31015	FrequentFixedSOA	1633	n/a	n/a	1
32.6480000000	n/a	32648	FrequentFixedSOA	1633	n/a	n/a	1
34.2820000000	n/a	34282	FrequentFixedSOA	1633	n/a	n/a	1
35.9150000000	n/a	35915	NovelFixedSOA	1633	n/a	n/a	1
37.5480000000	n/a	37548	FrequentFixedSOA	1633	n/a	n/a	1
39.1820000000	n/a	39182	FrequentFixedSOA	1633	n/a	n/a	1
40.8150000000	n/a	40815	FrequentFixedSOA	1633	n/a	n/a	1
42.4480000000	n/a	42448	GoFixedSOA	286	n/a	n/a	1
44.0820000000	n/a	44082	FrequentFixedSOA	1633	n/a	n/a	1
45.7150000000	n/a	45715	NovelFixedSOA	1633	n/a	n/a	1
47.3480000000	n/a	47348	FrequentFixedSOA	1633	n/a	n/a	1
48.9820000000	n/a	48982	FrequentFixedSOA	1633	n/a	n/a	1
50.6150000000	n/a	50615	FrequentFixedSOA	1633	n/a	n/a	1
52.2480000000	n/a	52248	GoFixedSOA	283	n/a	n/a	1
53.8820000000	n/a	53882	FrequentFixedSOA	1633	n/a	n/a	1
55.5150000000	n/a	55515	GoFixedSOA	279	n/a	n/a	1
57.1480000000	n/a	57148	FrequentFixedSOA	1633	n/a	n/a	1
58.7820000000	n/a	58782	FrequentFixedSOA	1633	n/a	n/a	1
60.4150000000	n/a	60415	GoFixedSOA	285	n/a	n/a	1
62.0480000000	n/a	62048	FrequentFixedSOA	1633	n/a	n/a	1
63.6820000000	n/a	63682	FrequentFixedSOA	1633	n/a	n/a	1
65.3150000000	n/a	65315	FrequentFixedSOA	1633	n/a	n/a	1
66.9480000000	n/a	66948	FrequentFixedSOA	1633	n/a	n/a	1
68.5820000000	n/a	68582	NovelFixedSOA	1633	n/a	n/a	1
70.2150000000	n/a	70215	FrequentFixedSOA	1633	n/a	n/a	1
71.8480000000	n/a	71848	NovelFixedSOA	1633	n/a	n/a	1
73.4820000000	n/a	73482	FrequentFixedSOA	1633	n/a	n/a	1
75.1150000000	n/a	75115	FrequentFixedSOA	1633	n/a	n/a	1
76.7480000000	n/a	76748	GoFixedSOA	291	n/a	n/a	1
78.3820000000	n/a	78382	FrequentFixedSOA	1633	n/a	n/a	1
80.0150000000	n/a	80015	FrequentFixedSOA	1633	n/a	n/a	1
81.6480000000	n/a	81648	FrequentFixedSOA	1633	n/a	n/a	1
83.2820000000	n/a	83282	FrequentFixedSOA	1633	n/a	n/a	1
84.9150000000	n/a	84915	NovelFixedSOA	1633	n/a	n/a	1
86.5480000000	n/a	86548	FrequentFixedSOA	1633	n/a	n/a	1
88.1820000000	n/a	88182	FrequentFixedSOA	1633	n/a	n/a	1
89.8150000000	n/a	89815	FrequentFixedSOA	1633	n/a	n/a	1
91.4480000000	n/a	91448	FrequentFixedSOA	1633	n/a	n/a	1
93.0820000000	n/a	93082	GoFixedSOA	259	n/a	n/a	1
94.7150000000	n/a	94715	FrequentFixedSOA	1633	n/a	n/a	1
96.3480000000	n/a	96348	FrequentFixedSOA	1633	n/a	n/a	1
97.9820000000	n/a	97982	NovelFixedSOA	1633	n/a	n/a	1
99.6150000000	n/a	99615	FrequentFixedSOA	1633	n/a	n/a	1
101.2480000000	n/a	101248	FrequentFixedSOA	1633	n/a	n/a	1
102.8820000000	n/a	102882	GoFixedSOA	284	n/a	n/a	1
104.5150000000	n/a	104515	FrequentFixedSOA	1633	n/a	n/a	1
106.1480000000	n/a	106148	FrequentFixedSOA	1633	n/a	n/a	1
107.7820000000	n/a	107782	FrequentFixedSOA	1633	n/a	n/a	1
109.4150000000	n/a	109415	FrequentFixedSOA	1633	n/a	n/a	1
111.0480000000	n/a	111048	NovelFixedSOA	1633	n/a	n/a	1
112.6820000000	n/a	112682	FrequentFixedSOA	1633	n/a	n/a	1
114.3150000000	n/a	114315	FrequentFixedSOA	1633	n/a	n/a	1
115.9480000000	n/a	115948	GoFixedSOA	260	n/a	n/a	1
117.5820000000	n/a	117582	FrequentVariableSOA	1633	n/a	n/a	1
119.2150000000	n/a	119215	FrequentVariableSOA	1633	n/a	n/a	1
120.8480000000	n/a	120848	FrequentVariableSOA	1566	n/a	n/a	1
122.4150000000	n/a	122415	FrequentVariableSOA	1600	n/a	n/a	1
124.0150000000	n/a	124015	FrequentVariableSOA	1766	n/a	n/a	1
125.7820000000	n/a	125782	FrequentVariableSOA	1583	n/a	n/a	1
127.3650000000	n/a	127365	FrequentVariableSOA	1500	n/a	n/a	1
128.8650000000	n/a	128865	FrequentVariableSOA	1800	n/a	n/a	1
130.6650000000	n/a	130665	FrequentVariableSOA	1700	n/a	n/a	1
132.3650000000	n/a	132365	FrequentVariableSOA	1650	n/a	n/a	1
134.0150000000	n/a	134015	NovelVariableSOA	1800	n/a	n/a	1
135.8150000000	n/a	135815	FrequentVariableSOA	1733	n/a	n/a	1
137.5480000000	n/a	137548	GoVariableSOA	303	n/a	n/a	1
139.0820000000	n/a	139082	FrequentVariableSOA	1733	n/a	n/a	1
140.8150000000	n/a	140815	FrequentVariableSOA	1550	n/a	n/a	1
142.3650000000	n/a	142365	FrequentVariableSOA	1700	n/a	n/a	1
144.0650000000	n/a	144065	GoVariableSOA	271	n/a	n/a	1
145.6480000000	n/a	145648	FrequentVariableSOA	1666	n/a	n/a	1
147.3150000000	n/a	147315	FrequentVariableSOA	1783	n/a	n/a	1
149.0980000000	n/a	149098	FrequentVariableSOA	1616	n/a	n/a	1
150.7150000000	n/a	150715	NovelVariableSOA	1600	n/a	n/a	1
152.3150000000	n/a	152315	FrequentVariableSOA	1616	n/a	n/a	1
153.9310000000	n/a	153931	FrequentVariableSOA	1616	n/a	n/a	1
155.5480000000	n/a	155548	FrequentVariableSOA	1783	n/a	n/a	1
157.3310000000	n/a	157331	GoVariableSOA	211	n/a	n/a	1
158.9480000000	n/a	158948	FrequentVariableSOA	1733	n/a	n/a	1
160.6810000000	n/a	160681	NovelVariableSOA	1650	n/a	n/a	1
162.3310000000	n/a	162331	FrequentVariableSOA	1783	n/a	n/a	1
164.1150000000	n/a	164115	FrequentVariableSOA	1616	n/a	n/a	1
165.7310000000	n/a	165731	FrequentVariableSOA	1683	n/a	n/a	1
167.4150000000	n/a	167415	GoVariableSOA	218	n/a	n/a	1
169.1980000000	n/a	169198	FrequentVariableSOA	1600	n/a	n/a	1
170.7980000000	n/a	170798	GoVariableSOA	453	n/a	n/a	1
172.5810000000	n/a	172581	FrequentVariableSOA	1533	n/a	n/a	1
174.1150000000	n/a	174115	FrequentVariableSOA	1550	n/a	n/a	1
175.6650000000	n/a	175665	GoVariableSOA	283	n/a	n/a	1
177.2810000000	n/a	177281	FrequentVariableSOA	1766	n/a	n/a	1
179.0480000000	n/a	179048	FrequentVariableSOA	1633	n/a	n/a	1
180.6810000000	n/a	180681	FrequentVariableSOA	1566	n/a	n/a	1
182.2480000000	n/a	182248	FrequentVariableSOA	1533	n/a	n/a	1
183.7810000000	n/a	183781	NovelVariableSOA	1800	n/a	n/a	1
185.5810000000	n/a	185581	FrequentVariableSOA	1683	n/a	n/a	1
187.2650000000	n/a	187265	NovelVariableSOA	1700	n/a	n/a	1
188.9650000000	n/a	188965	FrequentVariableSOA	1633	n/a	n/a	1
190.5980000000	n/a	190598	FrequentVariableSOA	1533	n/a	n/a	1
192.1310000000	n/a	192131	GoVariableSOA	330	n/a	n/a	1
193.9310000000	n/a	193931	FrequentVariableSOA	1650	n/a	n/a	1
195.5810000000	n/a	195581	FrequentVariableSOA	1716	n/a	n/a	1
197.2980000000	n/a	197298	FrequentVariableSOA	1733	n/a	n/a	1
199.0310000000	n/a	199031	FrequentVariableSOA	1683	n/a	n/a	1
200.7150000000	n/a	200715	NovelVariableSOA	1766	n/a	n/a	1
202.4810000000	n/a	202481	FrequentVariableSOA	1650	n/a	n/a	1
204.1310000000	n/a	204131	FrequentVariableSOA	1766	n/a	n/a	1
205.8980000000	n/a	205898	FrequentVariableSOA	1783	n/a	n/a	1
207.6810000000	n/a	207681	FrequentVariableSOA	1566	n/a	n/a	1
209.2480000000	n/a	209248	GoVariableSOA	298	n/a	n/a	1
210.9310000000	n/a	210931	FrequentVariableSOA	1600	n/a	n/a	1
212.5310000000	n/a	212531	FrequentVariableSOA	1550	n/a	n/a	1
214.0810000000	n/a	214081	NovelVariableSOA	1516	n/a	n/a	1
215.5980000000	n/a	215598	FrequentVariableSOA	1566	n/a	n/a	1
217.1650000000	n/a	217165	FrequentVariableSOA	1700	n/a	n/a	1
218.8650000000	n/a	218865	GoVariableSOA	296	n/a	n/a	1
220.5150000000	n/a	220515	FrequentVariableSOA	1500	n/a	n/a	1
222.0150000000	n/a	222015	FrequentVariableSOA	1683	n/a	n/a	1
223.6980000000	n/a	223698	FrequentVariableSOA	1533	n/a	n/a	1
225.2310000000	n/a	225231	FrequentVariableSOA	1583	n/a	n/a	1
226.8150000000	n/a	226815	NovelVariableSOA	1700	n/a	n/a	1
228.5150000000	n/a	228515	FrequentVariableSOA	1516	n/a	n/a	1
230.0310000000	n/a	230031	FrequentVariableSOA	1633	n/a	n/a	1
231.6650000000	n/a	231665	GoVariableSOA	291	n/a	n/a	1
233.4150000000	n/a	233415	FrequentFixedSOA	1633	n/a	n/a	1
235.0480000000	n/a	235048	FrequentFixedSOA	1633	n/a	n/a	1
236.6810000000	n/a	236681	FrequentFixedSOA	1633	n/a	n/a	1
238.3150000000	n/a	238315	GoFixedSOA	255	n/a	n/a	1
239.9480000000	n/a	239948	FrequentFixedSOA	1633	n/a	n/a	1
241.5810000000	n/a	241581	FrequentFixedSOA	1633	n/a	n/a	1
243.2150000000	n/a	243215	FrequentFixedSOA	1633	n/a	n/a	1
244.8480000000	n/a	244848	GoFixedSOA	273	n/a	n/a	1
246.4810000000	n/a	246481	FrequentFixedSOA	1633	n/a	n/a	1
248.1150000000	n/a	248115	FrequentFixedSOA	1633	n/a	n/a	1
249.7480000000	n/a	249748	FrequentFixedSOA	1633	n/a	n/a	1
251.3810000000	n/a	251381	NovelFixedSOA	1633	n/a	n/a	1
253.0150000000	n/a	253015	FrequentFixedSOA	1633	n/a	n/a	1
254.6480000000	n/a	254648	NovelFixedSOA	1633	n/a	n/a	1
256.2810000000	n/a	256281	FrequentFixedSOA	1633	n/a	n/a	1
257.9150000000	n/a	257915	FrequentFixedSOA	1633	n/a	n/a	1
259.5480000000	n/a	259548	NovelFixedSOA	1633	n/a	n/a	1
261.1810000000	n/a	261181	FrequentFixedSOA	1633	n/a	n/a	1
262.8150000000	n/a	262815	FrequentFixedSOA	1633	n/a	n/a	1
264.4480000000	n/a	264448	FrequentFixedSOA	1633	n/a	n/a	1
266.0810000000	n/a	266081	FrequentFixedSOA	1633	n/a	n/a	1
267.7150000000	n/a	267715	FrequentFixedSOA	1633	n/a	n/a	1
269.3480000000	n/a	269348	NovelFixedSOA	1633	n/a	n/a	1
270.9810000000	n/a	270981	FrequentFixedSOA	1633	n/a	n/a	1
272.6150000000	n/a	272615	FrequentFixedSOA	1633	n/a	n/a	1
274.2480000000	n/a	274248	FrequentFixedSOA	1633	n/a	n/a	1
275.8810000000	n/a	275881	FrequentFixedSOA	1633	n/a	n/a	1
277.5150000000	n/a	277515	FrequentFixedSOA	1633	n/a	n/a	1
279.1480000000	n/a	279148	GoFixedSOA	223	n/a	n/a	1
280.7810000000	n/a	280781	FrequentFixedSOA	1633	n/a	n/a	1
282.4150000000	n/a	282415	FrequentFixedSOA	1633	n/a	n/a	1
284.0480000000	n/a	284048	GoFixedSOA	275	n/a	n/a	1
285.6810000000	n/a	285681	FrequentFixedSOA	1633	n/a	n/a	1
287.3150000000	n/a	287315	NovelFixedSOA	1633	n/a	n/a	1
288.9480000000	n/a	288948	FrequentFixedSOA	1633	n/a	n/a	1
290.5810000000	n/a	290581	GoFixedSOA	247	n/a	n/a	1
292.2150000000	n/a	292215	FrequentFixedSOA	1633	n/a	n/a	1
293.8480000000	n/a	293848	GoFixedSOA	241	n/a	n/a	1
295.4810000000	n/a	295481	FrequentFixedSOA	1633	n/a	n/a	1
297.1150000000	n/a	297115	FrequentFixedSOA	1633	n/a	n/a	1
298.7480000000	n/a	298748	FrequentFixedSOA	1633	n/a	n/a	1
300.3810000000	n/a	300381	FrequentFixedSOA	1633	n/a	n/a	1
302.0150000000	n/a	302015	GoFixedSOA	301	n/a	n/a	1
303.6480000000	n/a	303648	FrequentFixedSOA	1633	n/a	n/a	1
305.2810000000	n/a	305281	FrequentFixedSOA	1633	n/a	n/a	1
306.9150000000	n/a	306915	FrequentFixedSOA	1633	n/a	n/a	1
308.5480000000	n/a	308548	NovelFixedSOA	1633	n/a	n/a	1
310.1810000000	n/a	310181	FrequentFixedSOA	1633	n/a	n/a	1
311.8150000000	n/a	311815	FrequentFixedSOA	1633	n/a	n/a	1
313.4480000000	n/a	313448	FrequentFixedSOA	1633	n/a	n/a	1
315.0810000000	n/a	315081	FrequentFixedSOA	1633	n/a	n/a	1
316.7150000000	n/a	316715	NovelFixedSOA	1633	n/a	n/a	1
318.3480000000	n/a	318348	FrequentFixedSOA	1633	n/a	n/a	1
319.9810000000	n/a	319981	FrequentFixedSOA	1633	n/a	n/a	1
321.6150000000	n/a	321615	FrequentFixedSOA	1633	n/a	n/a	1
323.2480000000	n/a	323248	FrequentFixedSOA	1633	n/a	n/a	1
324.8810000000	n/a	324881	NovelFixedSOA	1633	n/a	n/a	1
326.5150000000	n/a	326515	FrequentFixedSOA	1633	n/a	n/a	1
328.1480000000	n/a	328148	FrequentFixedSOA	1633	n/a	n/a	1
329.7810000000	n/a	329781	GoFixedSOA	241	n/a	n/a	1
331.4150000000	n/a	331415	FrequentFixedSOA	1633	n/a	n/a	1
333.0480000000	n/a	333048	FrequentFixedSOA	1633	n/a	n/a	1
334.6810000000	n/a	334681	FrequentFixedSOA	1633	n/a	n/a	1
336.3140000000	n/a	336314	FrequentFixedSOA	1633	n/a	n/a	1
337.9480000000	n/a	337948	NovelFixedSOA	1633	n/a	n/a	1
339.5810000000	n/a	339581	FrequentFixedSOA	1633	n/a	n/a	1
341.2140000000	n/a	341214	FrequentFixedSOA	1633	n/a	n/a	1
342.8480000000	n/a	342848	FrequentFixedSOA	1633	n/a	n/a	1
344.4810000000	n/a	344481	FrequentFixedSOA	1633	n/a	n/a	1
346.1140000000	n/a	346114	FrequentFixedSOA	1633	n/a	n/a	1
347.7480000000	n/a	347748	FrequentVariableSOA	1800	n/a	n/a	1
349.5480000000	n/a	349548	FrequentVariableSOA	1800	n/a	n/a	1
351.3480000000	n/a	351348	FrequentVariableSOA	1683	n/a	n/a	1
353.0310000000	n/a	353031	GoVariableSOA	286	n/a	n/a	1
354.5310000000	n/a	354531	FrequentVariableSOA	1600	n/a	n/a	1
356.1310000000	n/a	356131	FrequentVariableSOA	1750	n/a	n/a	1
357.8810000000	n/a	357881	FrequentVariableSOA	1583	n/a	n/a	1
359.4640000000	n/a	359464	GoVariableSOA	289	n/a	n/a	1
361.0480000000	n/a	361048	FrequentVariableSOA	1583	n/a	n/a	1
362.6310000000	n/a	362631	FrequentVariableSOA	1600	n/a	n/a	1
364.2310000000	n/a	364231	FrequentVariableSOA	1550	n/a	n/a	1
365.7810000000	n/a	365781	NovelVariableSOA	1750	n/a	n/a	1
367.5310000000	n/a	367531	FrequentVariableSOA	1750	n/a	n/a	1
369.2810000000	n/a	369281	NovelVariableSOA	1700	n/a	n/a	1
370.9810000000	n/a	370981	FrequentVariableSOA	1700	n/a	n/a	1
372.6810000000	n/a	372681	FrequentVariableSOA	1633	n/a	n/a	1
374.3140000000	n/a	374314	NovelVariableSOA	1683	n/a	n/a	1
375.9980000000	n/a	375998	FrequentVariableSOA	1766	n/a	n/a	1
377.7640000000	n/a	377764	FrequentVariableSOA	1533	n/a	n/a	1
379.2980000000	n/a	379298	FrequentVariableSOA	1700	n/a	n/a	1
380.9980000000	n/a	380998	FrequentVariableSOA	1500	n/a	n/a	1
382.4980000000	n/a	382498	FrequentVariableSOA	1716	n/a	n/a	1
384.2140000000	n/a	384214	NovelVariableSOA	1733	n/a	n/a	1
385.9480000000	n/a	385948	FrequentVariableSOA	1533	n/a	n/a	1
387.4810000000	n/a	387481	FrequentVariableSOA	1700	n/a	n/a	1
389.1810000000	n/a	389181	FrequentVariableSOA	1600	n/a	n/a	1
390.7810000000	n/a	390781	FrequentVariableSOA	1683	n/a	n/a	1
392.4640000000	n/a	392464	FrequentVariableSOA	1766	n/a	n/a	1
394.2310000000	n/a	394231	GoVariableSOA	293	n/a	n/a	1
395.8140000000	n/a	395814	FrequentVariableSOA	1616	n/a	n/a	1
397.4310000000	n/a	397431	FrequentVariableSOA	1666	n/a	n/a	1
399.0980000000	n/a	399098	GoVariableSOA	274	n/a	n/a	1
400.8310000000	n/a	400831	FrequentVariableSOA	1616	n/a	n/a	1
402.4480000000	n/a	402448	NovelVariableSOA	1666	n/a	n/a	1
404.1140000000	n/a	404114	FrequentVariableSOA	1783	n/a	n/a	1
405.8980000000	n/a	405898	GoVariableSOA	275	n/a	n/a	1
407.5480000000	n/a	407548	FrequentVariableSOA	1716	n/a	n/a	1
409.2640000000	n/a	409264	GoVariableSOA	274	n/a	n/a	1
410.8480000000	n/a	410848	FrequentVariableSOA	1800	n/a	n/a	1
412.6480000000	n/a	412648	FrequentVariableSOA	1550	n/a	n/a	1
414.1980000000	n/a	414198	FrequentVariableSOA	1633	n/a	n/a	1
415.8310000000	n/a	415831	FrequentVariableSOA	1750	n/a	n/a	1
417.5810000000	n/a	417581	GoVariableSOA	268	n/a	n/a	1
419.3640000000	n/a	419364	FrequentVariableSOA	1533	n/a	n/a	1
420.8980000000	n/a	420898	FrequentVariableSOA	1800	n/a	n/a	1
422.6980000000	n/a	422698	FrequentVariableSOA	1716	n/a	n/a	1
424.4140000000	n/a	424414	NovelVariableSOA	1633	n/a	n/a	1
426.0480000000	n/a	426048	FrequentVariableSOA	1666	n/a	n/a	1
427.7140000000	n/a	427714	FrequentVariableSOA	1666	n/a	n/a	1
429.3810000000	n/a	429381	FrequentVariableSOA	1716	n/a	n/a	1
431.0980000000	n/a	431098	FrequentVariableSOA	1616	n/a	n/a	1
432.7140000000	n/a	432714	NovelVariableSOA	1733	n/a	n/a	1
434.4480000000	n/a	434448	FrequentVariableSOA	1583	n/a	n/a	1
436.0310000000	n/a	436031	FrequentVariableSOA	1500	n/a	n/a	1
437.5310000000	n/a	437531	FrequentVariableSOA	1650	n/a	n/a	1
439.1810000000	n/a	439181	FrequentVariableSOA	1700	n/a	n/a	1
440.8810000000	n/a	440881	NovelVariableSOA	1650	n/a	n/a	1
442.5310000000	n/a	442531	FrequentVariableSOA	1600	n/a	n/a	1
444.1310000000	n/a	444131	FrequentVariableSOA	1650	n/a	n/a	1
445.7810000000	n/a	445781	GoVariableSOA	262	n/a	n/a	1
447.3140000000	n/a	447314	FrequentVariableSOA	1750	n/a	n/a	1
449.0640000000	n/a	449064	FrequentVariableSOA	1766	n/a	n/a	1
450.8310000000	n/a	450831	FrequentVariableSOA	1766	n/a	n/a	1
452.5980000000	n/a	452598	FrequentVariableSOA	1600	n/a	n/a	1
454.1980000000	n/a	454198	NovelVariableSOA	1683	n/a	n/a	1
455.8810000000	n/a	455881	FrequentVariableSOA	1716	n/a	n/a	1
457.5980000000	n/a	457598	FrequentVariableSOA	1733	n/a	n/a	1
459.3310000000	n/a	459331	FrequentVariableSOA	1516	n/a	n/a	1
460.8480000000	n/a	460848	FrequentVariableSOA	1800	n/a	n/a	1
462.6480000000	n/a	462648	FrequentVariableSOA	1666	n/a	n/a	1
464.3140000000	n/a	464314	GoFixedSOA	347	n/a	n/a	1
465.9480000000	n/a	465948	FrequentFixedSOA	1633	n/a	n/a	1
467.5810000000	n/a	467581	FrequentFixedSOA	1633	n/a	n/a	1
469.2140000000	n/a	469214	FrequentFixedSOA	1633	n/a	n/a	1
470.8480000000	n/a	470848	FrequentFixedSOA	1633	n/a	n/a	1
472.4810000000	n/a	472481	FrequentFixedSOA	1633	n/a	n/a	1
474.1140000000	n/a	474114	FrequentFixedSOA	1633	n/a	n/a	1
475.7480000000	n/a	475748	NovelFixedSOA	1633	n/a	n/a	1
477.3810000000	n/a	477381	FrequentFixedSOA	1633	n/a	n/a	1
479.0140000000	n/a	479014	FrequentFixedSOA	1633	n/a	n/a	1
480.6480000000	n/a	480648	FrequentFixedSOA	1633	n/a	n/a	1
482.2810000000	n/a	482281	NovelFixedSOA	1633	n/a	n/a	1
483.9140000000	n/a	483914	FrequentFixedSOA	1633	n/a	n/a	1
485.5480000000	n/a	485548	GoFixedSOA	301	n/a	n/a	1
487.1810000000	n/a	487181	FrequentFixedSOA	1633	n/a	n/a	1
488.8140000000	n/a	488814	FrequentFixedSOA	1633	n/a	n/a	1
490.4480000000	n/a	490448	GoFixedSOA	208	n/a	n/a	1
492.0810000000	n/a	492081	FrequentFixedSOA	1633	n/a	n/a	1
493.7140000000	n/a	493714	NovelFixedSOA	1633	n/a	n/a	1
495.3480000000	n/a	495348	FrequentFixedSOA	1633	n/a	n/a	1
496.9810000000	n/a	496981	FrequentFixedSOA	1633	n/a	n/a	1
498.6140000000	n/a	498614	FrequentFixedSOA	1633	n/a	n/a	1
500.2480000000	n/a	500248	FrequentFixedSOA	1633	n/a	n/a	1
501.8810000000	n/a	501881	FrequentFixedSOA	1633	n/a	n/a	1
503.5140000000	n/a	503514	GoFixedSOA	217	n/a	n/a	1
505.1480000000	n/a	505148	FrequentFixedSOA	1633	n/a	n/a	1
506.7810000000	n/a	506781	FrequentFixedSOA	1633	n/a	n/a	1
508.4140000000	n/a	508414	NovelFixedSOA	1633	n/a	n/a	1
510.0480000000	n/a	510048	FrequentFixedSOA	1633	n/a	n/a	1
511.6810000000	n/a	511681	FrequentFixedSOA	1633	n/a	n/a	1
513.3140000000	n/a	513314	FrequentFixedSOA	1633	n/a	n/a	1
514.9480000000	n/a	514948	FrequentFixedSOA	1633	n/a	n/a	1
516.5810000000	n/a	516581	FrequentFixedSOA	1633	n/a	n/a	1
518.2140000000	n/a	518214	NovelFixedSOA	1633	n/a	n/a	1
519.8470000000	n/a	519847	FrequentFixedSOA	1633	n/a	n/a	1
521.4810000000	n/a	521481	FrequentFixedSOA	1633	n/a	n/a	1
523.1140000000	n/a	523114	FrequentFixedSOA	1633	n/a	n/a	1
524.7470000000	n/a	524747	FrequentFixedSOA	1633	n/a	n/a	1
526.3810000000	n/a	526381	GoFixedSOA	331	n/a	n/a	1
528.0140000000	n/a	528014	FrequentFixedSOA	1633	n/a	n/a	1
529.6470000000	n/a	529647	FrequentFixedSOA	1633	n/a	n/a	1
531.2810000000	n/a	531281	NovelFixedSOA	1633	n/a	n/a	1
532.9140000000	n/a	532914	FrequentFixedSOA	1633	n/a	n/a	1
534.5470000000	n/a	534547	FrequentFixedSOA	1633	n/a	n/a	1
536.1810000000	n/a	536181	NovelFixedSOA	1633	n/a	n/a	1
537.8140000000	n/a	537814	FrequentFixedSOA	1633	n/a	n/a	1
539.4470000000	n/a	539447	FrequentFixedSOA	1633	n/a	n/a	1
541.0810000000	n/a	541081	FrequentFixedSOA	1633	n/a	n/a	1
542.7140000000	n/a	542714	FrequentFixedSOA	1633	n/a	n/a	1
544.3470000000	n/a	544347	FrequentFixedSOA	1633	n/a	n/a	1
545.9810000000	n/a	545981	GoFixedSOA	295	n/a	n/a	1
547.6140000000	n/a	547614	FrequentFixedSOA	1633	n/a	n/a	1
549.2470000000	n/a	549247	FrequentFixedSOA	1633	n/a	n/a	1
550.8810000000	n/a	550881	FrequentFixedSOA	1633	n/a	n/a	1
552.5140000000	n/a	552514	FrequentFixedSOA	1633	n/a	n/a	1
554.1470000000	n/a	554147	FrequentFixedSOA	1633	n/a	n/a	1
555.7810000000	n/a	555781	NovelFixedSOA	1633	n/a	n/a	1
557.4140000000	n/a	557414	FrequentFixedSOA	1633	n/a	n/a	1
559.0470000000	n/a	559047	GoFixedSOA	286	n/a	n/a	1
560.6810000000	n/a	560681	FrequentFixedSOA	1633	n/a	n/a	1
562.3140000000	n/a	562314	FrequentFixedSOA	1633	n/a	n/a	1
563.9470000000	n/a	563947	FrequentFixedSOA	1633	n/a	n/a	1
565.5810000000	n/a	565581	FrequentFixedSOA	1633	n/a	n/a	1
567.2140000000	n/a	567214	FrequentFixedSOA	1633	n/a	n/a	1
568.8470000000	n/a	568847	FrequentFixedSOA	1633	n/a	n/a	1
570.4810000000	n/a	570481	FrequentFixedSOA	1633	n/a	n/a	1
572.1140000000	n/a	572114	FrequentFixedSOA	1633	n/a	n/a	1
573.7470000000	n/a	573747	NovelFixedSOA	1633	n/a	n/a	1
575.3810000000	n/a	575381	FrequentFixedSOA	1633	n/a	n/a	1
577.0140000000	n/a	577014	FrequentFixedSOA	1633	n/a	n/a	1
578.6470000000	n/a	578647	GoVariableSOA	316	n/a	n/a	1
580.2140000000	n/a	580214	FrequentVariableSOA	1700	n/a	n/a	1
581.9140000000	n/a	581914	FrequentVariableSOA	1516	n/a	n/a	1
583.4310000000	n/a	583431	FrequentVariableSOA	1616	n/a	n/a	1
585.0470000000	n/a	585047	FrequentVariableSOA	1733	n/a	n/a	1
586.7810000000	n/a	586781	FrequentVariableSOA	1716	n/a	n/a	1
588.4970000000	n/a	588497	FrequentVariableSOA	1800	n/a	n/a	1
590.2970000000	n/a	590297	NovelVariableSOA	1766	n/a	n/a	1
592.0640000000	n/a	592064	FrequentVariableSOA	1783	n/a	n/a	1
593.8470000000	n/a	593847	FrequentVariableSOA	1716	n/a	n/a	1
595.5640000000	n/a	595564	FrequentVariableSOA	1583	n/a	n/a	1
597.1470000000	n/a	597147	NovelVariableSOA	1750	n/a	n/a	1
598.8970000000	n/a	598897	FrequentVariableSOA	1800	n/a	n/a	1
600.6970000000	n/a	600697	GoVariableSOA	281	n/a	n/a	1
602.2140000000	n/a	602214	FrequentVariableSOA	1616	n/a	n/a	1
603.8310000000	n/a	603831	FrequentVariableSOA	1783	n/a	n/a	1
605.6140000000	n/a	605614	GoVariableSOA	274	n/a	n/a	1
607.1640000000	n/a	607164	FrequentVariableSOA	1550	n/a	n/a	1
608.7140000000	n/a	608714	NovelVariableSOA	1500	n/a	n/a	1
610.2140000000	n/a	610214	FrequentVariableSOA	1550	n/a	n/a	1
611.7640000000	n/a	611764	FrequentVariableSOA	1533	n/a	n/a	1
613.2970000000	n/a	613297	FrequentVariableSOA	1533	n/a	n/a	1
614.8310000000	n/a	614831	FrequentVariableSOA	1733	n/a	n/a	1
616.5640000000	n/a	616564	FrequentVariableSOA	1666	n/a	n/a	1
618.2310000000	n/a	618231	GoVariableSOA	290	n/a	n/a	1
619.7470000000	n/a	619747	FrequentVariableSOA	1583	n/a	n/a	1
621.3310000000	n/a	621331	FrequentVariableSOA	1750	n/a	n/a	1
623.0810000000	n/a	623081	NovelVariableSOA	1550	n/a	n/a	1
624.6310000000	n/a	624631	FrequentVariableSOA	1533	n/a	n/a	1
626.1640000000	n/a	626164	FrequentVariableSOA	1783	n/a	n/a	1
627.9470000000	n/a	627947	FrequentVariableSOA	1733	n/a	n/a	1
629.6810000000	n/a	629681	FrequentVariableSOA	1716	n/a	n/a	1
631.3970000000	n/a	631397	FrequentVariableSOA	1750	n/a	n/a	1
633.1470000000	n/a	633147	NovelVariableSOA	1650	n/a	n/a	1
634.7970000000	n/a	634797	FrequentVariableSOA	1516	n/a	n/a	1
636.3140000000	n/a	636314	FrequentVariableSOA	1533	n/a	n/a	1
637.8470000000	n/a	637847	FrequentVariableSOA	1666	n/a	n/a	1
639.5140000000	n/a	639514	FrequentVariableSOA	1783	n/a	n/a	1
641.2970000000	n/a	641297	GoVariableSOA	320	n/a	n/a	1
642.8140000000	n/a	642814	FrequentVariableSOA	1733	n/a	n/a	1
644.5470000000	n/a	644547	FrequentVariableSOA	1666	n/a	n/a	1
646.2140000000	n/a	646214	NovelVariableSOA	1766	n/a	n/a	1
647.9810000000	n/a	647981	FrequentVariableSOA	1783	n/a	n/a	1
649.7640000000	n/a	649764	FrequentVariableSOA	1766	n/a	n/a	1
651.5310000000	n/a	651531	NovelVariableSOA	1533	n/a	n/a	1
653.0640000000	n/a	653064	FrequentVariableSOA	1600	n/a	n/a	1
654.6640000000	n/a	654664	FrequentVariableSOA	1550	n/a	n/a	1
656.2140000000	n/a	656214	FrequentVariableSOA	1783	n/a	n/a	1
657.9970000000	n/a	657997	FrequentVariableSOA	1516	n/a	n/a	1
659.5140000000	n/a	659514	FrequentVariableSOA	1533	n/a	n/a	1
661.0470000000	n/a	661047	GoVariableSOA	334	n/a	n/a	1
662.7810000000	n/a	662781	FrequentVariableSOA	1616	n/a	n/a	1
664.3970000000	n/a	664397	FrequentVariableSOA	1533	n/a	n/a	1
665.9310000000	n/a	665931	FrequentVariableSOA	1616	n/a	n/a	1
667.5470000000	n/a	667547	FrequentVariableSOA	1516	n/a	n/a	1
669.0640000000	n/a	669064	FrequentVariableSOA	1683	n/a	n/a	1
670.7470000000	n/a	670747	NovelVariableSOA	1600	n/a	n/a	1
672.3470000000	n/a	672347	FrequentVariableSOA	1750	n/a	n/a	1
674.0970000000	n/a	674097	GoVariableSOA	303	n/a	n/a	1
675.6640000000	n/a	675664	FrequentVariableSOA	1650	n/a	n/a	1
677.3140000000	n/a	677314	FrequentVariableSOA	1583	n/a	n/a	1
678.8970000000	n/a	678897	FrequentVariableSOA	1650	n/a	n/a	1
680.5470000000	n/a	680547	FrequentVariableSOA	1616	n/a	n/a	1
682.1640000000	n/a	682164	FrequentVariableSOA	1616	n/a	n/a	1
683.7810000000	n/a	683781	FrequentVariableSOA	1650	n/a	n/a	1
685.4310000000	n/a	685431	FrequentVariableSOA	1516	n/a	n/a	1
686.9470000000	n/a	686947	FrequentVariableSOA	1683	n/a	n/a	1
688.6310000000	n/a	688631	NovelVariableSOA	1783	n/a	n/a	1
690.4140000000	n/a	690414	FrequentVariableSOA	1683	n/a	n/a	1
692.0970000000	n/a	692097	FrequentVariableSOA	1600	n/a	n/a	1
693.6970000000	n/a	693697	GoFixedSOA	312	n/a	n/a	1
695.3310000000	n/a	695331	FrequentFixedSOA	1633	n/a	n/a	1
696.9640000000	n/a	696964	FrequentFixedSOA	1633	n/a	n/a	1
698.5970000000	n/a	698597	FrequentFixedSOA	1633	n/a	n/a	1
700.2310000000	n/a	700231	GoFixedSOA	334	n/a	n/a	1
701.8640000000	n/a	701864	FrequentFixedSOA	1633	n/a	n/a	1
703.4970000000	n/a	703497	FrequentFixedSOA	1633	n/a	n/a	1
705.1300000000	n/a	705130	FrequentFixedSOA	1633	n/a	n/a	1
706.7640000000	n/a	706764	FrequentFixedSOA	1633	n/a	n/a	1
708.3970000000	n/a	708397	GoFixedSOA	287	n/a	n/a	1
710.0300000000	n/a	710030	FrequentFixedSOA	1633	n/a	n/a	1
711.6640000000	n/a	711664	FrequentFixedSOA	1633	n/a	n/a	1
713.2970000000	n/a	713297	NovelFixedSOA	1633	n/a	n/a	1
714.9300000000	n/a	714930	FrequentFixedSOA	1633	n/a	n/a	1
716.5640000000	n/a	716564	FrequentFixedSOA	1633	n/a	n/a	1
718.1970000000	n/a	718197	GoFixedSOA	302	n/a	n/a	1
719.8300000000	n/a	719830	FrequentFixedSOA	1633	n/a	n/a	1
721.4640000000	n/a	721464	FrequentFixedSOA	1633	n/a	n/a	1
723.0970000000	n/a	723097	FrequentFixedSOA	1633	n/a	n/a	1
724.7300000000	n/a	724730	NovelFixedSOA	1633	n/a	n/a	1
726.3640000000	n/a	726364	FrequentFixedSOA	1633	n/a	n/a	1
727.9970000000	n/a	727997	NovelFixedSOA	1633	n/a	n/a	1
729.6300000000	n/a	729630	FrequentFixedSOA	1633	n/a	n/a	1
731.2640000000	n/a	731264	FrequentFixedSOA	1633	n/a	n/a	1
732.8970000000	n/a	732897	FrequentFixedSOA	1633	n/a	n/a	1
734.5300000000	n/a	734530	GoFixedSOA	250	n/a	n/a	1
736.1640000000	n/a	736164	FrequentFixedSOA	1633	n/a	n/a	1
737.7970000000	n/a	737797	FrequentFixedSOA	1633	n/a	n/a	1
739.4300000000	n/a	739430	FrequentFixedSOA	1633	n/a	n/a	1
741.0640000000	n/a	741064	GoFixedSOA	254	n/a	n/a	1
742.6970000000	n/a	742697	FrequentFixedSOA	1633	n/a	n/a	1
744.3300000000	n/a	744330	FrequentFixedSOA	1633	n/a	n/a	1
745.9640000000	n/a	745964	NovelFixedSOA	1633	n/a	n/a	1
747.5970000000	n/a	747597	FrequentFixedSOA	1633	n/a	n/a	1
749.2300000000	n/a	749230	GoFixedSOA	282	n/a	n/a	1
750.8640000000	n/a	750864	FrequentFixedSOA	1633	n/a	n/a	1
752.4970000000	n/a	752497	FrequentFixedSOA	1633	n/a	n/a	1
754.1300000000	n/a	754130	FrequentFixedSOA	1633	n/a	n/a	1
755.7640000000	n/a	755764	FrequentFixedSOA	1633	n/a	n/a	1
757.3970000000	n/a	757397	FrequentFixedSOA	1633	n/a	n/a	1
759.0300000000	n/a	759030	FrequentFixedSOA	1633	n/a	n/a	1
760.6640000000	n/a	760664	NovelFixedSOA	1633	n/a	n/a	1
762.2970000000	n/a	762297	FrequentFixedSOA	1633	n/a	n/a	1
763.9300000000	n/a	763930	FrequentFixedSOA	1633	n/a	n/a	1
765.5640000000	n/a	765564	FrequentFixedSOA	1633	n/a	n/a	1
767.1970000000	n/a	767197	GoFixedSOA	301	n/a	n/a	1
768.8300000000	n/a	768830	FrequentFixedSOA	1633	n/a	n/a	1
770.4640000000	n/a	770464	FrequentFixedSOA	1633	n/a	n/a	1
772.0970000000	n/a	772097	FrequentFixedSOA	1633	n/a	n/a	1
773.7300000000	n/a	773730	FrequentFixedSOA	1633	n/a	n/a	1
775.3640000000	n/a	775364	NovelFixedSOA	1633	n/a	n/a	1
776.9970000000	n/a	776997	FrequentFixedSOA	1633	n/a	n/a	1
778.6300000000	n/a	778630	FrequentFixedSOA	1633	n/a	n/a	1
780.2640000000	n/a	780264	NovelFixedSOA	1633	n/a	n/a	1
781.8970000000	n/a	781897	FrequentFixedSOA	1633	n/a	n/a	1
783.5300000000	n/a	783530	NovelFixedSOA	1633	n/a	n/a	1
785.1640000000	n/a	785164	FrequentFixedSOA	1633	n/a	n/a	1
786.7970000000	n/a	786797	FrequentFixedSOA	1633	n/a	n/a	1
788.4300000000	n/a	788430	FrequentFixedSOA	1633	n/a	n/a	1
790.0640000000	n/a	790064	FrequentFixedSOA	1633	n/a	n/a	1
791.6970000000	n/a	791697	FrequentFixedSOA	1633	n/a	n/a	1
793.3300000000	n/a	793330	FrequentFixedSOA	1633	n/a	n/a	1
794.9640000000	n/a	794964	FrequentFixedSOA	1633	n/a	n/a	1
796.5970000000	n/a	796597	GoFixedSOA	353	n/a	n/a	1
798.2300000000	n/a	798230	FrequentFixedSOA	1633	n/a	n/a	1
799.8640000000	n/a	799864	GoFixedSOA	324	n/a	n/a	1
801.4970000000	n/a	801497	FrequentFixedSOA	1633	n/a	n/a	1
803.1300000000	n/a	803130	FrequentFixedSOA	1633	n/a	n/a	1
804.7640000000	n/a	804764	NovelFixedSOA	1633	n/a	n/a	1
806.3970000000	n/a	806397	FrequentFixedSOA	1633	n/a	n/a	1
808.0300000000	n/a	808030	GoVariableSOA	286	n/a	n/a	1
809.8140000000	n/a	809814	FrequentVariableSOA	1616	n/a	n/a	1
811.4300000000	n/a	811430	FrequentVariableSOA	1633	n/a	n/a	1
813.0640000000	n/a	813064	FrequentVariableSOA	1733	n/a	n/a	1
814.7970000000	n/a	814797	GoVariableSOA	278	n/a	n/a	1
816.5300000000	n/a	816530	FrequentVariableSOA	1683	n/a	n/a	1
818.2140000000	n/a	818214	FrequentVariableSOA	1550	n/a	n/a	1
819.7640000000	n/a	819764	FrequentVariableSOA	1633	n/a	n/a	1
821.3970000000	n/a	821397	FrequentVariableSOA	1566	n/a	n/a	1
822.9640000000	n/a	822964	GoVariableSOA	280	n/a	n/a	1
824.6640000000	n/a	824664	FrequentVariableSOA	1566	n/a	n/a	1
826.2300000000	n/a	826230	FrequentVariableSOA	1716	n/a	n/a	1
827.9470000000	n/a	827947	NovelVariableSOA	1616	n/a	n/a	1
829.5640000000	n/a	829564	FrequentVariableSOA	1650	n/a	n/a	1
831.2140000000	n/a	831214	FrequentVariableSOA	1600	n/a	n/a	1
832.8140000000	n/a	832814	GoVariableSOA	307	n/a	n/a	1
834.4800000000	n/a	834480	FrequentVariableSOA	1583	n/a	n/a	1
836.0640000000	n/a	836064	FrequentVariableSOA	1750	n/a	n/a	1
837.8140000000	n/a	837814	FrequentVariableSOA	1716	n/a	n/a	1
839.5300000000	n/a	839530	NovelVariableSOA	1533	n/a	n/a	1
841.0640000000	n/a	841064	FrequentVariableSOA	1783	n/a	n/a	1
842.8470000000	n/a	842847	NovelVariableSOA	1616	n/a	n/a	1
844.4640000000	n/a	844464	FrequentVariableSOA	1766	n/a	n/a	1
846.2300000000	n/a	846230	FrequentVariableSOA	1550	n/a	n/a	1
847.7800000000	n/a	847780	FrequentVariableSOA	1666	n/a	n/a	1
849.4470000000	n/a	849447	GoVariableSOA	339	n/a	n/a	1
851.0800000000	n/a	851080	FrequentVariableSOA	1650	n/a	n/a	1
852.7300000000	n/a	852730	FrequentVariableSOA	1616	n/a	n/a	1
854.3470000000	n/a	854347	FrequentVariableSOA	1750	n/a	n/a	1
856.0970000000	n/a	856097	GoVariableSOA	267	n/a	n/a	1
857.8470000000	n/a	857847	FrequentVariableSOA	1633	n/a	n/a	1
859.4800000000	n/a	859480	FrequentVariableSOA	1666	n/a	n/a	1
861.1470000000	n/a	861147	NovelVariableSOA	1766	n/a	n/a	1
862.9140000000	n/a	862914	FrequentVariableSOA	1550	n/a	n/a	1
864.4640000000	n/a	864464	GoVariableSOA	326	n/a	n/a	1
866.1300000000	n/a	866130	FrequentVariableSOA	1733	n/a	n/a	1
867.8640000000	n/a	867864	FrequentVariableSOA	1800	n/a	n/a	1
869.6640000000	n/a	869664	FrequentVariableSOA	1633	n/a	n/a	1
871.2970000000	n/a	871297	FrequentVariableSOA	1783	n/a	n/a	1
873.0800000000	n/a	873080	FrequentVariableSOA	1650	n/a	n/a	1
874.7300000000	n/a	874730	FrequentVariableSOA	1650	n/a	n/a	1
876.3800000000	n/a	876380	NovelVariableSOA	1600	n/a	n/a	1
877.9800000000	n/a	877980	FrequentVariableSOA	1616	n/a	n/a	1
879.5970000000	n/a	879597	FrequentVariableSOA	1766	n/a	n/a	1
881.3640000000	n/a	881364	FrequentVariableSOA	1633	n/a	n/a	1
882.9970000000	n/a	882997	GoVariableSOA	312	n/a	n/a	1
884.7470000000	n/a	884747	FrequentVariableSOA	1783	n/a	n/a	1
886.5300000000	n/a	886530	FrequentVariableSOA	1566	n/a	n/a	1
888.0970000000	n/a	888097	FrequentVariableSOA	1616	n/a	n/a	1
889.7130000000	n/a	889713	FrequentVariableSOA	1583	n/a	n/a	1
891.2970000000	n/a	891297	NovelVariableSOA	1550	n/a	n/a	1
892.8470000000	n/a	892847	FrequentVariableSOA	1700	n/a	n/a	1
894.5470000000	n/a	894547	FrequentVariableSOA	1616	n/a	n/a	1
896.1630000000	n/a	896163	NovelVariableSOA	1550	n/a	n/a	1
897.7130000000	n/a	897713	FrequentVariableSOA	1716	n/a	n/a	1
899.4300000000	n/a	899430	NovelVariableSOA	1683	n/a	n/a	1
901.1130000000	n/a	901113	FrequentVariableSOA	1683	n/a	n/a	1
902.7970000000	n/a	902797	FrequentVariableSOA	1583	n/a	n/a	1
904.3800000000	n/a	904380	FrequentVariableSOA	1533	n/a	n/a	1
905.9130000000	n/a	905913	FrequentVariableSOA	1566	n/a	n/a	1
907.4800000000	n/a	907480	FrequentVariableSOA	1750	n/a	n/a	1
909.2300000000	n/a	909230	FrequentVariableSOA	1683	n/a	n/a	1
910.9130000000	n/a	910913	FrequentVariableSOA	1766	n/a	n/a	1
912.6800000000	n/a	912680	GoVariableSOA	271	n/a	n/a	1
914.3130000000	n/a	914313	FrequentVariableSOA	1733	n/a	n/a	1
916.0470000000	n/a	916047	GoVariableSOA	392	n/a	n/a	1
917.8300000000	n/a	917830	FrequentVariableSOA	1700	n/a	n/a	1
919.5300000000	n/a	919530	FrequentVariableSOA	1716	n/a	n/a	1
921.2470000000	n/a	921247	NovelVariableSOA	1766	n/a	n/a	1
923.0130000000	n/a	923013	FrequentVariableSOA	1733	n/a	n/a	1
