onset	duration	sample	trial_type	response_time	stim_file	value	correct
3.3180000000	n/a	3318	FrequentFixedSOA	1633	n/a	n/a	1
4.9510000000	n/a	4951	FrequentFixedSOA	1633	n/a	n/a	1
6.5850000000	n/a	6585	FrequentFixedSOA	1633	n/a	n/a	1
8.2180000000	n/a	8218	FrequentFixedSOA	1633	n/a	n/a	1
9.8510000000	n/a	9851	FrequentFixedSOA	1633	n/a	n/a	1
11.4850000000	n/a	11485	FrequentFixedSOA	1633	n/a	n/a	1
13.1180000000	n/a	13118	FrequentFixedSOA	1633	n/a	n/a	1
14.7510000000	n/a	14751	FrequentFixedSOA	1633	n/a	n/a	1
16.3850000000	n/a	16385	FrequentFixedSOA	1633	n/a	n/a	1
18.0180000000	n/a	18018	FrequentFixedSOA	1633	n/a	n/a	1
19.6510000000	n/a	19651	NovelFixedSOA	1633	n/a	n/a	1
21.2850000000	n/a	21285	FrequentFixedSOA	1633	n/a	n/a	1
22.9180000000	n/a	22918	GoFixedSOA	610	n/a	n/a	1
24.5510000000	n/a	24551	FrequentFixedSOA	1633	n/a	n/a	1
26.1850000000	n/a	26185	FrequentFixedSOA	1633	n/a	n/a	1
27.8180000000	n/a	27818	FrequentFixedSOA	1633	n/a	n/a	1
29.4510000000	n/a	29451	GoFixedSOA	394	n/a	n/a	1
31.0850000000	n/a	31085	FrequentFixedSOA	1633	n/a	n/a	1
32.7180000000	n/a	32718	FrequentFixedSOA	1633	n/a	n/a	1
34.3510000000	n/a	34351	FrequentFixedSOA	1633	n/a	n/a	1
35.9850000000	n/a	35985	NovelFixedSOA	1633	n/a	n/a	1
37.6180000000	n/a	37618	FrequentFixedSOA	1633	n/a	n/a	1
39.2510000000	n/a	39251	FrequentFixedSOA	1633	n/a	n/a	1
40.8850000000	n/a	40885	FrequentFixedSOA	1633	n/a	n/a	1
42.5180000000	n/a	42518	GoFixedSOA	428	n/a	n/a	1
44.1510000000	n/a	44151	FrequentFixedSOA	1633	n/a	n/a	1
45.7850000000	n/a	45785	NovelFixedSOA	1633	n/a	n/a	1
47.4180000000	n/a	47418	FrequentFixedSOA	1633	n/a	n/a	1
49.0510000000	n/a	49051	FrequentFixedSOA	1633	n/a	n/a	1
50.6850000000	n/a	50685	FrequentFixedSOA	1633	n/a	n/a	1
52.3180000000	n/a	52318	GoFixedSOA	378	n/a	n/a	1
53.9510000000	n/a	53951	FrequentFixedSOA	1633	n/a	n/a	1
55.5850000000	n/a	55585	GoFixedSOA	393	n/a	n/a	1
57.2180000000	n/a	57218	FrequentFixedSOA	1633	n/a	n/a	1
58.8510000000	n/a	58851	FrequentFixedSOA	1633	n/a	n/a	1
60.4850000000	n/a	60485	GoFixedSOA	439	n/a	n/a	1
62.1180000000	n/a	62118	FrequentFixedSOA	1633	n/a	n/a	1
63.7510000000	n/a	63751	FrequentFixedSOA	1633	n/a	n/a	1
65.3850000000	n/a	65385	FrequentFixedSOA	1633	n/a	n/a	1
67.0180000000	n/a	67018	FrequentFixedSOA	1633	n/a	n/a	1
68.6510000000	n/a	68651	NovelFixedSOA	1633	n/a	n/a	1
70.2840000000	n/a	70284	FrequentFixedSOA	1633	n/a	n/a	1
71.9180000000	n/a	71918	NovelFixedSOA	1633	n/a	n/a	1
73.5510000000	n/a	73551	FrequentFixedSOA	1633	n/a	n/a	1
75.1840000000	n/a	75184	FrequentFixedSOA	1633	n/a	n/a	1
76.8180000000	n/a	76818	GoFixedSOA	367	n/a	n/a	1
78.4510000000	n/a	78451	FrequentFixedSOA	1633	n/a	n/a	1
80.0840000000	n/a	80084	FrequentFixedSOA	1633	n/a	n/a	1
81.7180000000	n/a	81718	FrequentFixedSOA	1633	n/a	n/a	1
83.3510000000	n/a	83351	FrequentFixedSOA	1633	n/a	n/a	1
84.9840000000	n/a	84984	NovelFixedSOA	1633	n/a	n/a	1
86.6180000000	n/a	86618	FrequentFixedSOA	1633	n/a	n/a	1
88.2510000000	n/a	88251	FrequentFixedSOA	1633	n/a	n/a	1
89.8840000000	n/a	89884	FrequentFixedSOA	1633	n/a	n/a	1
91.5180000000	n/a	91518	FrequentFixedSOA	1633	n/a	n/a	1
93.1510000000	n/a	93151	GoFixedSOA	324	n/a	n/a	1
94.7840000000	n/a	94784	FrequentFixedSOA	1633	n/a	n/a	1
96.4180000000	n/a	96418	FrequentFixedSOA	1633	n/a	n/a	1
98.0510000000	n/a	98051	NovelFixedSOA	1633	n/a	n/a	1
99.6840000000	n/a	99684	FrequentFixedSOA	1633	n/a	n/a	1
101.3180000000	n/a	101318	FrequentFixedSOA	1633	n/a	n/a	1
102.9510000000	n/a	102951	GoFixedSOA	321	n/a	n/a	1
104.5840000000	n/a	104584	FrequentFixedSOA	1633	n/a	n/a	1
106.2180000000	n/a	106218	FrequentFixedSOA	1633	n/a	n/a	1
107.8510000000	n/a	107851	FrequentFixedSOA	1633	n/a	n/a	1
109.4840000000	n/a	109484	FrequentFixedSOA	1633	n/a	n/a	1
111.1180000000	n/a	111118	NovelFixedSOA	1633	n/a	n/a	1
112.7510000000	n/a	112751	FrequentFixedSOA	1633	n/a	n/a	1
114.3840000000	n/a	114384	FrequentFixedSOA	1633	n/a	n/a	1
116.0180000000	n/a	116018	GoFixedSOA	314	n/a	n/a	1
117.6510000000	n/a	117651	FrequentFixedSOA	1766	n/a	n/a	1
119.4180000000	n/a	119418	FrequentFixedSOA	1533	n/a	n/a	1
120.9510000000	n/a	120951	FrequentFixedSOA	1616	n/a	n/a	1
122.5680000000	n/a	122568	FrequentFixedSOA	1766	n/a	n/a	1
124.3340000000	n/a	124334	FrequentFixedSOA	1650	n/a	n/a	1
125.9840000000	n/a	125984	FrequentFixedSOA	1616	n/a	n/a	1
127.6010000000	n/a	127601	FrequentFixedSOA	1666	n/a	n/a	1
129.2680000000	n/a	129268	FrequentFixedSOA	1516	n/a	n/a	1
130.7840000000	n/a	130784	FrequentFixedSOA	1566	n/a	n/a	1
132.3510000000	n/a	132351	FrequentFixedSOA	1733	n/a	n/a	1
134.0840000000	n/a	134084	NovelVariableSOA	1516	n/a	n/a	1
135.6010000000	n/a	135601	FrequentFixedSOA	1600	n/a	n/a	1
137.2010000000	n/a	137201	GoVariableSOA	349	n/a	n/a	1
138.9340000000	n/a	138934	FrequentFixedSOA	1666	n/a	n/a	1
140.6010000000	n/a	140601	FrequentFixedSOA	1783	n/a	n/a	1
142.3840000000	n/a	142384	FrequentFixedSOA	1633	n/a	n/a	1
144.0180000000	n/a	144018	GoVariableSOA	369	n/a	n/a	1
145.8180000000	n/a	145818	FrequentFixedSOA	1766	n/a	n/a	1
147.5840000000	n/a	147584	FrequentFixedSOA	1683	n/a	n/a	1
149.2680000000	n/a	149268	FrequentFixedSOA	1516	n/a	n/a	1
150.7840000000	n/a	150784	NovelVariableSOA	1650	n/a	n/a	1
152.4340000000	n/a	152434	FrequentFixedSOA	1783	n/a	n/a	1
154.2180000000	n/a	154218	FrequentFixedSOA	1766	n/a	n/a	1
155.9840000000	n/a	155984	FrequentFixedSOA	1533	n/a	n/a	1
157.5180000000	n/a	157518	GoVariableSOA	390	n/a	n/a	1
159.1680000000	n/a	159168	FrequentFixedSOA	1550	n/a	n/a	1
160.7180000000	n/a	160718	NovelVariableSOA	1766	n/a	n/a	1
162.4840000000	n/a	162484	FrequentFixedSOA	1616	n/a	n/a	1
164.1010000000	n/a	164101	FrequentFixedSOA	1616	n/a	n/a	1
165.7180000000	n/a	165718	FrequentFixedSOA	1566	n/a	n/a	1
167.2840000000	n/a	167284	GoVariableSOA	439	n/a	n/a	1
168.8010000000	n/a	168801	FrequentFixedSOA	1500	n/a	n/a	1
170.3010000000	n/a	170301	GoVariableSOA	550	n/a	n/a	1
171.8680000000	n/a	171868	FrequentFixedSOA	1633	n/a	n/a	1
173.5010000000	n/a	173501	FrequentFixedSOA	1583	n/a	n/a	1
175.0840000000	n/a	175084	GoVariableSOA	362	n/a	n/a	1
176.6340000000	n/a	176634	FrequentFixedSOA	1733	n/a	n/a	1
178.3680000000	n/a	178368	FrequentFixedSOA	1700	n/a	n/a	1
180.0680000000	n/a	180068	FrequentFixedSOA	1783	n/a	n/a	1
181.8510000000	n/a	181851	FrequentFixedSOA	1600	n/a	n/a	1
183.4510000000	n/a	183451	NovelVariableSOA	1750	n/a	n/a	1
185.2010000000	n/a	185201	FrequentFixedSOA	1633	n/a	n/a	1
186.8340000000	n/a	186834	NovelVariableSOA	1666	n/a	n/a	1
188.5010000000	n/a	188501	FrequentFixedSOA	1516	n/a	n/a	1
190.0180000000	n/a	190018	FrequentFixedSOA	1633	n/a	n/a	1
191.6510000000	n/a	191651	GoVariableSOA	383	n/a	n/a	1
193.2340000000	n/a	193234	FrequentFixedSOA	1550	n/a	n/a	1
194.7840000000	n/a	194784	FrequentFixedSOA	1566	n/a	n/a	1
196.3510000000	n/a	196351	FrequentFixedSOA	1683	n/a	n/a	1
198.0340000000	n/a	198034	FrequentFixedSOA	1733	n/a	n/a	1
199.7680000000	n/a	199768	NovelVariableSOA	1500	n/a	n/a	1
201.2680000000	n/a	201268	FrequentFixedSOA	1600	n/a	n/a	1
202.8680000000	n/a	202868	FrequentFixedSOA	1733	n/a	n/a	1
204.6010000000	n/a	204601	FrequentFixedSOA	1666	n/a	n/a	1
206.2680000000	n/a	206268	FrequentFixedSOA	1766	n/a	n/a	1
208.0340000000	n/a	208034	GoVariableSOA	332	n/a	n/a	1
209.5510000000	n/a	209551	FrequentFixedSOA	1733	n/a	n/a	1
211.2840000000	n/a	211284	FrequentFixedSOA	1500	n/a	n/a	1
212.7840000000	n/a	212784	NovelVariableSOA	1733	n/a	n/a	1
214.5180000000	n/a	214518	FrequentFixedSOA	1616	n/a	n/a	1
216.1340000000	n/a	216134	FrequentFixedSOA	1750	n/a	n/a	1
217.8840000000	n/a	217884	GoVariableSOA	364	n/a	n/a	1
219.6180000000	n/a	219618	FrequentFixedSOA	1583	n/a	n/a	1
221.2010000000	n/a	221201	FrequentFixedSOA	1683	n/a	n/a	1
222.8840000000	n/a	222884	FrequentFixedSOA	1516	n/a	n/a	1
224.4010000000	n/a	224401	FrequentFixedSOA	1616	n/a	n/a	1
226.0180000000	n/a	226018	NovelVariableSOA	1716	n/a	n/a	1
227.7340000000	n/a	227734	FrequentFixedSOA	1666	n/a	n/a	1
229.4010000000	n/a	229401	FrequentFixedSOA	1766	n/a	n/a	1
231.1680000000	n/a	231168	GoVariableSOA	459	n/a	n/a	1
232.9510000000	n/a	232951	FrequentFixedSOA	1633	n/a	n/a	1
234.5840000000	n/a	234584	FrequentFixedSOA	1633	n/a	n/a	1
236.2180000000	n/a	236218	FrequentFixedSOA	1633	n/a	n/a	1
237.8510000000	n/a	237851	GoFixedSOA	376	n/a	n/a	1
239.4840000000	n/a	239484	FrequentFixedSOA	1633	n/a	n/a	1
241.1180000000	n/a	241118	FrequentFixedSOA	1633	n/a	n/a	1
242.7510000000	n/a	242751	FrequentFixedSOA	1633	n/a	n/a	1
244.3840000000	n/a	244384	GoFixedSOA	307	n/a	n/a	1
246.0180000000	n/a	246018	FrequentFixedSOA	1633	n/a	n/a	1
247.6510000000	n/a	247651	FrequentFixedSOA	1633	n/a	n/a	1
249.2840000000	n/a	249284	FrequentFixedSOA	1633	n/a	n/a	1
250.9180000000	n/a	250918	NovelFixedSOA	1633	n/a	n/a	1
252.5510000000	n/a	252551	FrequentFixedSOA	1633	n/a	n/a	1
254.1840000000	n/a	254184	NovelFixedSOA	1633	n/a	n/a	1
255.8180000000	n/a	255818	FrequentFixedSOA	1633	n/a	n/a	1
257.4510000000	n/a	257451	FrequentFixedSOA	1633	n/a	n/a	1
259.0840000000	n/a	259084	NovelFixedSOA	1633	n/a	n/a	1
260.7180000000	n/a	260718	FrequentFixedSOA	1633	n/a	n/a	1
262.3510000000	n/a	262351	FrequentFixedSOA	1633	n/a	n/a	1
263.9840000000	n/a	263984	FrequentFixedSOA	1633	n/a	n/a	1
265.6180000000	n/a	265618	FrequentFixedSOA	1633	n/a	n/a	1
267.2510000000	n/a	267251	FrequentFixedSOA	1633	n/a	n/a	1
268.8840000000	n/a	268884	NovelFixedSOA	1633	n/a	n/a	1
270.5180000000	n/a	270518	FrequentFixedSOA	1633	n/a	n/a	1
272.1510000000	n/a	272151	FrequentFixedSOA	1633	n/a	n/a	1
273.7840000000	n/a	273784	FrequentFixedSOA	1633	n/a	n/a	1
275.4180000000	n/a	275418	FrequentFixedSOA	1633	n/a	n/a	1
277.0510000000	n/a	277051	FrequentFixedSOA	1633	n/a	n/a	1
278.6840000000	n/a	278684	GoFixedSOA	402	n/a	n/a	1
280.3180000000	n/a	280318	FrequentFixedSOA	1633	n/a	n/a	1
281.9510000000	n/a	281951	FrequentFixedSOA	1633	n/a	n/a	1
283.5840000000	n/a	283584	GoFixedSOA	479	n/a	n/a	1
285.2170000000	n/a	285217	FrequentFixedSOA	1633	n/a	n/a	1
286.8510000000	n/a	286851	NovelFixedSOA	1633	n/a	n/a	1
288.4840000000	n/a	288484	FrequentFixedSOA	1633	n/a	n/a	1
290.1170000000	n/a	290117	GoFixedSOA	489	n/a	n/a	1
291.7510000000	n/a	291751	FrequentFixedSOA	1633	n/a	n/a	1
293.3840000000	n/a	293384	GoFixedSOA	414	n/a	n/a	1
295.0170000000	n/a	295017	FrequentFixedSOA	1633	n/a	n/a	1
296.6510000000	n/a	296651	FrequentFixedSOA	1633	n/a	n/a	1
298.2840000000	n/a	298284	FrequentFixedSOA	1633	n/a	n/a	1
299.9170000000	n/a	299917	FrequentFixedSOA	1633	n/a	n/a	1
301.5510000000	n/a	301551	GoFixedSOA	422	n/a	n/a	1
303.1840000000	n/a	303184	FrequentFixedSOA	1633	n/a	n/a	1
304.8170000000	n/a	304817	FrequentFixedSOA	1633	n/a	n/a	1
306.4510000000	n/a	306451	FrequentFixedSOA	1633	n/a	n/a	1
308.0840000000	n/a	308084	NovelFixedSOA	1633	n/a	n/a	1
309.7170000000	n/a	309717	FrequentFixedSOA	1633	n/a	n/a	1
311.3510000000	n/a	311351	FrequentFixedSOA	1633	n/a	n/a	1
312.9840000000	n/a	312984	FrequentFixedSOA	1633	n/a	n/a	1
314.6170000000	n/a	314617	FrequentFixedSOA	1633	n/a	n/a	1
316.2510000000	n/a	316251	NovelFixedSOA	1633	n/a	n/a	1
317.8840000000	n/a	317884	FrequentFixedSOA	1633	n/a	n/a	1
319.5170000000	n/a	319517	FrequentFixedSOA	1633	n/a	n/a	1
321.1510000000	n/a	321151	FrequentFixedSOA	1633	n/a	n/a	1
322.7840000000	n/a	322784	FrequentFixedSOA	1633	n/a	n/a	1
324.4170000000	n/a	324417	NovelFixedSOA	1633	n/a	n/a	1
326.0510000000	n/a	326051	FrequentFixedSOA	1633	n/a	n/a	1
327.6840000000	n/a	327684	FrequentFixedSOA	1633	n/a	n/a	1
329.3170000000	n/a	329317	GoFixedSOA	443	n/a	n/a	1
330.9510000000	n/a	330951	FrequentFixedSOA	1633	n/a	n/a	1
332.5840000000	n/a	332584	FrequentFixedSOA	1633	n/a	n/a	1
334.2170000000	n/a	334217	FrequentFixedSOA	1633	n/a	n/a	1
335.8510000000	n/a	335851	FrequentFixedSOA	1633	n/a	n/a	1
337.4840000000	n/a	337484	NovelFixedSOA	1633	n/a	n/a	1
339.1170000000	n/a	339117	FrequentFixedSOA	1633	n/a	n/a	1
340.7510000000	n/a	340751	FrequentFixedSOA	1633	n/a	n/a	1
342.3840000000	n/a	342384	FrequentFixedSOA	1633	n/a	n/a	1
344.0170000000	n/a	344017	FrequentFixedSOA	1633	n/a	n/a	1
345.6510000000	n/a	345651	FrequentFixedSOA	1633	n/a	n/a	1
347.2840000000	n/a	347284	FrequentFixedSOA	1566	n/a	n/a	1
348.8510000000	n/a	348851	FrequentFixedSOA	1666	n/a	n/a	1
350.5170000000	n/a	350517	FrequentFixedSOA	1583	n/a	n/a	1
352.1010000000	n/a	352101	GoVariableSOA	433	n/a	n/a	1
353.8510000000	n/a	353851	FrequentFixedSOA	1633	n/a	n/a	1
355.4840000000	n/a	355484	FrequentFixedSOA	1516	n/a	n/a	1
357.0010000000	n/a	357001	FrequentFixedSOA	1733	n/a	n/a	1
358.7340000000	n/a	358734	GoVariableSOA	497	n/a	n/a	1
360.3510000000	n/a	360351	FrequentFixedSOA	1783	n/a	n/a	1
362.1340000000	n/a	362134	FrequentFixedSOA	1666	n/a	n/a	1
363.8010000000	n/a	363801	FrequentFixedSOA	1616	n/a	n/a	1
365.4170000000	n/a	365417	NovelVariableSOA	1666	n/a	n/a	1
367.0840000000	n/a	367084	FrequentFixedSOA	1600	n/a	n/a	1
368.6840000000	n/a	368684	NovelVariableSOA	1516	n/a	n/a	1
370.2010000000	n/a	370201	FrequentFixedSOA	1683	n/a	n/a	1
371.8840000000	n/a	371884	FrequentFixedSOA	1783	n/a	n/a	1
373.6670000000	n/a	373667	NovelVariableSOA	1783	n/a	n/a	1
375.4510000000	n/a	375451	FrequentFixedSOA	1633	n/a	n/a	1
377.0840000000	n/a	377084	FrequentFixedSOA	1800	n/a	n/a	1
378.8840000000	n/a	378884	FrequentFixedSOA	1550	n/a	n/a	1
380.4340000000	n/a	380434	FrequentFixedSOA	1716	n/a	n/a	1
382.1510000000	n/a	382151	FrequentFixedSOA	1733	n/a	n/a	1
383.8840000000	n/a	383884	NovelVariableSOA	1583	n/a	n/a	1
385.4670000000	n/a	385467	FrequentFixedSOA	1750	n/a	n/a	1
387.2170000000	n/a	387217	FrequentFixedSOA	1550	n/a	n/a	1
388.7670000000	n/a	388767	FrequentFixedSOA	1633	n/a	n/a	1
390.4010000000	n/a	390401	FrequentFixedSOA	1716	n/a	n/a	1
392.1170000000	n/a	392117	FrequentFixedSOA	1500	n/a	n/a	1
393.6170000000	n/a	393617	GoVariableSOA	479	n/a	n/a	1
395.1840000000	n/a	395184	FrequentFixedSOA	1783	n/a	n/a	1
396.9670000000	n/a	396967	FrequentFixedSOA	1666	n/a	n/a	1
398.6340000000	n/a	398634	GoVariableSOA	433	n/a	n/a	1
400.1840000000	n/a	400184	FrequentFixedSOA	1733	n/a	n/a	1
401.9170000000	n/a	401917	NovelVariableSOA	1666	n/a	n/a	1
403.5840000000	n/a	403584	FrequentFixedSOA	1566	n/a	n/a	1
405.1510000000	n/a	405151	GoVariableSOA	436	n/a	n/a	1
406.7010000000	n/a	406701	FrequentFixedSOA	1566	n/a	n/a	1
408.2670000000	n/a	408267	GoVariableSOA	503	n/a	n/a	1
409.7840000000	n/a	409784	FrequentFixedSOA	1766	n/a	n/a	1
411.5510000000	n/a	411551	FrequentFixedSOA	1733	n/a	n/a	1
413.2840000000	n/a	413284	FrequentFixedSOA	1733	n/a	n/a	1
415.0170000000	n/a	415017	FrequentFixedSOA	1750	n/a	n/a	1
416.7670000000	n/a	416767	GoVariableSOA	389	n/a	n/a	1
418.4010000000	n/a	418401	FrequentFixedSOA	1766	n/a	n/a	1
420.1670000000	n/a	420167	FrequentFixedSOA	1600	n/a	n/a	1
421.7670000000	n/a	421767	FrequentFixedSOA	1516	n/a	n/a	1
423.2840000000	n/a	423284	NovelVariableSOA	1716	n/a	n/a	1
425.0010000000	n/a	425001	FrequentFixedSOA	1566	n/a	n/a	1
426.5670000000	n/a	426567	FrequentFixedSOA	1533	n/a	n/a	1
428.1010000000	n/a	428101	FrequentFixedSOA	1616	n/a	n/a	1
429.7170000000	n/a	429717	FrequentFixedSOA	1533	n/a	n/a	1
431.2510000000	n/a	431251	NovelVariableSOA	1600	n/a	n/a	1
432.8510000000	n/a	432851	FrequentFixedSOA	1516	n/a	n/a	1
434.3670000000	n/a	434367	FrequentFixedSOA	1733	n/a	n/a	1
436.1010000000	n/a	436101	FrequentFixedSOA	1583	n/a	n/a	1
437.6840000000	n/a	437684	FrequentFixedSOA	1500	n/a	n/a	1
439.1840000000	n/a	439184	NovelVariableSOA	1616	n/a	n/a	1
440.8010000000	n/a	440801	FrequentFixedSOA	1700	n/a	n/a	1
442.5010000000	n/a	442501	FrequentFixedSOA	1566	n/a	n/a	1
444.0670000000	n/a	444067	GoVariableSOA	419	n/a	n/a	1
445.8510000000	n/a	445851	FrequentFixedSOA	1800	n/a	n/a	1
447.6510000000	n/a	447651	FrequentFixedSOA	1550	n/a	n/a	1
449.2010000000	n/a	449201	FrequentFixedSOA	1650	n/a	n/a	1
450.8510000000	n/a	450851	FrequentFixedSOA	1650	n/a	n/a	1
452.5010000000	n/a	452501	NovelVariableSOA	1583	n/a	n/a	1
454.0840000000	n/a	454084	FrequentFixedSOA	1716	n/a	n/a	1
455.8010000000	n/a	455801	FrequentFixedSOA	1716	n/a	n/a	1
457.5170000000	n/a	457517	FrequentFixedSOA	1633	n/a	n/a	1
459.1510000000	n/a	459151	FrequentFixedSOA	1533	n/a	n/a	1
460.6840000000	n/a	460684	FrequentFixedSOA	1733	n/a	n/a	1
462.4170000000	n/a	462417	GoFixedSOA	486	n/a	n/a	1
464.0510000000	n/a	464051	FrequentFixedSOA	1633	n/a	n/a	1
465.6840000000	n/a	465684	FrequentFixedSOA	1633	n/a	n/a	1
467.3170000000	n/a	467317	FrequentFixedSOA	1633	n/a	n/a	1
468.9510000000	n/a	468951	FrequentFixedSOA	1633	n/a	n/a	1
470.5840000000	n/a	470584	FrequentFixedSOA	1633	n/a	n/a	1
472.2170000000	n/a	472217	FrequentFixedSOA	1633	n/a	n/a	1
473.8510000000	n/a	473851	NovelFixedSOA	1633	n/a	n/a	1
475.4840000000	n/a	475484	FrequentFixedSOA	1633	n/a	n/a	1
477.1170000000	n/a	477117	FrequentFixedSOA	1633	n/a	n/a	1
478.7510000000	n/a	478751	FrequentFixedSOA	1633	n/a	n/a	1
480.3840000000	n/a	480384	NovelFixedSOA	1633	n/a	n/a	1
482.0170000000	n/a	482017	FrequentFixedSOA	1633	n/a	n/a	1
483.6510000000	n/a	483651	GoFixedSOA	509	n/a	n/a	1
485.2840000000	n/a	485284	FrequentFixedSOA	1633	n/a	n/a	1
486.9170000000	n/a	486917	FrequentFixedSOA	1633	n/a	n/a	1
488.5510000000	n/a	488551	GoFixedSOA	490	n/a	n/a	1
490.1840000000	n/a	490184	FrequentFixedSOA	1633	n/a	n/a	1
491.8170000000	n/a	491817	NovelFixedSOA	1633	n/a	n/a	1
493.4510000000	n/a	493451	FrequentFixedSOA	1633	n/a	n/a	1
495.0840000000	n/a	495084	FrequentFixedSOA	1633	n/a	n/a	1
496.7170000000	n/a	496717	FrequentFixedSOA	1633	n/a	n/a	1
498.3510000000	n/a	498351	FrequentFixedSOA	1633	n/a	n/a	1
499.9840000000	n/a	499984	FrequentFixedSOA	1633	n/a	n/a	1
501.6170000000	n/a	501617	GoFixedSOA	426	n/a	n/a	1
503.2510000000	n/a	503251	FrequentFixedSOA	1633	n/a	n/a	1
504.8840000000	n/a	504884	FrequentFixedSOA	1633	n/a	n/a	1
506.5170000000	n/a	506517	NovelFixedSOA	1633	n/a	n/a	1
508.1500000000	n/a	508150	FrequentFixedSOA	1633	n/a	n/a	1
509.7840000000	n/a	509784	FrequentFixedSOA	1633	n/a	n/a	1
511.4170000000	n/a	511417	FrequentFixedSOA	1633	n/a	n/a	1
513.0500000000	n/a	513050	FrequentFixedSOA	1633	n/a	n/a	1
514.6840000000	n/a	514684	FrequentFixedSOA	1633	n/a	n/a	1
516.3170000000	n/a	516317	NovelFixedSOA	1633	n/a	n/a	1
517.9500000000	n/a	517950	FrequentFixedSOA	1633	n/a	n/a	1
519.5840000000	n/a	519584	FrequentFixedSOA	1633	n/a	n/a	1
521.2170000000	n/a	521217	FrequentFixedSOA	1633	n/a	n/a	1
522.8500000000	n/a	522850	FrequentFixedSOA	1633	n/a	n/a	1
524.4840000000	n/a	524484	GoFixedSOA	386	n/a	n/a	1
526.1170000000	n/a	526117	FrequentFixedSOA	1633	n/a	n/a	1
527.7500000000	n/a	527750	FrequentFixedSOA	1633	n/a	n/a	1
529.3840000000	n/a	529384	NovelFixedSOA	1633	n/a	n/a	1
531.0170000000	n/a	531017	FrequentFixedSOA	1633	n/a	n/a	1
532.6500000000	n/a	532650	FrequentFixedSOA	1633	n/a	n/a	1
534.2840000000	n/a	534284	NovelFixedSOA	1633	n/a	n/a	1
535.9170000000	n/a	535917	FrequentFixedSOA	1633	n/a	n/a	1
537.5500000000	n/a	537550	FrequentFixedSOA	1633	n/a	n/a	1
539.1840000000	n/a	539184	FrequentFixedSOA	1633	n/a	n/a	1
540.8170000000	n/a	540817	FrequentFixedSOA	1633	n/a	n/a	1
542.4500000000	n/a	542450	FrequentFixedSOA	1633	n/a	n/a	1
544.0840000000	n/a	544084	GoFixedSOA	486	n/a	n/a	1
545.7170000000	n/a	545717	FrequentFixedSOA	1633	n/a	n/a	1
547.3500000000	n/a	547350	FrequentFixedSOA	1633	n/a	n/a	1
548.9840000000	n/a	548984	FrequentFixedSOA	1633	n/a	n/a	1
550.6170000000	n/a	550617	FrequentFixedSOA	1633	n/a	n/a	1
552.2500000000	n/a	552250	FrequentFixedSOA	1633	n/a	n/a	1
553.8840000000	n/a	553884	NovelFixedSOA	1633	n/a	n/a	1
555.5170000000	n/a	555517	FrequentFixedSOA	1633	n/a	n/a	1
557.1500000000	n/a	557150	GoFixedSOA	535	n/a	n/a	1
558.7840000000	n/a	558784	FrequentFixedSOA	1633	n/a	n/a	1
560.4170000000	n/a	560417	FrequentFixedSOA	1633	n/a	n/a	1
562.0500000000	n/a	562050	FrequentFixedSOA	1633	n/a	n/a	1
563.6840000000	n/a	563684	FrequentFixedSOA	1633	n/a	n/a	1
565.3170000000	n/a	565317	FrequentFixedSOA	1633	n/a	n/a	1
566.9500000000	n/a	566950	FrequentFixedSOA	1633	n/a	n/a	1
568.5840000000	n/a	568584	FrequentFixedSOA	1633	n/a	n/a	1
570.2170000000	n/a	570217	FrequentFixedSOA	1633	n/a	n/a	1
571.8500000000	n/a	571850	NovelFixedSOA	1633	n/a	n/a	1
573.4840000000	n/a	573484	FrequentFixedSOA	1633	n/a	n/a	1
575.1170000000	n/a	575117	FrequentFixedSOA	1633	n/a	n/a	1
576.7500000000	n/a	576750	GoVariableSOA	531	n/a	n/a	1
578.5170000000	n/a	578517	FrequentFixedSOA	1666	n/a	n/a	1
580.1840000000	n/a	580184	FrequentFixedSOA	1650	n/a	n/a	1
581.8340000000	n/a	581834	FrequentFixedSOA	1500	n/a	n/a	1
583.3340000000	n/a	583334	FrequentFixedSOA	1600	n/a	n/a	1
584.9340000000	n/a	584934	FrequentFixedSOA	1633	n/a	n/a	1
586.5670000000	n/a	586567	FrequentFixedSOA	1633	n/a	n/a	1
588.2000000000	n/a	588200	NovelVariableSOA	1533	n/a	n/a	1
589.7340000000	n/a	589734	FrequentFixedSOA	1733	n/a	n/a	1
591.4670000000	n/a	591467	FrequentFixedSOA	1716	n/a	n/a	1
593.1840000000	n/a	593184	FrequentFixedSOA	1666	n/a	n/a	1
594.8500000000	n/a	594850	NovelVariableSOA	1650	n/a	n/a	1
596.5000000000	n/a	596500	FrequentFixedSOA	1600	n/a	n/a	1
598.1000000000	n/a	598100	GoVariableSOA	431	n/a	n/a	1
599.8670000000	n/a	599867	FrequentFixedSOA	1766	n/a	n/a	1
601.6340000000	n/a	601634	FrequentFixedSOA	1683	n/a	n/a	1
603.3170000000	n/a	603317	GoVariableSOA	387	n/a	n/a	1
604.9340000000	n/a	604934	FrequentFixedSOA	1500	n/a	n/a	1
606.4340000000	n/a	606434	NovelVariableSOA	1733	n/a	n/a	1
608.1670000000	n/a	608167	FrequentFixedSOA	1750	n/a	n/a	1
609.9170000000	n/a	609917	FrequentFixedSOA	1716	n/a	n/a	1
611.6340000000	n/a	611634	FrequentFixedSOA	1716	n/a	n/a	1
613.3500000000	n/a	613350	FrequentFixedSOA	1716	n/a	n/a	1
615.0670000000	n/a	615067	FrequentFixedSOA	1516	n/a	n/a	1
616.5840000000	n/a	616584	GoVariableSOA	401	n/a	n/a	1
618.1500000000	n/a	618150	FrequentFixedSOA	1650	n/a	n/a	1
619.8000000000	n/a	619800	FrequentFixedSOA	1633	n/a	n/a	1
621.4340000000	n/a	621434	NovelVariableSOA	1500	n/a	n/a	1
622.9340000000	n/a	622934	FrequentFixedSOA	1583	n/a	n/a	1
624.5170000000	n/a	624517	FrequentFixedSOA	1650	n/a	n/a	1
626.1670000000	n/a	626167	FrequentFixedSOA	1766	n/a	n/a	1
627.9340000000	n/a	627934	FrequentFixedSOA	1500	n/a	n/a	1
629.4340000000	n/a	629434	FrequentFixedSOA	1700	n/a	n/a	1
631.1340000000	n/a	631134	NovelVariableSOA	1566	n/a	n/a	1
632.7000000000	n/a	632700	FrequentFixedSOA	1516	n/a	n/a	1
634.2170000000	n/a	634217	FrequentFixedSOA	1650	n/a	n/a	1
635.8670000000	n/a	635867	FrequentFixedSOA	1500	n/a	n/a	1
637.3670000000	n/a	637367	FrequentFixedSOA	1700	n/a	n/a	1
639.0670000000	n/a	639067	GoVariableSOA	368	n/a	n/a	1
640.8170000000	n/a	640817	FrequentFixedSOA	1583	n/a	n/a	1
642.4000000000	n/a	642400	FrequentFixedSOA	1583	n/a	n/a	1
643.9840000000	n/a	643984	NovelVariableSOA	1516	n/a	n/a	1
645.5000000000	n/a	645500	FrequentFixedSOA	1700	n/a	n/a	1
647.2000000000	n/a	647200	FrequentFixedSOA	1800	n/a	n/a	1
649.0000000000	n/a	649000	NovelVariableSOA	1600	n/a	n/a	1
650.6000000000	n/a	650600	FrequentFixedSOA	1516	n/a	n/a	1
652.1170000000	n/a	652117	FrequentFixedSOA	1716	n/a	n/a	1
653.8340000000	n/a	653834	FrequentFixedSOA	1683	n/a	n/a	1
655.5170000000	n/a	655517	FrequentFixedSOA	1783	n/a	n/a	1
657.3000000000	n/a	657300	FrequentFixedSOA	1783	n/a	n/a	1
659.0840000000	n/a	659084	GoVariableSOA	444	n/a	n/a	1
660.7170000000	n/a	660717	FrequentFixedSOA	1583	n/a	n/a	1
662.3000000000	n/a	662300	FrequentFixedSOA	1766	n/a	n/a	1
664.0670000000	n/a	664067	FrequentFixedSOA	1666	n/a	n/a	1
665.7340000000	n/a	665734	FrequentFixedSOA	1766	n/a	n/a	1
667.5000000000	n/a	667500	FrequentFixedSOA	1683	n/a	n/a	1
669.1840000000	n/a	669184	NovelVariableSOA	1600	n/a	n/a	1
670.7840000000	n/a	670784	FrequentFixedSOA	1766	n/a	n/a	1
672.5500000000	n/a	672550	GoVariableSOA	344	n/a	n/a	1
674.1340000000	n/a	674134	FrequentFixedSOA	1766	n/a	n/a	1
675.9000000000	n/a	675900	FrequentFixedSOA	1733	n/a	n/a	1
677.6340000000	n/a	677634	FrequentFixedSOA	1783	n/a	n/a	1
679.4170000000	n/a	679417	FrequentFixedSOA	1533	n/a	n/a	1
680.9500000000	n/a	680950	FrequentFixedSOA	1666	n/a	n/a	1
682.6170000000	n/a	682617	FrequentFixedSOA	1516	n/a	n/a	1
684.1340000000	n/a	684134	FrequentFixedSOA	1633	n/a	n/a	1
685.7670000000	n/a	685767	FrequentFixedSOA	1666	n/a	n/a	1
687.4340000000	n/a	687434	NovelVariableSOA	1566	n/a	n/a	1
689.0000000000	n/a	689000	FrequentFixedSOA	1750	n/a	n/a	1
690.7500000000	n/a	690750	FrequentFixedSOA	1683	n/a	n/a	1
692.4340000000	n/a	692434	GoFixedSOA	506	n/a	n/a	1
694.0670000000	n/a	694067	FrequentFixedSOA	1633	n/a	n/a	1
695.7000000000	n/a	695700	FrequentFixedSOA	1633	n/a	n/a	1
697.3340000000	n/a	697334	FrequentFixedSOA	1633	n/a	n/a	1
698.9670000000	n/a	698967	GoFixedSOA	370	n/a	n/a	1
700.6000000000	n/a	700600	FrequentFixedSOA	1633	n/a	n/a	1
702.2340000000	n/a	702234	FrequentFixedSOA	1633	n/a	n/a	1
703.8670000000	n/a	703867	FrequentFixedSOA	1633	n/a	n/a	1
705.5000000000	n/a	705500	FrequentFixedSOA	1633	n/a	n/a	1
707.1340000000	n/a	707134	GoFixedSOA	404	n/a	n/a	1
708.7670000000	n/a	708767	FrequentFixedSOA	1633	n/a	n/a	1
710.4000000000	n/a	710400	FrequentFixedSOA	1633	n/a	n/a	1
712.0340000000	n/a	712034	NovelFixedSOA	1633	n/a	n/a	1
713.6670000000	n/a	713667	FrequentFixedSOA	1633	n/a	n/a	1
715.3000000000	n/a	715300	FrequentFixedSOA	1633	n/a	n/a	1
716.9340000000	n/a	716934	GoFixedSOA	343	n/a	n/a	1
718.5670000000	n/a	718567	FrequentFixedSOA	1633	n/a	n/a	1
720.2000000000	n/a	720200	FrequentFixedSOA	1633	n/a	n/a	1
721.8340000000	n/a	721834	FrequentFixedSOA	1633	n/a	n/a	1
723.4670000000	n/a	723467	NovelFixedSOA	1633	n/a	n/a	1
725.1000000000	n/a	725100	FrequentFixedSOA	1633	n/a	n/a	1
726.7340000000	n/a	726734	NovelFixedSOA	1633	n/a	n/a	1
728.3670000000	n/a	728367	FrequentFixedSOA	1633	n/a	n/a	1
730.0000000000	n/a	730000	FrequentFixedSOA	1633	n/a	n/a	1
731.6340000000	n/a	731634	FrequentFixedSOA	1633	n/a	n/a	1
733.2670000000	n/a	733267	GoFixedSOA	440	n/a	n/a	1
734.9000000000	n/a	734900	FrequentFixedSOA	1633	n/a	n/a	1
736.5340000000	n/a	736534	FrequentFixedSOA	1633	n/a	n/a	1
738.1670000000	n/a	738167	FrequentFixedSOA	1633	n/a	n/a	1
739.8000000000	n/a	739800	GoFixedSOA	481	n/a	n/a	1
741.4340000000	n/a	741434	FrequentFixedSOA	1633	n/a	n/a	1
743.0670000000	n/a	743067	FrequentFixedSOA	1633	n/a	n/a	1
744.7000000000	n/a	744700	NovelFixedSOA	1633	n/a	n/a	1
746.3330000000	n/a	746333	FrequentFixedSOA	1633	n/a	n/a	1
747.9670000000	n/a	747967	GoFixedSOA	427	n/a	n/a	1
749.6000000000	n/a	749600	FrequentFixedSOA	1633	n/a	n/a	1
751.2330000000	n/a	751233	FrequentFixedSOA	1633	n/a	n/a	1
752.8670000000	n/a	752867	FrequentFixedSOA	1633	n/a	n/a	1
754.5000000000	n/a	754500	FrequentFixedSOA	1633	n/a	n/a	1
756.1330000000	n/a	756133	FrequentFixedSOA	1633	n/a	n/a	1
757.7670000000	n/a	757767	FrequentFixedSOA	1633	n/a	n/a	1
759.4000000000	n/a	759400	NovelFixedSOA	1633	n/a	n/a	1
761.0330000000	n/a	761033	FrequentFixedSOA	1633	n/a	n/a	1
762.6670000000	n/a	762667	FrequentFixedSOA	1633	n/a	n/a	1
764.3000000000	n/a	764300	FrequentFixedSOA	1633	n/a	n/a	1
765.9330000000	n/a	765933	GoFixedSOA	454	n/a	n/a	1
767.5670000000	n/a	767567	FrequentFixedSOA	1633	n/a	n/a	1
769.2000000000	n/a	769200	FrequentFixedSOA	1633	n/a	n/a	1
770.8330000000	n/a	770833	FrequentFixedSOA	1633	n/a	n/a	1
772.4670000000	n/a	772467	FrequentFixedSOA	1633	n/a	n/a	1
774.1000000000	n/a	774100	NovelFixedSOA	1633	n/a	n/a	1
775.7330000000	n/a	775733	FrequentFixedSOA	1633	n/a	n/a	1
777.3670000000	n/a	777367	FrequentFixedSOA	1633	n/a	n/a	1
779.0000000000	n/a	779000	NovelFixedSOA	1633	n/a	n/a	1
780.6330000000	n/a	780633	FrequentFixedSOA	1633	n/a	n/a	1
782.2670000000	n/a	782267	NovelFixedSOA	1633	n/a	n/a	1
783.9000000000	n/a	783900	FrequentFixedSOA	1633	n/a	n/a	1
785.5330000000	n/a	785533	FrequentFixedSOA	1633	n/a	n/a	1
787.1670000000	n/a	787167	FrequentFixedSOA	1633	n/a	n/a	1
788.8000000000	n/a	788800	FrequentFixedSOA	1633	n/a	n/a	1
790.4330000000	n/a	790433	FrequentFixedSOA	1633	n/a	n/a	1
792.0670000000	n/a	792067	FrequentFixedSOA	1633	n/a	n/a	1
793.7000000000	n/a	793700	FrequentFixedSOA	1633	n/a	n/a	1
795.3330000000	n/a	795333	GoFixedSOA	467	n/a	n/a	1
796.9670000000	n/a	796967	FrequentFixedSOA	1633	n/a	n/a	1
798.6000000000	n/a	798600	GoFixedSOA	383	n/a	n/a	1
800.2330000000	n/a	800233	FrequentFixedSOA	1633	n/a	n/a	1
801.8670000000	n/a	801867	FrequentFixedSOA	1633	n/a	n/a	1
803.5000000000	n/a	803500	NovelFixedSOA	1633	n/a	n/a	1
805.1330000000	n/a	805133	FrequentFixedSOA	1633	n/a	n/a	1
806.7670000000	n/a	806767	GoVariableSOA	468	n/a	n/a	1
808.3330000000	n/a	808333	FrequentFixedSOA	1616	n/a	n/a	1
809.9500000000	n/a	809950	FrequentFixedSOA	1716	n/a	n/a	1
811.6670000000	n/a	811667	FrequentFixedSOA	1566	n/a	n/a	1
813.2330000000	n/a	813233	GoVariableSOA	481	n/a	n/a	1
815.0170000000	n/a	815017	FrequentFixedSOA	1683	n/a	n/a	1
816.7000000000	n/a	816700	FrequentFixedSOA	1583	n/a	n/a	1
818.2830000000	n/a	818283	FrequentFixedSOA	1733	n/a	n/a	1
820.0170000000	n/a	820017	FrequentFixedSOA	1800	n/a	n/a	1
821.8170000000	n/a	821817	GoVariableSOA	535	n/a	n/a	1
823.3330000000	n/a	823333	FrequentFixedSOA	1583	n/a	n/a	1
824.9170000000	n/a	824917	FrequentFixedSOA	1550	n/a	n/a	1
826.4670000000	n/a	826467	NovelVariableSOA	1650	n/a	n/a	1
828.1170000000	n/a	828117	FrequentFixedSOA	1683	n/a	n/a	1
829.8000000000	n/a	829800	FrequentFixedSOA	1733	n/a	n/a	1
831.5330000000	n/a	831533	GoVariableSOA	321	n/a	n/a	1
833.2000000000	n/a	833200	FrequentFixedSOA	1666	n/a	n/a	1
834.8670000000	n/a	834867	FrequentFixedSOA	1716	n/a	n/a	1
836.5830000000	n/a	836583	FrequentFixedSOA	1533	n/a	n/a	1
838.1170000000	n/a	838117	NovelVariableSOA	1716	n/a	n/a	1
839.8330000000	n/a	839833	FrequentFixedSOA	1750	n/a	n/a	1
841.5830000000	n/a	841583	NovelVariableSOA	1583	n/a	n/a	1
843.1670000000	n/a	843167	FrequentFixedSOA	1633	n/a	n/a	1
844.8000000000	n/a	844800	FrequentFixedSOA	1533	n/a	n/a	1
846.3330000000	n/a	846333	FrequentFixedSOA	1750	n/a	n/a	1
848.0830000000	n/a	848083	GoVariableSOA	508	n/a	n/a	1
849.6330000000	n/a	849633	FrequentFixedSOA	1733	n/a	n/a	1
851.3670000000	n/a	851367	FrequentFixedSOA	1583	n/a	n/a	1
852.9500000000	n/a	852950	FrequentFixedSOA	1566	n/a	n/a	1
854.5170000000	n/a	854517	GoVariableSOA	434	n/a	n/a	1
856.2170000000	n/a	856217	FrequentFixedSOA	1683	n/a	n/a	1
857.9000000000	n/a	857900	FrequentFixedSOA	1583	n/a	n/a	1
859.4830000000	n/a	859483	NovelVariableSOA	1533	n/a	n/a	1
861.0170000000	n/a	861017	FrequentFixedSOA	1633	n/a	n/a	1
862.6500000000	n/a	862650	GoVariableSOA	556	n/a	n/a	1
864.2670000000	n/a	864267	FrequentFixedSOA	1583	n/a	n/a	1
865.8500000000	n/a	865850	FrequentFixedSOA	1500	n/a	n/a	1
867.3500000000	n/a	867350	FrequentFixedSOA	1683	n/a	n/a	1
869.0330000000	n/a	869033	FrequentFixedSOA	1683	n/a	n/a	1
870.7170000000	n/a	870717	FrequentFixedSOA	1750	n/a	n/a	1
872.4670000000	n/a	872467	FrequentFixedSOA	1683	n/a	n/a	1
874.1500000000	n/a	874150	NovelVariableSOA	1600	n/a	n/a	1
875.7500000000	n/a	875750	FrequentFixedSOA	1666	n/a	n/a	1
877.4170000000	n/a	877417	FrequentFixedSOA	1600	n/a	n/a	1
879.0170000000	n/a	879017	FrequentFixedSOA	1600	n/a	n/a	1
880.6170000000	n/a	880617	GoVariableSOA	397	n/a	n/a	1
882.1670000000	n/a	882167	FrequentFixedSOA	1766	n/a	n/a	1
883.9330000000	n/a	883933	FrequentFixedSOA	1633	n/a	n/a	1
885.5670000000	n/a	885567	FrequentFixedSOA	1666	n/a	n/a	1
887.2330000000	n/a	887233	FrequentFixedSOA	1616	n/a	n/a	1
888.8500000000	n/a	888850	NovelVariableSOA	1783	n/a	n/a	1
890.6330000000	n/a	890633	FrequentFixedSOA	1616	n/a	n/a	1
892.2500000000	n/a	892250	FrequentFixedSOA	1600	n/a	n/a	1
893.8500000000	n/a	893850	NovelVariableSOA	1716	n/a	n/a	1
895.5670000000	n/a	895567	FrequentFixedSOA	1533	n/a	n/a	1
897.1000000000	n/a	897100	NovelVariableSOA	1550	n/a	n/a	1
898.6500000000	n/a	898650	FrequentFixedSOA	1766	n/a	n/a	1
900.4170000000	n/a	900417	FrequentFixedSOA	1750	n/a	n/a	1
902.1670000000	n/a	902167	FrequentFixedSOA	1666	n/a	n/a	1
903.8330000000	n/a	903833	FrequentFixedSOA	1783	n/a	n/a	1
905.6170000000	n/a	905617	FrequentFixedSOA	1633	n/a	n/a	1
907.2500000000	n/a	907250	FrequentFixedSOA	1766	n/a	n/a	1
909.0170000000	n/a	909017	FrequentFixedSOA	1650	n/a	n/a	1
910.6670000000	n/a	910667	GoVariableSOA	498	n/a	n/a	1
912.2670000000	n/a	912267	FrequentFixedSOA	1650	n/a	n/a	1
913.9170000000	n/a	913917	GoVariableSOA	491	n/a	n/a	1
915.5330000000	n/a	915533	FrequentFixedSOA	1683	n/a	n/a	1
917.2170000000	n/a	917217	FrequentFixedSOA	1750	n/a	n/a	1
918.9670000000	n/a	918967	NovelVariableSOA	1716	n/a	n/a	1
920.6830000000	n/a	920683	FrequentFixedSOA	1716	n/a	n/a	1
