onset	duration	sample	trial_type	response_time	stim_file	value	correct
17.1350000000	n/a	17135	ignore	2151	n/a	n/a	1
20.3520000000	n/a	20352	ignore	1000	n/a	n/a	1
22.3520000000	n/a	22352	ignore	1700	n/a	n/a	1
24.0520000000	n/a	24052	ignore	2426	n/a	n/a	0
27.5520000000	n/a	27552	ignore	1000	n/a	n/a	1
29.5520000000	n/a	29552	ignore	1700	n/a	n/a	1
31.2520000000	n/a	31252	ignore	2013	n/a	n/a	1
34.3350000000	n/a	34335	ignore	1000	n/a	n/a	1
36.3350000000	n/a	36335	ignore	1700	n/a	n/a	1
38.0350000000	n/a	38035	ignore	1469	n/a	n/a	1
40.5680000000	n/a	40568	ignore	1000	n/a	n/a	1
42.5680000000	n/a	42568	ignore	1700	n/a	n/a	1
44.2680000000	n/a	44268	ignore	2374	n/a	n/a	1
47.7180000000	n/a	47718	ignore	1000	n/a	n/a	1
49.7180000000	n/a	49718	ignore	1700	n/a	n/a	1
51.4180000000	n/a	51418	ignore	1198	n/a	n/a	0
53.6850000000	n/a	53685	ignore	1000	n/a	n/a	1
55.6850000000	n/a	55685	ignore	1700	n/a	n/a	1
57.3850000000	n/a	57385	ignore	2200	n/a	n/a	1
60.6520000000	n/a	60652	ignore	1000	n/a	n/a	1
62.6520000000	n/a	62652	ignore	1700	n/a	n/a	1
64.3520000000	n/a	64352	ignore	1252	n/a	n/a	1
66.6680000000	n/a	66668	ignore	1000	n/a	n/a	1
68.6680000000	n/a	68668	ignore	1700	n/a	n/a	1
70.3680000000	n/a	70368	ignore	2982	n/a	n/a	1
73.4180000000	n/a	73418	ignore 	2000	n/a	n/a	1
81.6520000000	n/a	81652	ignore	1000	n/a	n/a	1
83.6520000000	n/a	83652	ignore	1700	n/a	n/a	1
85.3520000000	n/a	85352	ignore	630	n/a	n/a	0
87.0520000000	n/a	87052	ignore	1000	n/a	n/a	1
89.0520000000	n/a	89052	ignore	1700	n/a	n/a	1
90.7520000000	n/a	90752	ignore	2077	n/a	n/a	1
93.9020000000	n/a	93902	ignore	1000	n/a	n/a	1
95.9020000000	n/a	95902	ignore	1700	n/a	n/a	1
97.6020000000	n/a	97602	ignore	1037	n/a	n/a	1
99.7020000000	n/a	99702	ignore	1000	n/a	n/a	1
101.7020000000	n/a	101702	ignore	1700	n/a	n/a	1
103.4020000000	n/a	103402	ignore	562	n/a	n/a	0
105.0350000000	n/a	105035	ignore	1000	n/a	n/a	1
107.0350000000	n/a	107035	ignore	1700	n/a	n/a	1
108.7350000000	n/a	108735	ignore	1158	n/a	n/a	0
110.9680000000	n/a	110968	ignore	1000	n/a	n/a	1
112.9680000000	n/a	112968	ignore	1700	n/a	n/a	1
114.6680000000	n/a	114668	ignore	1226	n/a	n/a	1
116.9680000000	n/a	116968	ignore	1000	n/a	n/a	1
118.9680000000	n/a	118968	ignore	1700	n/a	n/a	1
120.6680000000	n/a	120668	ignore	1588	n/a	n/a	0
123.3350000000	n/a	123335	ignore	1000	n/a	n/a	1
125.3350000000	n/a	125335	ignore	1700	n/a	n/a	1
127.0350000000	n/a	127035	ignore	1472	n/a	n/a	1
128.5850000000	n/a	128585	ignore 	2000	n/a	n/a	1
137.4020000000	n/a	137402	PenaltyB1	1701	n/a	n/a	1
140.1680000000	n/a	140168	NeuCorrB1	1000	n/a	n/a	1
142.1680000000	n/a	142168	ignore	1700	n/a	n/a	1
143.8680000000	n/a	143868	PenaltyB1	1095	n/a	n/a	1
146.0350000000	n/a	146035	NeuCorrB1	1000	n/a	n/a	1
148.0350000000	n/a	148035	ignore	1700	n/a	n/a	1
149.7350000000	n/a	149735	PenaltyB1	1514	n/a	n/a	0
152.3180000000	n/a	152318	PunIncorrB1	1000	n/a	n/a	1
154.3180000000	n/a	154318	ignore	1700	n/a	n/a	1
156.0180000000	n/a	156018	RewardB1	1476	n/a	n/a	0
158.5680000000	n/a	158568	NeuIncorrB1	1000	n/a	n/a	1
160.5680000000	n/a	160568	ignore	1700	n/a	n/a	1
162.2680000000	n/a	162268	RewardB1	1167	n/a	n/a	1
164.5010000000	n/a	164501	RewardCorrB1	1000	n/a	n/a	1
166.5020000000	n/a	166502	ignore	1700	n/a	n/a	1
168.2010000000	n/a	168201	PenaltyB1	1227	n/a	n/a	0
170.5010000000	n/a	170501	PunIncorrB1	1000	n/a	n/a	1
172.5020000000	n/a	172502	ignore	1700	n/a	n/a	1
174.2010000000	n/a	174201	PenaltyB1	2148	n/a	n/a	1
177.4180000000	n/a	177418	NeuCorrB1	1000	n/a	n/a	1
179.4180000000	n/a	179418	ignore	1700	n/a	n/a	1
181.1180000000	n/a	181118	PenaltyB1	862	n/a	n/a	0
183.0510000000	n/a	183051	PunIncorrB1	1000	n/a	n/a	1
185.0520000000	n/a	185052	STATUS	1700	n/a	n/a	1
186.7510000000	n/a	186751	PenaltyB1	1182	n/a	n/a	1
189.0010000000	n/a	189001	PunCorrB1	1000	n/a	n/a	1
191.0020000000	n/a	191002	STATUS	1700	n/a	n/a	1
192.7010000000	n/a	192701	RewardB1	1190	n/a	n/a	0
194.9680000000	n/a	194968	NeuIncorrB1	1000	n/a	n/a	1
196.9680000000	n/a	196968	STATUS	1700	n/a	n/a	1
198.6680000000	n/a	198668	PenaltyB1	951	n/a	n/a	1
200.6850000000	n/a	200685	NeuCorrB1	1000	n/a	n/a	1
202.6850000000	n/a	202685	STATUS	1700	n/a	n/a	1
204.3850000000	n/a	204385	RewardB1	1903	n/a	n/a	1
207.3510000000	n/a	207351	NeuCorrB1	1000	n/a	n/a	1
209.3510000000	n/a	209351	STATUS	1700	n/a	n/a	1
211.0510000000	n/a	211051	PenaltyB1	1009	n/a	n/a	1
213.1350000000	n/a	213135	NeuCorrB1	1000	n/a	n/a	1
215.1350000000	n/a	215135	STATUS	1700	n/a	n/a	1
216.8350000000	n/a	216835	RewardB1	1048	n/a	n/a	0
218.9510000000	n/a	218951	NeuIncorrB1	1000	n/a	n/a	1
220.9510000000	n/a	220951	STATUS	1700	n/a	n/a	1
222.6510000000	n/a	222651	PenaltyB1	2190	n/a	n/a	1
225.9180000000	n/a	225918	NeuCorrB1	1000	n/a	n/a	1
227.9180000000	n/a	227918	STATUS	1700	n/a	n/a	1
229.6180000000	n/a	229618	PenaltyB1	977	n/a	n/a	1
231.6680000000	n/a	231668	NeuCorrB1	1000	n/a	n/a	1
233.6680000000	n/a	233668	STATUS	1700	n/a	n/a	1
235.3680000000	n/a	235368	RewardB1	1284	n/a	n/a	0
237.7180000000	n/a	237718	RewIncorrB1	1000	n/a	n/a	1
239.7180000000	n/a	239718	STATUS	1700	n/a	n/a	1
241.4180000000	n/a	241418	PenaltyB1	970	n/a	n/a	1
243.4510000000	n/a	243451	NeuCorrB1	1000	n/a	n/a	1
245.4510000000	n/a	245451	STATUS	1700	n/a	n/a	1
247.1510000000	n/a	247151	RewardB1	817	n/a	n/a	0
249.0350000000	n/a	249035	NeuIncorrB1	1000	n/a	n/a	1
251.0350000000	n/a	251035	STATUS	1700	n/a	n/a	1
252.7350000000	n/a	252735	RewardB1	806	n/a	n/a	0
254.6180000000	n/a	254618	NeuIncorrB1	1000	n/a	n/a	1
256.6180000000	n/a	256618	STATUS	1700	n/a	n/a	1
258.3180000000	n/a	258318	RewardB1	950	n/a	n/a	0
260.3350000000	n/a	260335	RewIncorrB1	1000	n/a	n/a	1
262.3350000000	n/a	262335	ignore	1700	n/a	n/a	1
264.0350000000	n/a	264035	RewardB1	638	n/a	n/a	0
265.7350000000	n/a	265735	NeuIncorrB1	1000	n/a	n/a	1
267.7350000000	n/a	267735	ignore	1700	n/a	n/a	1
269.4350000000	n/a	269435	RewardB1	498	n/a	n/a	0
271.0010000000	n/a	271001	NeuIncorrB1	1000	n/a	n/a	1
273.0010000000	n/a	273001	ignore	1700	n/a	n/a	1
274.7010000000	n/a	274701	PenaltyB1	1179	n/a	n/a	0
276.9510000000	n/a	276951	PunIncorrB1	1000	n/a	n/a	1
278.9510000000	n/a	278951	STATUS	1700	n/a	n/a	1
280.6510000000	n/a	280651	RewardB1	687	n/a	n/a	1
282.4010000000	n/a	282401	RewardCorrB1	1000	n/a	n/a	1
284.4010000000	n/a	284401	ignore	1700	n/a	n/a	1
286.1010000000	n/a	286101	PenaltyB1	869	n/a	n/a	0
288.0350000000	n/a	288035	NeuIncorrB1	1000	n/a	n/a	1
290.0350000000	n/a	290035	ignore	1700	n/a	n/a	1
291.7350000000	n/a	291735	RewardB1	1653	n/a	n/a	0
294.4510000000	n/a	294451	NeuIncorrB1	1000	n/a	n/a	1
296.4510000000	n/a	296451	ignore	1700	n/a	n/a	1
298.1510000000	n/a	298151	RewardB1	1748	n/a	n/a	0
300.9680000000	n/a	300968	NeuIncorrB1	1000	n/a	n/a	1
302.9680000000	n/a	302968	ignore	1700	n/a	n/a	1
304.6680000000	n/a	304668	RewardB1	1511	n/a	n/a	0
307.2510000000	n/a	307251	NeuIncorrB1	1000	n/a	n/a	1
309.2510000000	n/a	309251	ignore	1700	n/a	n/a	1
310.9510000000	n/a	310951	PenaltyB1	990	n/a	n/a	0
313.0180000000	n/a	313018	PunIncorrB1	1000	n/a	n/a	1
315.0180000000	n/a	315018	STATUS	1700	n/a	n/a	1
316.7180000000	n/a	316718	RewardB1	764	n/a	n/a	0
318.5510000000	n/a	318551	RewIncorrB1	1000	n/a	n/a	1
320.5510000000	n/a	320551	ignore	1700	n/a	n/a	1
322.2510000000	n/a	322251	PenaltyB1	959	n/a	n/a	0
324.2850000000	n/a	324285	PunIncorrB1	1000	n/a	n/a	1
326.2850000000	n/a	326285	STATUS	1700	n/a	n/a	1
327.9850000000	n/a	327985	RewardB1	584	n/a	n/a	0
329.6350000000	n/a	329635	NeuIncorrB1	1000	n/a	n/a	1
331.6350000000	n/a	331635	STATUS	1700	n/a	n/a	1
333.3350000000	n/a	333335	PenaltyB1	665	n/a	n/a	1
335.0680000000	n/a	335068	PunCorrB1	1000	n/a	n/a	1
337.0680000000	n/a	337068	STATUS	1700	n/a	n/a	1
338.7680000000	n/a	338768	RewardB1	486	n/a	n/a	1
340.3180000000	n/a	340318	RewardCorrB1	1000	n/a	n/a	1
342.3180000000	n/a	342318	STATUS	1700	n/a	n/a	1
344.0180000000	n/a	344018	PenaltyB1	646	n/a	n/a	1
345.7350000000	n/a	345735	NeuCorrB1	1000	n/a	n/a	1
347.7350000000	n/a	347735	STATUS	1700	n/a	n/a	1
349.4350000000	n/a	349435	PenaltyB1	649	n/a	n/a	1
351.1510000000	n/a	351151	NeuCorrB1	1000	n/a	n/a	1
353.1510000000	n/a	353151	STATUS	1700	n/a	n/a	1
354.8510000000	n/a	354851	RewardB1	660	n/a	n/a	0
356.5850000000	n/a	356585	NeuIncorrB1	1000	n/a	n/a	1
358.5850000000	n/a	358585	STATUS	1700	n/a	n/a	1
360.2850000000	n/a	360285	PenaltyB1	1186	n/a	n/a	1
362.5350000000	n/a	362535	PunCorrB1	1000	n/a	n/a	1
364.5350000000	n/a	364535	STATUS	1700	n/a	n/a	1
366.2350000000	n/a	366235	RewardB1	1237	n/a	n/a	0
368.5350000000	n/a	368535	NeuIncorrB1	1000	n/a	n/a	1
370.5350000000	n/a	370535	STATUS	1700	n/a	n/a	1
385.4510000000	n/a	385451	RewardB2	903	n/a	n/a	1
387.4180000000	n/a	387418	RewardCorrB2	1000	n/a	n/a	1
389.4180000000	n/a	389418	STATUS	1700	n/a	n/a	1
391.1180000000	n/a	391118	PenaltyB2	1430	n/a	n/a	0
393.6180000000	n/a	393618	PunIncorrB2	1000	n/a	n/a	1
395.6180000000	n/a	395618	STATUS	1700	n/a	n/a	1
397.3180000000	n/a	397318	RewardB2	549	n/a	n/a	1
398.9340000000	n/a	398934	RewardCorrB2	1000	n/a	n/a	1
400.9350000000	n/a	400935	STATUS	1700	n/a	n/a	1
402.6340000000	n/a	402634	RewardB2	886	n/a	n/a	1
404.5840000000	n/a	404584	NeuCorrB2	1000	n/a	n/a	1
406.5850000000	n/a	406585	STATUS	1700	n/a	n/a	1
408.2840000000	n/a	408284	PenaltyB2	936	n/a	n/a	1
410.2840000000	n/a	410284	NeuCorrB2	1000	n/a	n/a	1
412.2850000000	n/a	412285	STATUS	1700	n/a	n/a	1
413.9840000000	n/a	413984	RewardB2	773	n/a	n/a	0
415.8340000000	n/a	415834	NeuIncorrB2	1000	n/a	n/a	1
417.8350000000	n/a	417835	STATUS	1700	n/a	n/a	1
419.5340000000	n/a	419534	PenaltyB2	1042	n/a	n/a	1
421.6510000000	n/a	421651	NeuCorrB2	1000	n/a	n/a	1
423.6510000000	n/a	423651	STATUS	1700	n/a	n/a	1
425.3510000000	n/a	425351	RewardB2	766	n/a	n/a	0
427.1840000000	n/a	427184	NeuIncorrB2	1000	n/a	n/a	1
429.1850000000	n/a	429185	STATUS	1700	n/a	n/a	1
430.8840000000	n/a	430884	PenaltyB2	947	n/a	n/a	1
432.9010000000	n/a	432901	NeuCorrB2	1000	n/a	n/a	1
434.9010000000	n/a	434901	STATUS	1700	n/a	n/a	1
436.6010000000	n/a	436601	RewardB2	992	n/a	n/a	1
438.6680000000	n/a	438668	RewardCorrB2	1000	n/a	n/a	1
440.6680000000	n/a	440668	ignore	1700	n/a	n/a	1
442.3680000000	n/a	442368	PenaltyB2	2473	n/a	n/a	1
445.9180000000	n/a	445918	PunCorrB2	1000	n/a	n/a	1
447.9180000000	n/a	447918	STATUS	1700	n/a	n/a	1
449.6180000000	n/a	449618	RewardB2	635	n/a	n/a	1
451.3180000000	n/a	451318	RewardCorrB2	1000	n/a	n/a	1
453.3180000000	n/a	453318	ignore	1700	n/a	n/a	1
455.0180000000	n/a	455018	PenaltyB2	609	n/a	n/a	0
456.7010000000	n/a	456701	PunIncorrB2	1000	n/a	n/a	1
458.7010000000	n/a	458701	STATUS	1700	n/a	n/a	1
460.4010000000	n/a	460401	RewardB2	1037	n/a	n/a	0
462.5010000000	n/a	462501	NeuIncorrB2	1000	n/a	n/a	1
464.5010000000	n/a	464501	STATUS	1700	n/a	n/a	1
466.2010000000	n/a	466201	PenaltyB2	1456	n/a	n/a	1
468.7340000000	n/a	468734	NeuCorrB2	1000	n/a	n/a	1
470.7340000000	n/a	470734	STATUS	1700	n/a	n/a	1
472.4340000000	n/a	472434	RewardB2	1467	n/a	n/a	1
474.9680000000	n/a	474968	NeuCorrB2	1000	n/a	n/a	1
476.9680000000	n/a	476968	STATUS	1700	n/a	n/a	1
478.6680000000	n/a	478668	PenaltyB2	975	n/a	n/a	1
480.7180000000	n/a	480718	NeuCorrB2	1000	n/a	n/a	1
482.7180000000	n/a	482718	STATUS	1700	n/a	n/a	1
484.4180000000	n/a	484418	RewardB2	1386	n/a	n/a	0
486.8680000000	n/a	486868	NeuIncorrB2	1000	n/a	n/a	1
488.8680000000	n/a	488868	STATUS	1700	n/a	n/a	1
490.5680000000	n/a	490568	PenaltyB2	831	n/a	n/a	0
492.4680000000	n/a	492468	PunIncorrB2	1000	n/a	n/a	1
494.4680000000	n/a	494468	STATUS	1700	n/a	n/a	1
496.1680000000	n/a	496168	RewardB2	625	n/a	n/a	1
497.8680000000	n/a	497868	RewardCorrB2	1000	n/a	n/a	1
499.8680000000	n/a	499868	STATUS	1700	n/a	n/a	1
501.5680000000	n/a	501568	PenaltyB2	950	n/a	n/a	0
503.5840000000	n/a	503584	NeuIncorrB2	1000	n/a	n/a	1
505.5840000000	n/a	505584	STATUS	1700	n/a	n/a	1
507.2840000000	n/a	507284	PenaltyB2	856	n/a	n/a	0
509.2180000000	n/a	509218	PunIncorrB2	1000	n/a	n/a	1
511.2180000000	n/a	511218	STATUS	1700	n/a	n/a	1
512.9180000000	n/a	512918	PenaltyB2	1440	n/a	n/a	1
515.4340000000	n/a	515434	NeuCorrB2	1000	n/a	n/a	1
517.4340000000	n/a	517434	STATUS	1700	n/a	n/a	1
519.1340000000	n/a	519134	RewardB2	1234	n/a	n/a	1
521.4340000000	n/a	521434	RewardCorrB2	1000	n/a	n/a	1
523.4340000000	n/a	523434	STATUS	1700	n/a	n/a	1
525.1340000000	n/a	525134	RewardB2	676	n/a	n/a	1
526.8840000000	n/a	526884	NeuCorrB2	1000	n/a	n/a	1
528.8840000000	n/a	528884	STATUS	1700	n/a	n/a	1
530.5840000000	n/a	530584	RewardB2	482	n/a	n/a	1
532.1340000000	n/a	532134	RewardCorrB2	1000	n/a	n/a	1
534.1340000000	n/a	534134	ignore	1700	n/a	n/a	1
535.8340000000	n/a	535834	PenaltyB2	894	n/a	n/a	1
537.8010000000	n/a	537801	NeuCorrB2	1000	n/a	n/a	1
539.8010000000	n/a	539801	ignore	1700	n/a	n/a	1
541.5010000000	n/a	541501	PenaltyB2	625	n/a	n/a	0
543.2010000000	n/a	543201	PunIncorrB2	1000	n/a	n/a	1
545.2010000000	n/a	545201	STATUS	1700	n/a	n/a	1
546.9010000000	n/a	546901	RewardB2	951	n/a	n/a	1
548.9180000000	n/a	548918	RewardCorrB2	1000	n/a	n/a	1
550.9180000000	n/a	550918	ignore	1700	n/a	n/a	1
552.6180000000	n/a	552618	PenaltyB2	1222	n/a	n/a	0
554.9180000000	n/a	554918	PunIncorrB2	1000	n/a	n/a	1
556.9180000000	n/a	556918	STATUS	1700	n/a	n/a	1
558.6180000000	n/a	558618	RewardB2	563	n/a	n/a	1
560.2510000000	n/a	560251	NeuCorrB2	1000	n/a	n/a	1
562.2510000000	n/a	562251	STATUS	1700	n/a	n/a	1
563.9510000000	n/a	563951	PenaltyB2	1165	n/a	n/a	1
566.1840000000	n/a	566184	NeuCorrB2	1000	n/a	n/a	1
568.1840000000	n/a	568184	STATUS	1700	n/a	n/a	1
569.8840000000	n/a	569884	RewardB2	1041	n/a	n/a	0
572.0010000000	n/a	572001	NeuIncorrB2	1000	n/a	n/a	1
574.0010000000	n/a	574001	STATUS	1700	n/a	n/a	1
575.7010000000	n/a	575701	PenaltyB2	1425	n/a	n/a	1
578.2010000000	n/a	578201	NeuCorrB2	1000	n/a	n/a	1
580.2010000000	n/a	580201	STATUS	1700	n/a	n/a	1
581.9010000000	n/a	581901	PenaltyB2	1621	n/a	n/a	1
584.5840000000	n/a	584584	PunCorrB2	1000	n/a	n/a	1
586.5840000000	n/a	586584	STATUS	1700	n/a	n/a	1
588.2840000000	n/a	588284	RewardB2	522	n/a	n/a	1
589.8840000000	n/a	589884	RewardCorrB2	1000	n/a	n/a	1
591.8840000000	n/a	591884	STATUS	1700	n/a	n/a	1
593.5840000000	n/a	593584	PenaltyB2	3651	n/a	n/a	0
598.3010000000	n/a	598301	PunIncorrB2	1000	n/a	n/a	1
600.3010000000	n/a	600301	STATUS	1700	n/a	n/a	1
602.0010000000	n/a	602001	RewardB2	1025	n/a	n/a	0
604.1010000000	n/a	604101	NeuIncorrB2	1000	n/a	n/a	1
606.1010000000	n/a	606101	STATUS	1700	n/a	n/a	1
607.8010000000	n/a	607801	PenaltyB2	2532	n/a	n/a	1
611.4010000000	n/a	611401	PunCorrB2	1000	n/a	n/a	1
613.4010000000	n/a	613401	STATUS	1700	n/a	n/a	1
615.1010000000	n/a	615101	RewardB2	469	n/a	n/a	1
616.6340000000	n/a	616634	RewardCorrB2	1000	n/a	n/a	1
618.6340000000	n/a	618634	STATUS	1700	n/a	n/a	1
628.9680000000	n/a	628968	RewardB3	750	n/a	n/a	1
630.7840000000	n/a	630784	RewardCorrB3	1000	n/a	n/a	1
632.7840000000	n/a	632784	STATUS	1700	n/a	n/a	1
634.4840000000	n/a	634484	PenaltyB3	1492	n/a	n/a	0
637.0510000000	n/a	637051	NeuIncorrB3	1000	n/a	n/a	1
639.0510000000	n/a	639051	STATUS	1700	n/a	n/a	1
640.7510000000	n/a	640751	RewardB3	956	n/a	n/a	1
642.7840000000	n/a	642784	RewardCorrB3	1000	n/a	n/a	1
644.7840000000	n/a	644784	ignore	1700	n/a	n/a	1
646.4840000000	n/a	646484	PenaltyB3	1927	n/a	n/a	1
649.4840000000	n/a	649484	NeuCorrB3	1000	n/a	n/a	1
651.4840000000	n/a	651484	ignore	1700	n/a	n/a	1
653.1840000000	n/a	653184	PenaltyB3	1694	n/a	n/a	1
655.9510000000	n/a	655951	NeuCorrB3	1000	n/a	n/a	1
657.9510000000	n/a	657951	ignore	1700	n/a	n/a	1
659.6510000000	n/a	659651	RewardB3	1435	n/a	n/a	1
662.1510000000	n/a	662151	RewardCorrB3	1000	n/a	n/a	1
664.1510000000	n/a	664151	ignore	1700	n/a	n/a	1
665.8510000000	n/a	665851	PenaltyB3	1080	n/a	n/a	1
668.0010000000	n/a	668001	PunCorrB3	1000	n/a	n/a	1
670.0010000000	n/a	670001	ignore	1700	n/a	n/a	1
671.7010000000	n/a	671701	RewardB3	603	n/a	n/a	1
673.3670000000	n/a	673367	RewardCorrB3	1000	n/a	n/a	1
675.3670000000	n/a	675367	ignore	1700	n/a	n/a	1
677.0670000000	n/a	677067	PenaltyB3	1445	n/a	n/a	0
679.5840000000	n/a	679584	PunIncorrB3	1000	n/a	n/a	1
681.5840000000	n/a	681584	ignore	1700	n/a	n/a	1
683.2840000000	n/a	683284	RewardB3	799	n/a	n/a	1
685.1510000000	n/a	685151	NeuCorrB3	1000	n/a	n/a	1
687.1510000000	n/a	687151	ignore	1700	n/a	n/a	1
688.8510000000	n/a	688851	PenaltyB3	676	n/a	n/a	0
690.6010000000	n/a	690601	PunIncorrB3	1000	n/a	n/a	1
692.6010000000	n/a	692601	STATUS	1700	n/a	n/a	1
694.3010000000	n/a	694301	RewardB3	929	n/a	n/a	1
696.3010000000	n/a	696301	RewardCorrB3	1000	n/a	n/a	1
698.3010000000	n/a	698301	ignore	1700	n/a	n/a	1
700.0010000000	n/a	700001	RewardB3	580	n/a	n/a	1
701.6510000000	n/a	701651	RewardCorrB3	1000	n/a	n/a	1
703.6510000000	n/a	703651	ignore	1700	n/a	n/a	1
705.3510000000	n/a	705351	RewardB3	1007	n/a	n/a	1
707.4340000000	n/a	707434	RewardCorrB3	1000	n/a	n/a	1
709.4340000000	n/a	709434	ignore	1700	n/a	n/a	1
711.1340000000	n/a	711134	PenaltyB3	979	n/a	n/a	1
713.1840000000	n/a	713184	PunCorrB3	1000	n/a	n/a	1
715.1840000000	n/a	715184	ignore	1700	n/a	n/a	1
716.8840000000	n/a	716884	RewardB3	709	n/a	n/a	1
718.6670000000	n/a	718667	RewardCorrB3	1000	n/a	n/a	1
720.6670000000	n/a	720667	ignore	1700	n/a	n/a	1
722.3670000000	n/a	722367	PenaltyB3	2362	n/a	n/a	1
725.8010000000	n/a	725801	NeuCorrB3	1000	n/a	n/a	1
727.8010000000	n/a	727801	ignore	1700	n/a	n/a	1
729.5010000000	n/a	729501	RewardB3	684	n/a	n/a	1
731.2510000000	n/a	731251	RewardCorrB3	1000	n/a	n/a	1
733.2510000000	n/a	733251	ignore	1700	n/a	n/a	1
734.9510000000	n/a	734951	RewardB3	960	n/a	n/a	1
736.9840000000	n/a	736984	RewardCorrB3	1000	n/a	n/a	1
738.9840000000	n/a	738984	ignore	1700	n/a	n/a	1
740.6840000000	n/a	740684	RewardB3	520	n/a	n/a	1
742.2670000000	n/a	742267	NeuCorrB3	1000	n/a	n/a	1
744.2670000000	n/a	744267	ignore	1700	n/a	n/a	1
745.9670000000	n/a	745967	RewardB3	557	n/a	n/a	1
747.6010000000	n/a	747601	RewardCorrB3	1000	n/a	n/a	1
749.6010000000	n/a	749601	ignore	1700	n/a	n/a	1
751.3010000000	n/a	751301	RewardB3	612	n/a	n/a	1
752.9840000000	n/a	752984	RewardCorrB3	1000	n/a	n/a	1
754.9840000000	n/a	754984	ignore	1700	n/a	n/a	1
756.6840000000	n/a	756684	PenaltyB3	1014	n/a	n/a	0
758.7670000000	n/a	758767	PunIncorrB3	1000	n/a	n/a	1
760.7670000000	n/a	760767	ignore	1700	n/a	n/a	1
762.4670000000	n/a	762467	RewardB3	467	n/a	n/a	1
764.0010000000	n/a	764001	NeuCorrB3	1000	n/a	n/a	1
766.0010000000	n/a	766001	ignore	1700	n/a	n/a	1
767.7010000000	n/a	767701	PenaltyB3	729	n/a	n/a	0
769.5010000000	n/a	769501	PunIncorrB3	1000	n/a	n/a	1
771.5010000000	n/a	771501	ignore	1700	n/a	n/a	1
773.2010000000	n/a	773201	PenaltyB3	1422	n/a	n/a	1
775.7010000000	n/a	775701	NeuCorrB3	1000	n/a	n/a	1
777.7010000000	n/a	777701	ignore	1700	n/a	n/a	1
779.4010000000	n/a	779401	RewardB3	523	n/a	n/a	1
781.0010000000	n/a	781001	RewardCorrB3	1000	n/a	n/a	1
783.0010000000	n/a	783001	ignore	1700	n/a	n/a	1
784.7010000000	n/a	784701	PenaltyB3	1533	n/a	n/a	0
787.3010000000	n/a	787301	PunIncorrB3	1000	n/a	n/a	1
789.3010000000	n/a	789301	ignore	1700	n/a	n/a	1
791.0010000000	n/a	791001	RewardB3	554	n/a	n/a	1
792.6170000000	n/a	792617	NeuCorrB3	1000	n/a	n/a	1
794.6170000000	n/a	794617	ignore	1700	n/a	n/a	1
796.3170000000	n/a	796317	PenaltyB3	528	n/a	n/a	0
797.9170000000	n/a	797917	PunIncorrB3	1000	n/a	n/a	1
799.9170000000	n/a	799917	ignore	1700	n/a	n/a	1
801.6170000000	n/a	801617	RewardB3	1188	n/a	n/a	1
803.8840000000	n/a	803884	RewardCorrB3	1000	n/a	n/a	1
805.8840000000	n/a	805884	ignore	1700	n/a	n/a	1
807.5840000000	n/a	807584	PenaltyB3	1536	n/a	n/a	1
810.1840000000	n/a	810184	PunCorrB3	1000	n/a	n/a	1
812.1840000000	n/a	812184	ignore	1700	n/a	n/a	1
813.8840000000	n/a	813884	PenaltyB3	1602	n/a	n/a	1
816.5510000000	n/a	816551	NeuCorrB3	1000	n/a	n/a	1
818.5510000000	n/a	818551	ignore	1700	n/a	n/a	1
820.2510000000	n/a	820251	PenaltyB3	541	n/a	n/a	1
821.8670000000	n/a	821867	NeuCorrB3	1000	n/a	n/a	1
823.8670000000	n/a	823867	ignore	1700	n/a	n/a	1
825.5670000000	n/a	825567	PenaltyB3	1921	n/a	n/a	0
828.5510000000	n/a	828551	PunIncorrB3	1000	n/a	n/a	1
830.5510000000	n/a	830551	ignore	1700	n/a	n/a	1
832.2510000000	n/a	832251	RewardB3	896	n/a	n/a	1
834.2170000000	n/a	834217	RewardCorrB3	1000	n/a	n/a	1
836.2170000000	n/a	836217	ignore	1700	n/a	n/a	1
837.9170000000	n/a	837917	RewardB3	518	n/a	n/a	1
839.5010000000	n/a	839501	RewardCorrB3	1000	n/a	n/a	1
841.5010000000	n/a	841501	ignore	1700	n/a	n/a	1
843.2010000000	n/a	843201	PenaltyB3	1007	n/a	n/a	1
845.2840000000	n/a	845284	NeuCorrB3	1000	n/a	n/a	1
847.2840000000	n/a	847284	ignore	1700	n/a	n/a	1
848.9840000000	n/a	848984	PenaltyB3	806	n/a	n/a	0
850.8670000000	n/a	850867	PunIncorrB3	1000	n/a	n/a	1
852.8670000000	n/a	852867	ignore	1700	n/a	n/a	1
854.5670000000	n/a	854567	PenaltyB3	2183	n/a	n/a	0
857.8170000000	n/a	857817	PunIncorrB3	1000	n/a	n/a	1
859.8170000000	n/a	859817	ignore	1700	n/a	n/a	1
870.6010000000	n/a	870601	RewardB4	857	n/a	n/a	1
872.5340000000	n/a	872534	RewardCorrB4	1000	n/a	n/a	1
874.5340000000	n/a	874534	ignore	1700	n/a	n/a	1
876.2340000000	n/a	876234	PenaltyB4	976	n/a	n/a	0
878.2840000000	n/a	878284	NeuIncorrB4	1000	n/a	n/a	1
880.2840000000	n/a	880284	ignore	1700	n/a	n/a	1
881.9840000000	n/a	881984	RewardB4	817	n/a	n/a	1
883.8670000000	n/a	883867	RewardCorrB4	1000	n/a	n/a	1
885.8670000000	n/a	885867	ignore	1700	n/a	n/a	1
887.5670000000	n/a	887567	PenaltyB4	462	n/a	n/a	0
889.1000000000	n/a	889100	PunIncorrB4	1000	n/a	n/a	1
891.1010000000	n/a	891101	ignore	1700	n/a	n/a	1
892.8000000000	n/a	892800	RewardB4	466	n/a	n/a	1
894.3340000000	n/a	894334	RewardCorrB4	1000	n/a	n/a	1
896.3340000000	n/a	896334	ignore	1700	n/a	n/a	1
898.0340000000	n/a	898034	PenaltyB4	762	n/a	n/a	1
899.8670000000	n/a	899867	PunCorrB4	1000	n/a	n/a	1
901.8670000000	n/a	901867	ignore	1700	n/a	n/a	1
903.5670000000	n/a	903567	PenaltyB4	1344	n/a	n/a	1
905.9840000000	n/a	905984	NeuCorrB4	1000	n/a	n/a	1
907.9840000000	n/a	907984	ignore	1700	n/a	n/a	1
909.6840000000	n/a	909684	RewardB4	1122	n/a	n/a	1
911.8840000000	n/a	911884	RewardCorrB4	1000	n/a	n/a	1
913.8840000000	n/a	913884	ignore	1700	n/a	n/a	1
915.5840000000	n/a	915584	PenaltyB4	885	n/a	n/a	0
917.5340000000	n/a	917534	PunIncorrB4	1000	n/a	n/a	1
919.5340000000	n/a	919534	ignore	1700	n/a	n/a	1
921.2340000000	n/a	921234	RewardB4	601	n/a	n/a	1
922.9000000000	n/a	922900	NeuCorrB4	1000	n/a	n/a	1
924.9000000000	n/a	924900	ignore	1700	n/a	n/a	1
926.6000000000	n/a	926600	PenaltyB4	960	n/a	n/a	0
928.6340000000	n/a	928634	PunIncorrB4	1000	n/a	n/a	1
930.6340000000	n/a	930634	ignore	1700	n/a	n/a	1
932.3340000000	n/a	932334	RewardB4	670	n/a	n/a	1
934.0670000000	n/a	934067	RewardCorrB4	1000	n/a	n/a	1
936.0670000000	n/a	936067	ignore	1700	n/a	n/a	1
937.7670000000	n/a	937767	PenaltyB4	1021	n/a	n/a	1
939.8500000000	n/a	939850	NeuCorrB4	1000	n/a	n/a	1
941.8500000000	n/a	941850	ignore	1700	n/a	n/a	1
943.5500000000	n/a	943550	PenaltyB4	436	n/a	n/a	1
945.0500000000	n/a	945050	NeuCorrB4	1000	n/a	n/a	1
947.0500000000	n/a	947050	ignore	1700	n/a	n/a	1
948.7500000000	n/a	948750	RewardB4	408	n/a	n/a	1
950.2340000000	n/a	950234	RewardCorrB4	1000	n/a	n/a	1
952.2340000000	n/a	952234	ignore	1700	n/a	n/a	1
953.9340000000	n/a	953934	RewardB4	494	n/a	n/a	1
955.5000000000	n/a	955500	NeuCorrB4	1000	n/a	n/a	1
957.5000000000	n/a	957500	ignore	1700	n/a	n/a	1
959.2000000000	n/a	959200	RewardB4	723	n/a	n/a	1
961.0000000000	n/a	961000	RewardCorrB4	1000	n/a	n/a	1
963.0000000000	n/a	963000	ignore	1700	n/a	n/a	1
964.7000000000	n/a	964700	PenaltyB4	880	n/a	n/a	0
966.6500000000	n/a	966650	PunIncorrB4	1000	n/a	n/a	1
968.6500000000	n/a	968650	ignore	1700	n/a	n/a	1
970.3500000000	n/a	970350	PenaltyB4	681	n/a	n/a	0
972.1000000000	n/a	972100	PunIncorrB4	1000	n/a	n/a	1
974.1000000000	n/a	974100	ignore	1700	n/a	n/a	1
975.8000000000	n/a	975800	PenaltyB4	802	n/a	n/a	1
977.6670000000	n/a	977667	PunCorrB4	1000	n/a	n/a	1
979.6670000000	n/a	979667	ignore	1700	n/a	n/a	1
981.3670000000	n/a	981367	RewardB4	833	n/a	n/a	1
983.2670000000	n/a	983267	RewardCorrB4	1000	n/a	n/a	1
985.2670000000	n/a	985267	ignore	1700	n/a	n/a	1
986.9670000000	n/a	986967	PenaltyB4	2220	n/a	n/a	0
990.2500000000	n/a	990250	PunIncorrB4	1000	n/a	n/a	1
992.2500000000	n/a	992250	ignore	1700	n/a	n/a	1
993.9500000000	n/a	993950	RewardB4	799	n/a	n/a	1
995.8170000000	n/a	995817	RewardCorrB4	1000	n/a	n/a	1
997.8170000000	n/a	997817	ignore	1700	n/a	n/a	1
999.5170000000	n/a	999517	PenaltyB4	1951	n/a	n/a	1
1002.5340000000	n/a	1002534	NeuCorrB4	1000	n/a	n/a	1
1004.5340000000	n/a	1004534	ignore	1700	n/a	n/a	1
1006.2340000000	n/a	1006234	RewardB4	811	n/a	n/a	1
1008.1170000000	n/a	1008117	NeuCorrB4	1000	n/a	n/a	1
1010.1170000000	n/a	1010117	ignore	1700	n/a	n/a	1
1011.8170000000	n/a	1011817	PenaltyB4	633	n/a	n/a	1
1013.5170000000	n/a	1013517	NeuCorrB4	1000	n/a	n/a	1
1015.5170000000	n/a	1015517	ignore	1700	n/a	n/a	1
1017.2170000000	n/a	1017217	RewardB4	598	n/a	n/a	1
1018.8840000000	n/a	1018884	RewardCorrB4	1000	n/a	n/a	1
1020.8840000000	n/a	1020884	ignore	1700	n/a	n/a	1
1022.5840000000	n/a	1022584	PenaltyB4	736	n/a	n/a	0
1024.3840000000	n/a	1024384	PunIncorrB4	1000	n/a	n/a	1
1026.3840000000	n/a	1026384	ignore	1700	n/a	n/a	1
1028.0840000000	n/a	1028084	RewardB4	711	n/a	n/a	1
1029.8670000000	n/a	1029867	RewardCorrB4	1000	n/a	n/a	1
1031.8670000000	n/a	1031867	ignore	1700	n/a	n/a	1
1033.5670000000	n/a	1033567	PenaltyB4	1053	n/a	n/a	1
1035.6840000000	n/a	1035684	PunCorrB4	1000	n/a	n/a	1
1037.6840000000	n/a	1037684	ignore	1700	n/a	n/a	1
1039.3840000000	n/a	1039384	RewardB4	380	n/a	n/a	1
1040.8340000000	n/a	1040834	RewardCorrB4	1000	n/a	n/a	1
1042.8340000000	n/a	1042834	ignore	1700	n/a	n/a	1
1044.5340000000	n/a	1044534	PenaltyB4	2561	n/a	n/a	1
1048.1670000000	n/a	1048167	NeuCorrB4	1000	n/a	n/a	1
1050.1670000000	n/a	1050167	ignore	1700	n/a	n/a	1
1051.8670000000	n/a	1051867	RewardB4	668	n/a	n/a	1
1053.6000000000	n/a	1053600	RewardCorrB4	1000	n/a	n/a	1
1055.6000000000	n/a	1055600	ignore	1700	n/a	n/a	1
1057.3000000000	n/a	1057300	PenaltyB4	2304	n/a	n/a	1
1060.6670000000	n/a	1060667	NeuCorrB4	1000	n/a	n/a	1
1062.6670000000	n/a	1062667	ignore	1700	n/a	n/a	1
1064.3670000000	n/a	1064367	RewardB4	692	n/a	n/a	1
1066.1340000000	n/a	1066134	RewardCorrB4	1000	n/a	n/a	1
1068.1340000000	n/a	1068134	ignore	1700	n/a	n/a	1
1069.8340000000	n/a	1069834	PenaltyB4	1647	n/a	n/a	1
1072.5500000000	n/a	1072550	NeuCorrB4	1000	n/a	n/a	1
1074.5500000000	n/a	1074550	ignore	1700	n/a	n/a	1
1076.2500000000	n/a	1076250	RewardB4	638	n/a	n/a	1
1077.9500000000	n/a	1077950	NeuCorrB4	1000	n/a	n/a	1
1079.9500000000	n/a	1079950	ignore	1700	n/a	n/a	1
1081.6500000000	n/a	1081650	RewardB4	477	n/a	n/a	1
1083.2000000000	n/a	1083200	RewardCorrB4	1000	n/a	n/a	1
1085.2000000000	n/a	1085200	ignore	1700	n/a	n/a	1
1086.9000000000	n/a	1086900	PenaltyB4	900	n/a	n/a	1
1088.8670000000	n/a	1088867	NeuCorrB4	1000	n/a	n/a	1
1090.8670000000	n/a	1090867	ignore	1700	n/a	n/a	1
1092.5670000000	n/a	1092567	RewardB4	532	n/a	n/a	1
1094.1670000000	n/a	1094167	RewardCorrB4	1000	n/a	n/a	1
1096.1670000000	n/a	1096167	ignore	1700	n/a	n/a	1
