onset	duration	sample	trial_type	response_time	stim_file	value	correct
3.3920000000	n/a	3392	FrequentFixedSOA	1633	n/a	n/a	1
5.0250000000	n/a	5025	FrequentFixedSOA	1633	n/a	n/a	1
6.6580000000	n/a	6658	FrequentFixedSOA	1633	n/a	n/a	1
8.2910000000	n/a	8291	FrequentFixedSOA	1633	n/a	n/a	1
9.9250000000	n/a	9925	FrequentFixedSOA	1633	n/a	n/a	1
11.5580000000	n/a	11558	FrequentFixedSOA	1633	n/a	n/a	1
13.1910000000	n/a	13191	FrequentFixedSOA	1633	n/a	n/a	1
14.8250000000	n/a	14825	FrequentFixedSOA	1633	n/a	n/a	1
16.4580000000	n/a	16458	FrequentFixedSOA	1633	n/a	n/a	1
18.0910000000	n/a	18091	FrequentFixedSOA	1633	n/a	n/a	1
19.7250000000	n/a	19725	NovelFixedSOA	1633	n/a	n/a	1
21.3580000000	n/a	21358	FrequentFixedSOA	1633	n/a	n/a	1
22.9910000000	n/a	22991	GoFixedSOA	462	n/a	n/a	1
24.6250000000	n/a	24625	FrequentFixedSOA	1633	n/a	n/a	1
26.2580000000	n/a	26258	FrequentFixedSOA	1633	n/a	n/a	1
27.8910000000	n/a	27891	FrequentFixedSOA	1633	n/a	n/a	1
29.5250000000	n/a	29525	GoFixedSOA	337	n/a	n/a	1
31.1580000000	n/a	31158	FrequentFixedSOA	1633	n/a	n/a	1
32.7910000000	n/a	32791	FrequentFixedSOA	1633	n/a	n/a	1
34.4250000000	n/a	34425	FrequentFixedSOA	1633	n/a	n/a	1
36.0580000000	n/a	36058	NovelFixedSOA	1633	n/a	n/a	1
37.6910000000	n/a	37691	FrequentFixedSOA	1633	n/a	n/a	1
39.3250000000	n/a	39325	FrequentFixedSOA	1633	n/a	n/a	1
40.9580000000	n/a	40958	FrequentFixedSOA	1633	n/a	n/a	1
42.5910000000	n/a	42591	GoFixedSOA	436	n/a	n/a	1
44.2250000000	n/a	44225	FrequentFixedSOA	1633	n/a	n/a	1
45.8580000000	n/a	45858	NovelFixedSOA	1633	n/a	n/a	1
47.4910000000	n/a	47491	FrequentFixedSOA	1633	n/a	n/a	1
49.1250000000	n/a	49125	FrequentFixedSOA	1633	n/a	n/a	1
50.7580000000	n/a	50758	FrequentFixedSOA	1633	n/a	n/a	1
52.3910000000	n/a	52391	GoFixedSOA	444	n/a	n/a	1
54.0250000000	n/a	54025	FrequentFixedSOA	1633	n/a	n/a	1
55.6580000000	n/a	55658	GoFixedSOA	537	n/a	n/a	1
57.2910000000	n/a	57291	FrequentFixedSOA	1633	n/a	n/a	1
58.9250000000	n/a	58925	FrequentFixedSOA	1633	n/a	n/a	1
60.5580000000	n/a	60558	GoFixedSOA	642	n/a	n/a	1
62.1910000000	n/a	62191	FrequentFixedSOA	1633	n/a	n/a	1
63.8250000000	n/a	63825	FrequentFixedSOA	1633	n/a	n/a	1
65.4580000000	n/a	65458	FrequentFixedSOA	1633	n/a	n/a	1
67.0910000000	n/a	67091	FrequentFixedSOA	1633	n/a	n/a	1
68.7250000000	n/a	68725	NovelFixedSOA	1633	n/a	n/a	1
70.3580000000	n/a	70358	FrequentFixedSOA	1633	n/a	n/a	1
71.9910000000	n/a	71991	NovelFixedSOA	1633	n/a	n/a	1
73.6250000000	n/a	73625	FrequentFixedSOA	1633	n/a	n/a	1
75.2580000000	n/a	75258	FrequentFixedSOA	1633	n/a	n/a	1
76.8910000000	n/a	76891	GoFixedSOA	413	n/a	n/a	1
78.5250000000	n/a	78525	FrequentFixedSOA	1633	n/a	n/a	1
80.1580000000	n/a	80158	FrequentFixedSOA	1633	n/a	n/a	1
81.7910000000	n/a	81791	FrequentFixedSOA	1633	n/a	n/a	1
83.4250000000	n/a	83425	FrequentFixedSOA	1633	n/a	n/a	1
85.0580000000	n/a	85058	NovelFixedSOA	1633	n/a	n/a	1
86.6910000000	n/a	86691	FrequentFixedSOA	1633	n/a	n/a	1
88.3250000000	n/a	88325	FrequentFixedSOA	1633	n/a	n/a	1
89.9580000000	n/a	89958	FrequentFixedSOA	1633	n/a	n/a	1
91.5910000000	n/a	91591	FrequentFixedSOA	1633	n/a	n/a	1
93.2250000000	n/a	93225	GoFixedSOA	1633	n/a	n/a	0
94.8580000000	n/a	94858	FrequentFixedSOA	1633	n/a	n/a	1
96.4910000000	n/a	96491	FrequentFixedSOA	1633	n/a	n/a	1
98.1250000000	n/a	98125	NovelFixedSOA	1633	n/a	n/a	1
99.7580000000	n/a	99758	FrequentFixedSOA	1633	n/a	n/a	1
101.3910000000	n/a	101391	FrequentFixedSOA	1633	n/a	n/a	1
103.0250000000	n/a	103025	GoFixedSOA	363	n/a	n/a	1
104.6580000000	n/a	104658	FrequentFixedSOA	1633	n/a	n/a	1
106.2910000000	n/a	106291	FrequentFixedSOA	1633	n/a	n/a	1
107.9250000000	n/a	107925	FrequentFixedSOA	1633	n/a	n/a	1
109.5580000000	n/a	109558	FrequentFixedSOA	1633	n/a	n/a	1
111.1910000000	n/a	111191	NovelFixedSOA	1633	n/a	n/a	1
112.8250000000	n/a	112825	FrequentFixedSOA	1633	n/a	n/a	1
114.4580000000	n/a	114458	FrequentFixedSOA	1633	n/a	n/a	1
116.0910000000	n/a	116091	GoFixedSOA	472	n/a	n/a	1
117.7250000000	n/a	117725	FrequentVariableSOA	1533	n/a	n/a	1
119.2580000000	n/a	119258	FrequentVariableSOA	1716	n/a	n/a	1
120.9750000000	n/a	120975	FrequentVariableSOA	1600	n/a	n/a	1
122.5750000000	n/a	122575	FrequentVariableSOA	1533	n/a	n/a	1
124.1080000000	n/a	124108	FrequentVariableSOA	1766	n/a	n/a	1
125.8750000000	n/a	125875	FrequentVariableSOA	1550	n/a	n/a	1
127.4250000000	n/a	127425	FrequentVariableSOA	1533	n/a	n/a	1
128.9580000000	n/a	128958	FrequentVariableSOA	1733	n/a	n/a	1
130.6910000000	n/a	130691	FrequentVariableSOA	1683	n/a	n/a	1
132.3750000000	n/a	132375	FrequentVariableSOA	1650	n/a	n/a	1
134.0250000000	n/a	134025	NovelVariableSOA	1650	n/a	n/a	1
135.6750000000	n/a	135675	FrequentVariableSOA	1700	n/a	n/a	1
137.3750000000	n/a	137375	GoVariableSOA	320	n/a	n/a	1
139.0410000000	n/a	139041	FrequentVariableSOA	1750	n/a	n/a	1
140.7910000000	n/a	140791	FrequentVariableSOA	1500	n/a	n/a	1
142.2910000000	n/a	142291	FrequentVariableSOA	1766	n/a	n/a	1
144.0580000000	n/a	144058	GoVariableSOA	467	n/a	n/a	1
145.6910000000	n/a	145691	FrequentVariableSOA	1700	n/a	n/a	1
147.3910000000	n/a	147391	FrequentVariableSOA	1783	n/a	n/a	1
149.1750000000	n/a	149175	FrequentVariableSOA	1783	n/a	n/a	1
150.9580000000	n/a	150958	NovelVariableSOA	1650	n/a	n/a	1
152.6080000000	n/a	152608	FrequentVariableSOA	1583	n/a	n/a	1
154.1910000000	n/a	154191	FrequentVariableSOA	1783	n/a	n/a	1
155.9750000000	n/a	155975	FrequentVariableSOA	1600	n/a	n/a	1
157.5750000000	n/a	157575	GoVariableSOA	446	n/a	n/a	1
159.3410000000	n/a	159341	FrequentVariableSOA	1550	n/a	n/a	1
160.8910000000	n/a	160891	NovelVariableSOA	1733	n/a	n/a	1
162.6250000000	n/a	162625	FrequentVariableSOA	1533	n/a	n/a	1
164.1580000000	n/a	164158	FrequentVariableSOA	1750	n/a	n/a	1
165.9080000000	n/a	165908	FrequentVariableSOA	1700	n/a	n/a	1
167.6080000000	n/a	167608	GoVariableSOA	429	n/a	n/a	1
169.3750000000	n/a	169375	FrequentVariableSOA	1600	n/a	n/a	1
170.9750000000	n/a	170975	GoVariableSOA	1633	n/a	n/a	0
172.6080000000	n/a	172608	FrequentVariableSOA	1733	n/a	n/a	1
174.3410000000	n/a	174341	FrequentVariableSOA	1666	n/a	n/a	1
176.0080000000	n/a	176008	GoVariableSOA	535	n/a	n/a	1
177.7580000000	n/a	177758	FrequentVariableSOA	1516	n/a	n/a	1
179.2750000000	n/a	179275	FrequentVariableSOA	1566	n/a	n/a	1
180.8410000000	n/a	180841	FrequentVariableSOA	1783	n/a	n/a	1
182.6250000000	n/a	182625	FrequentVariableSOA	1633	n/a	n/a	1
184.2580000000	n/a	184258	NovelVariableSOA	1533	n/a	n/a	1
185.7910000000	n/a	185791	FrequentVariableSOA	1666	n/a	n/a	1
187.4580000000	n/a	187458	NovelVariableSOA	1533	n/a	n/a	1
188.9910000000	n/a	188991	FrequentVariableSOA	1633	n/a	n/a	1
190.6250000000	n/a	190625	FrequentVariableSOA	1633	n/a	n/a	1
192.2580000000	n/a	192258	GoVariableSOA	488	n/a	n/a	1
193.9910000000	n/a	193991	FrequentVariableSOA	1566	n/a	n/a	1
195.5580000000	n/a	195558	FrequentVariableSOA	1700	n/a	n/a	1
197.2580000000	n/a	197258	FrequentVariableSOA	1533	n/a	n/a	1
198.7910000000	n/a	198791	FrequentVariableSOA	1600	n/a	n/a	1
200.3910000000	n/a	200391	NovelVariableSOA	1550	n/a	n/a	1
201.9410000000	n/a	201941	FrequentVariableSOA	1633	n/a	n/a	1
203.5750000000	n/a	203575	FrequentVariableSOA	1766	n/a	n/a	1
205.3410000000	n/a	205341	FrequentVariableSOA	1750	n/a	n/a	1
207.0910000000	n/a	207091	FrequentVariableSOA	1650	n/a	n/a	1
208.7410000000	n/a	208741	GoVariableSOA	401	n/a	n/a	1
210.2580000000	n/a	210258	FrequentVariableSOA	1633	n/a	n/a	1
211.8910000000	n/a	211891	FrequentVariableSOA	1583	n/a	n/a	1
213.4740000000	n/a	213474	NovelVariableSOA	1550	n/a	n/a	1
215.0240000000	n/a	215024	FrequentVariableSOA	1600	n/a	n/a	1
216.6240000000	n/a	216624	FrequentVariableSOA	1616	n/a	n/a	1
218.2410000000	n/a	218241	GoVariableSOA	354	n/a	n/a	1
219.8080000000	n/a	219808	FrequentVariableSOA	1533	n/a	n/a	1
221.3410000000	n/a	221341	FrequentVariableSOA	1766	n/a	n/a	1
223.1080000000	n/a	223108	FrequentVariableSOA	1800	n/a	n/a	1
224.9080000000	n/a	224908	FrequentVariableSOA	1783	n/a	n/a	1
226.6910000000	n/a	226691	NovelVariableSOA	1633	n/a	n/a	1
228.3240000000	n/a	228324	FrequentVariableSOA	1600	n/a	n/a	1
229.9240000000	n/a	229924	FrequentVariableSOA	1566	n/a	n/a	1
231.4910000000	n/a	231491	GoVariableSOA	356	n/a	n/a	1
233.1240000000	n/a	233124	FrequentFixedSOA	1633	n/a	n/a	1
234.7580000000	n/a	234758	FrequentFixedSOA	1633	n/a	n/a	1
236.3910000000	n/a	236391	FrequentFixedSOA	1633	n/a	n/a	1
238.0240000000	n/a	238024	GoFixedSOA	381	n/a	n/a	1
239.6580000000	n/a	239658	FrequentFixedSOA	1633	n/a	n/a	1
241.2910000000	n/a	241291	FrequentFixedSOA	1633	n/a	n/a	1
242.9240000000	n/a	242924	FrequentFixedSOA	1633	n/a	n/a	1
244.5580000000	n/a	244558	GoFixedSOA	329	n/a	n/a	1
246.1910000000	n/a	246191	FrequentFixedSOA	1633	n/a	n/a	1
247.8240000000	n/a	247824	FrequentFixedSOA	1633	n/a	n/a	1
249.4580000000	n/a	249458	FrequentFixedSOA	1633	n/a	n/a	1
251.0910000000	n/a	251091	NovelFixedSOA	1633	n/a	n/a	1
252.7240000000	n/a	252724	FrequentFixedSOA	1633	n/a	n/a	1
254.3580000000	n/a	254358	NovelFixedSOA	1633	n/a	n/a	1
255.9910000000	n/a	255991	FrequentFixedSOA	1633	n/a	n/a	1
257.6240000000	n/a	257624	FrequentFixedSOA	1633	n/a	n/a	1
259.2580000000	n/a	259258	NovelFixedSOA	1633	n/a	n/a	1
260.8910000000	n/a	260891	FrequentFixedSOA	1633	n/a	n/a	1
262.5240000000	n/a	262524	FrequentFixedSOA	1633	n/a	n/a	1
264.1580000000	n/a	264158	FrequentFixedSOA	1633	n/a	n/a	1
265.7910000000	n/a	265791	FrequentFixedSOA	1633	n/a	n/a	1
267.4240000000	n/a	267424	FrequentFixedSOA	1633	n/a	n/a	1
269.0580000000	n/a	269058	NovelFixedSOA	1633	n/a	n/a	1
270.6910000000	n/a	270691	FrequentFixedSOA	1633	n/a	n/a	1
272.3240000000	n/a	272324	FrequentFixedSOA	1633	n/a	n/a	1
273.9580000000	n/a	273958	FrequentFixedSOA	1633	n/a	n/a	1
275.5910000000	n/a	275591	FrequentFixedSOA	1633	n/a	n/a	1
277.2240000000	n/a	277224	FrequentFixedSOA	1633	n/a	n/a	1
278.8580000000	n/a	278858	GoFixedSOA	397	n/a	n/a	1
280.4910000000	n/a	280491	FrequentFixedSOA	1633	n/a	n/a	1
282.1240000000	n/a	282124	FrequentFixedSOA	1633	n/a	n/a	1
283.7580000000	n/a	283758	GoFixedSOA	1633	n/a	n/a	0
285.3910000000	n/a	285391	FrequentFixedSOA	1633	n/a	n/a	1
287.0240000000	n/a	287024	NovelFixedSOA	1633	n/a	n/a	1
288.6580000000	n/a	288658	FrequentFixedSOA	1633	n/a	n/a	1
290.2910000000	n/a	290291	GoFixedSOA	1633	n/a	n/a	0
291.9240000000	n/a	291924	FrequentFixedSOA	1633	n/a	n/a	1
293.5580000000	n/a	293558	GoFixedSOA	535	n/a	n/a	1
295.1910000000	n/a	295191	FrequentFixedSOA	1633	n/a	n/a	1
296.8240000000	n/a	296824	FrequentFixedSOA	1633	n/a	n/a	1
298.4580000000	n/a	298458	FrequentFixedSOA	1633	n/a	n/a	1
300.0910000000	n/a	300091	FrequentFixedSOA	1633	n/a	n/a	1
301.7240000000	n/a	301724	GoFixedSOA	481	n/a	n/a	1
303.3580000000	n/a	303358	FrequentFixedSOA	1633	n/a	n/a	1
304.9910000000	n/a	304991	FrequentFixedSOA	1633	n/a	n/a	1
306.6240000000	n/a	306624	FrequentFixedSOA	1633	n/a	n/a	1
308.2580000000	n/a	308258	NovelFixedSOA	1633	n/a	n/a	1
309.8910000000	n/a	309891	FrequentFixedSOA	1633	n/a	n/a	1
311.5240000000	n/a	311524	FrequentFixedSOA	1633	n/a	n/a	1
313.1580000000	n/a	313158	FrequentFixedSOA	1633	n/a	n/a	1
314.7910000000	n/a	314791	FrequentFixedSOA	1633	n/a	n/a	1
316.4240000000	n/a	316424	NovelFixedSOA	1633	n/a	n/a	1
318.0580000000	n/a	318058	FrequentFixedSOA	1633	n/a	n/a	1
319.6910000000	n/a	319691	FrequentFixedSOA	1633	n/a	n/a	1
321.3240000000	n/a	321324	FrequentFixedSOA	1633	n/a	n/a	1
322.9580000000	n/a	322958	FrequentFixedSOA	1633	n/a	n/a	1
324.5910000000	n/a	324591	NovelFixedSOA	1633	n/a	n/a	1
326.2240000000	n/a	326224	FrequentFixedSOA	1633	n/a	n/a	1
327.8580000000	n/a	327858	FrequentFixedSOA	1633	n/a	n/a	1
329.4910000000	n/a	329491	GoFixedSOA	1633	n/a	n/a	0
331.1240000000	n/a	331124	FrequentFixedSOA	1633	n/a	n/a	1
332.7580000000	n/a	332758	FrequentFixedSOA	1633	n/a	n/a	1
334.3910000000	n/a	334391	FrequentFixedSOA	1633	n/a	n/a	1
336.0240000000	n/a	336024	FrequentFixedSOA	1633	n/a	n/a	1
337.6580000000	n/a	337658	NovelFixedSOA	1633	n/a	n/a	1
339.2910000000	n/a	339291	FrequentFixedSOA	1633	n/a	n/a	1
340.9240000000	n/a	340924	FrequentFixedSOA	1633	n/a	n/a	1
342.5580000000	n/a	342558	FrequentFixedSOA	1633	n/a	n/a	1
344.1910000000	n/a	344191	FrequentFixedSOA	1633	n/a	n/a	1
345.8240000000	n/a	345824	FrequentFixedSOA	1633	n/a	n/a	1
347.4580000000	n/a	347458	FrequentVariableSOA	1566	n/a	n/a	1
349.0240000000	n/a	349024	FrequentVariableSOA	1633	n/a	n/a	1
350.6580000000	n/a	350658	FrequentVariableSOA	1516	n/a	n/a	1
352.1740000000	n/a	352174	GoVariableSOA	597	n/a	n/a	1
353.8740000000	n/a	353874	FrequentVariableSOA	1533	n/a	n/a	1
355.4080000000	n/a	355408	FrequentVariableSOA	1550	n/a	n/a	1
356.9580000000	n/a	356958	FrequentVariableSOA	1733	n/a	n/a	1
358.6910000000	n/a	358691	GoVariableSOA	420	n/a	n/a	1
360.3240000000	n/a	360324	FrequentVariableSOA	1733	n/a	n/a	1
362.0580000000	n/a	362058	FrequentVariableSOA	1683	n/a	n/a	1
363.7410000000	n/a	363741	FrequentVariableSOA	1750	n/a	n/a	1
365.4910000000	n/a	365491	NovelVariableSOA	1800	n/a	n/a	1
367.2910000000	n/a	367291	FrequentVariableSOA	1633	n/a	n/a	1
368.9240000000	n/a	368924	NovelVariableSOA	1583	n/a	n/a	1
370.5080000000	n/a	370508	FrequentVariableSOA	1750	n/a	n/a	1
372.2580000000	n/a	372258	FrequentVariableSOA	1650	n/a	n/a	1
373.9080000000	n/a	373908	NovelVariableSOA	1750	n/a	n/a	1
375.6580000000	n/a	375658	FrequentVariableSOA	1766	n/a	n/a	1
377.4240000000	n/a	377424	FrequentVariableSOA	1616	n/a	n/a	1
379.0410000000	n/a	379041	FrequentVariableSOA	1650	n/a	n/a	1
380.6910000000	n/a	380691	FrequentVariableSOA	1550	n/a	n/a	1
382.2410000000	n/a	382241	FrequentVariableSOA	1750	n/a	n/a	1
383.9910000000	n/a	383991	NovelVariableSOA	1716	n/a	n/a	1
385.7080000000	n/a	385708	FrequentVariableSOA	1550	n/a	n/a	1
387.2580000000	n/a	387258	FrequentVariableSOA	1516	n/a	n/a	1
388.7740000000	n/a	388774	FrequentVariableSOA	1550	n/a	n/a	1
390.3240000000	n/a	390324	FrequentVariableSOA	1533	n/a	n/a	1
391.8580000000	n/a	391858	FrequentVariableSOA	1600	n/a	n/a	1
393.4580000000	n/a	393458	GoVariableSOA	503	n/a	n/a	1
395.2580000000	n/a	395258	FrequentVariableSOA	1566	n/a	n/a	1
396.8240000000	n/a	396824	FrequentVariableSOA	1716	n/a	n/a	1
398.5410000000	n/a	398541	GoVariableSOA	401	n/a	n/a	1
400.0740000000	n/a	400074	FrequentVariableSOA	1616	n/a	n/a	1
401.6910000000	n/a	401691	NovelVariableSOA	1500	n/a	n/a	1
403.1910000000	n/a	403191	FrequentVariableSOA	1516	n/a	n/a	1
404.7080000000	n/a	404708	GoVariableSOA	1616	n/a	n/a	0
406.3240000000	n/a	406324	FrequentVariableSOA	1566	n/a	n/a	1
407.8910000000	n/a	407891	GoVariableSOA	452	n/a	n/a	1
409.4410000000	n/a	409441	FrequentVariableSOA	1716	n/a	n/a	1
411.1580000000	n/a	411158	FrequentVariableSOA	1716	n/a	n/a	1
412.8740000000	n/a	412874	FrequentVariableSOA	1616	n/a	n/a	1
414.4910000000	n/a	414491	FrequentVariableSOA	1733	n/a	n/a	1
416.2240000000	n/a	416224	GoVariableSOA	451	n/a	n/a	1
417.9240000000	n/a	417924	FrequentVariableSOA	1750	n/a	n/a	1
419.6740000000	n/a	419674	FrequentVariableSOA	1650	n/a	n/a	1
421.3240000000	n/a	421324	FrequentVariableSOA	1700	n/a	n/a	1
423.0240000000	n/a	423024	NovelVariableSOA	1683	n/a	n/a	1
424.7080000000	n/a	424708	FrequentVariableSOA	1783	n/a	n/a	1
426.4910000000	n/a	426491	FrequentVariableSOA	1583	n/a	n/a	1
428.0740000000	n/a	428074	FrequentVariableSOA	1783	n/a	n/a	1
429.8580000000	n/a	429858	FrequentVariableSOA	1600	n/a	n/a	1
431.4570000000	n/a	431457	NovelVariableSOA	1750	n/a	n/a	1
433.2070000000	n/a	433207	FrequentVariableSOA	1683	n/a	n/a	1
434.8910000000	n/a	434891	FrequentVariableSOA	1516	n/a	n/a	1
436.4070000000	n/a	436407	FrequentVariableSOA	1616	n/a	n/a	1
438.0240000000	n/a	438024	FrequentVariableSOA	1533	n/a	n/a	1
439.5570000000	n/a	439557	NovelVariableSOA	1783	n/a	n/a	1
441.3410000000	n/a	441341	FrequentVariableSOA	1700	n/a	n/a	1
443.0410000000	n/a	443041	FrequentVariableSOA	1633	n/a	n/a	1
444.6740000000	n/a	444674	GoVariableSOA	517	n/a	n/a	1
446.2410000000	n/a	446241	FrequentVariableSOA	1650	n/a	n/a	1
447.8910000000	n/a	447891	FrequentVariableSOA	1650	n/a	n/a	1
449.5410000000	n/a	449541	FrequentVariableSOA	1716	n/a	n/a	1
451.2570000000	n/a	451257	FrequentVariableSOA	1583	n/a	n/a	1
452.8410000000	n/a	452841	NovelVariableSOA	1716	n/a	n/a	1
454.5570000000	n/a	454557	FrequentVariableSOA	1583	n/a	n/a	1
456.1410000000	n/a	456141	FrequentVariableSOA	1783	n/a	n/a	1
457.9240000000	n/a	457924	FrequentVariableSOA	1616	n/a	n/a	1
459.5410000000	n/a	459541	FrequentVariableSOA	1666	n/a	n/a	1
461.2070000000	n/a	461207	FrequentVariableSOA	1600	n/a	n/a	1
462.8070000000	n/a	462807	GoFixedSOA	1633	n/a	n/a	0
464.4410000000	n/a	464441	FrequentFixedSOA	1633	n/a	n/a	1
466.0740000000	n/a	466074	FrequentFixedSOA	1633	n/a	n/a	1
467.7070000000	n/a	467707	FrequentFixedSOA	1633	n/a	n/a	1
469.3410000000	n/a	469341	FrequentFixedSOA	1633	n/a	n/a	1
470.9740000000	n/a	470974	FrequentFixedSOA	1633	n/a	n/a	1
472.6070000000	n/a	472607	FrequentFixedSOA	1633	n/a	n/a	1
474.2410000000	n/a	474241	NovelFixedSOA	1633	n/a	n/a	1
475.8740000000	n/a	475874	FrequentFixedSOA	1633	n/a	n/a	1
477.5070000000	n/a	477507	FrequentFixedSOA	1633	n/a	n/a	1
479.1410000000	n/a	479141	FrequentFixedSOA	1633	n/a	n/a	1
480.7740000000	n/a	480774	NovelFixedSOA	1633	n/a	n/a	1
482.4070000000	n/a	482407	FrequentFixedSOA	1633	n/a	n/a	1
484.0410000000	n/a	484041	GoFixedSOA	443	n/a	n/a	1
485.6740000000	n/a	485674	FrequentFixedSOA	1633	n/a	n/a	1
487.3070000000	n/a	487307	FrequentFixedSOA	1633	n/a	n/a	1
488.9410000000	n/a	488941	GoFixedSOA	624	n/a	n/a	1
490.5740000000	n/a	490574	FrequentFixedSOA	1633	n/a	n/a	1
492.2070000000	n/a	492207	NovelFixedSOA	1633	n/a	n/a	1
493.8410000000	n/a	493841	FrequentFixedSOA	1633	n/a	n/a	1
495.4740000000	n/a	495474	FrequentFixedSOA	1633	n/a	n/a	1
497.1070000000	n/a	497107	FrequentFixedSOA	1633	n/a	n/a	1
498.7410000000	n/a	498741	FrequentFixedSOA	1633	n/a	n/a	1
500.3740000000	n/a	500374	FrequentFixedSOA	1633	n/a	n/a	1
502.0070000000	n/a	502007	GoFixedSOA	451	n/a	n/a	1
503.6410000000	n/a	503641	FrequentFixedSOA	1633	n/a	n/a	1
505.2740000000	n/a	505274	FrequentFixedSOA	1633	n/a	n/a	1
506.9070000000	n/a	506907	NovelFixedSOA	1633	n/a	n/a	1
508.5410000000	n/a	508541	FrequentFixedSOA	1633	n/a	n/a	1
510.1740000000	n/a	510174	FrequentFixedSOA	1633	n/a	n/a	1
511.8070000000	n/a	511807	FrequentFixedSOA	1633	n/a	n/a	1
513.4410000000	n/a	513441	FrequentFixedSOA	1633	n/a	n/a	1
515.0740000000	n/a	515074	FrequentFixedSOA	1633	n/a	n/a	1
516.7070000000	n/a	516707	NovelFixedSOA	1633	n/a	n/a	1
518.3410000000	n/a	518341	FrequentFixedSOA	1633	n/a	n/a	1
519.9740000000	n/a	519974	FrequentFixedSOA	1633	n/a	n/a	1
521.6070000000	n/a	521607	FrequentFixedSOA	1633	n/a	n/a	1
523.2410000000	n/a	523241	FrequentFixedSOA	1633	n/a	n/a	1
524.8740000000	n/a	524874	GoFixedSOA	1633	n/a	n/a	0
526.5070000000	n/a	526507	FrequentFixedSOA	1633	n/a	n/a	1
528.1410000000	n/a	528141	FrequentFixedSOA	1633	n/a	n/a	1
529.7740000000	n/a	529774	NovelFixedSOA	1633	n/a	n/a	1
531.4070000000	n/a	531407	FrequentFixedSOA	1633	n/a	n/a	1
533.0410000000	n/a	533041	FrequentFixedSOA	1633	n/a	n/a	1
534.6740000000	n/a	534674	NovelFixedSOA	1633	n/a	n/a	1
536.3070000000	n/a	536307	FrequentFixedSOA	1633	n/a	n/a	1
537.9410000000	n/a	537941	FrequentFixedSOA	1633	n/a	n/a	1
539.5740000000	n/a	539574	FrequentFixedSOA	1633	n/a	n/a	1
541.2070000000	n/a	541207	FrequentFixedSOA	1633	n/a	n/a	1
542.8410000000	n/a	542841	FrequentFixedSOA	1633	n/a	n/a	1
544.4740000000	n/a	544474	GoFixedSOA	1633	n/a	n/a	0
546.1070000000	n/a	546107	FrequentFixedSOA	1633	n/a	n/a	1
547.7410000000	n/a	547741	FrequentFixedSOA	1633	n/a	n/a	1
549.3740000000	n/a	549374	FrequentFixedSOA	1633	n/a	n/a	1
551.0070000000	n/a	551007	FrequentFixedSOA	1633	n/a	n/a	1
552.6410000000	n/a	552641	FrequentFixedSOA	1633	n/a	n/a	1
554.2740000000	n/a	554274	NovelFixedSOA	1633	n/a	n/a	1
555.9070000000	n/a	555907	FrequentFixedSOA	1633	n/a	n/a	1
557.5410000000	n/a	557541	GoFixedSOA	470	n/a	n/a	1
559.1740000000	n/a	559174	FrequentFixedSOA	1633	n/a	n/a	1
560.8070000000	n/a	560807	FrequentFixedSOA	1633	n/a	n/a	1
562.4410000000	n/a	562441	FrequentFixedSOA	1633	n/a	n/a	1
564.0740000000	n/a	564074	FrequentFixedSOA	1633	n/a	n/a	1
565.7070000000	n/a	565707	FrequentFixedSOA	1633	n/a	n/a	1
567.3410000000	n/a	567341	FrequentFixedSOA	1633	n/a	n/a	1
568.9740000000	n/a	568974	FrequentFixedSOA	1633	n/a	n/a	1
570.6070000000	n/a	570607	FrequentFixedSOA	1633	n/a	n/a	1
572.2410000000	n/a	572241	NovelFixedSOA	1633	n/a	n/a	1
573.8740000000	n/a	573874	FrequentFixedSOA	1633	n/a	n/a	1
575.5070000000	n/a	575507	FrequentFixedSOA	1633	n/a	n/a	1
577.1410000000	n/a	577141	GoVariableSOA	364	n/a	n/a	1
578.6740000000	n/a	578674	FrequentVariableSOA	1533	n/a	n/a	1
580.2070000000	n/a	580207	FrequentVariableSOA	1733	n/a	n/a	1
581.9410000000	n/a	581941	FrequentVariableSOA	1550	n/a	n/a	1
583.4910000000	n/a	583491	FrequentVariableSOA	1766	n/a	n/a	1
585.2570000000	n/a	585257	FrequentVariableSOA	1600	n/a	n/a	1
586.8570000000	n/a	586857	FrequentVariableSOA	1633	n/a	n/a	1
588.4910000000	n/a	588491	NovelVariableSOA	1616	n/a	n/a	1
590.1070000000	n/a	590107	FrequentVariableSOA	1566	n/a	n/a	1
591.6740000000	n/a	591674	FrequentVariableSOA	1616	n/a	n/a	1
593.2910000000	n/a	593291	FrequentVariableSOA	1583	n/a	n/a	1
594.8740000000	n/a	594874	NovelVariableSOA	1616	n/a	n/a	1
596.4910000000	n/a	596491	FrequentVariableSOA	1600	n/a	n/a	1
598.0910000000	n/a	598091	GoVariableSOA	1700	n/a	n/a	0
599.7910000000	n/a	599791	FrequentVariableSOA	1766	n/a	n/a	1
601.5570000000	n/a	601557	FrequentVariableSOA	1516	n/a	n/a	1
603.0740000000	n/a	603074	GoVariableSOA	493	n/a	n/a	1
604.7740000000	n/a	604774	FrequentVariableSOA	1616	n/a	n/a	1
606.3910000000	n/a	606391	NovelVariableSOA	1500	n/a	n/a	1
607.8910000000	n/a	607891	FrequentVariableSOA	1750	n/a	n/a	1
609.6410000000	n/a	609641	FrequentVariableSOA	1766	n/a	n/a	1
611.4070000000	n/a	611407	FrequentVariableSOA	1533	n/a	n/a	1
612.9410000000	n/a	612941	FrequentVariableSOA	1800	n/a	n/a	1
614.7410000000	n/a	614741	FrequentVariableSOA	1700	n/a	n/a	1
616.4410000000	n/a	616441	GoVariableSOA	1500	n/a	n/a	0
617.9410000000	n/a	617941	FrequentVariableSOA	1650	n/a	n/a	1
619.5910000000	n/a	619591	FrequentVariableSOA	1700	n/a	n/a	1
621.2910000000	n/a	621291	NovelVariableSOA	1600	n/a	n/a	1
622.8910000000	n/a	622891	FrequentVariableSOA	1750	n/a	n/a	1
624.6410000000	n/a	624641	FrequentVariableSOA	1666	n/a	n/a	1
626.3070000000	n/a	626307	FrequentVariableSOA	1716	n/a	n/a	1
628.0240000000	n/a	628024	FrequentVariableSOA	1716	n/a	n/a	1
629.7410000000	n/a	629741	FrequentVariableSOA	1733	n/a	n/a	1
631.4740000000	n/a	631474	NovelVariableSOA	1716	n/a	n/a	1
633.1910000000	n/a	633191	FrequentVariableSOA	1733	n/a	n/a	1
634.9240000000	n/a	634924	FrequentVariableSOA	1700	n/a	n/a	1
636.6240000000	n/a	636624	FrequentVariableSOA	1533	n/a	n/a	1
638.1570000000	n/a	638157	FrequentVariableSOA	1766	n/a	n/a	1
639.9240000000	n/a	639924	GoVariableSOA	539	n/a	n/a	1
641.7070000000	n/a	641707	FrequentVariableSOA	1700	n/a	n/a	1
643.4070000000	n/a	643407	FrequentVariableSOA	1600	n/a	n/a	1
645.0070000000	n/a	645007	NovelVariableSOA	1766	n/a	n/a	1
646.7740000000	n/a	646774	FrequentVariableSOA	1583	n/a	n/a	1
648.3570000000	n/a	648357	FrequentVariableSOA	1550	n/a	n/a	1
649.9070000000	n/a	649907	NovelVariableSOA	1716	n/a	n/a	1
651.6240000000	n/a	651624	FrequentVariableSOA	1600	n/a	n/a	1
653.2240000000	n/a	653224	FrequentVariableSOA	1500	n/a	n/a	1
654.7240000000	n/a	654724	FrequentVariableSOA	1566	n/a	n/a	1
656.2900000000	n/a	656290	FrequentVariableSOA	1716	n/a	n/a	1
658.0070000000	n/a	658007	FrequentVariableSOA	1516	n/a	n/a	1
659.5240000000	n/a	659524	GoVariableSOA	1683	n/a	n/a	0
661.2070000000	n/a	661207	FrequentVariableSOA	1516	n/a	n/a	1
662.7240000000	n/a	662724	FrequentVariableSOA	1733	n/a	n/a	1
664.4570000000	n/a	664457	FrequentVariableSOA	1650	n/a	n/a	1
666.1070000000	n/a	666107	FrequentVariableSOA	1750	n/a	n/a	1
667.8570000000	n/a	667857	FrequentVariableSOA	1683	n/a	n/a	1
669.5400000000	n/a	669540	NovelVariableSOA	1600	n/a	n/a	1
671.1400000000	n/a	671140	FrequentVariableSOA	1516	n/a	n/a	1
672.6570000000	n/a	672657	GoVariableSOA	555	n/a	n/a	1
674.3570000000	n/a	674357	FrequentVariableSOA	1516	n/a	n/a	1
675.8740000000	n/a	675874	FrequentVariableSOA	1550	n/a	n/a	1
677.4240000000	n/a	677424	FrequentVariableSOA	1750	n/a	n/a	1
679.1740000000	n/a	679174	FrequentVariableSOA	1516	n/a	n/a	1
680.6900000000	n/a	680690	FrequentVariableSOA	1500	n/a	n/a	1
682.1900000000	n/a	682190	FrequentVariableSOA	1533	n/a	n/a	1
683.7240000000	n/a	683724	FrequentVariableSOA	1633	n/a	n/a	1
685.3570000000	n/a	685357	FrequentVariableSOA	1550	n/a	n/a	1
686.9070000000	n/a	686907	NovelVariableSOA	1516	n/a	n/a	1
688.4240000000	n/a	688424	FrequentVariableSOA	1550	n/a	n/a	1
689.9740000000	n/a	689974	FrequentVariableSOA	1566	n/a	n/a	1
691.5400000000	n/a	691540	GoFixedSOA	367	n/a	n/a	1
693.1740000000	n/a	693174	FrequentFixedSOA	1633	n/a	n/a	1
694.8070000000	n/a	694807	FrequentFixedSOA	1633	n/a	n/a	1
696.4400000000	n/a	696440	FrequentFixedSOA	1633	n/a	n/a	1
698.0740000000	n/a	698074	GoFixedSOA	400	n/a	n/a	1
699.7070000000	n/a	699707	FrequentFixedSOA	1633	n/a	n/a	1
701.3400000000	n/a	701340	FrequentFixedSOA	1633	n/a	n/a	1
702.9740000000	n/a	702974	FrequentFixedSOA	1633	n/a	n/a	1
704.6070000000	n/a	704607	FrequentFixedSOA	1633	n/a	n/a	1
706.2400000000	n/a	706240	GoFixedSOA	417	n/a	n/a	1
707.8740000000	n/a	707874	FrequentFixedSOA	1633	n/a	n/a	1
709.5070000000	n/a	709507	FrequentFixedSOA	1633	n/a	n/a	1
711.1400000000	n/a	711140	NovelFixedSOA	1633	n/a	n/a	1
712.7740000000	n/a	712774	FrequentFixedSOA	1633	n/a	n/a	1
714.4070000000	n/a	714407	FrequentFixedSOA	1633	n/a	n/a	1
716.0400000000	n/a	716040	GoFixedSOA	385	n/a	n/a	1
717.6740000000	n/a	717674	FrequentFixedSOA	1633	n/a	n/a	1
719.3070000000	n/a	719307	FrequentFixedSOA	1633	n/a	n/a	1
720.9400000000	n/a	720940	FrequentFixedSOA	1633	n/a	n/a	1
722.5740000000	n/a	722574	NovelFixedSOA	1633	n/a	n/a	1
724.2070000000	n/a	724207	FrequentFixedSOA	1633	n/a	n/a	1
725.8400000000	n/a	725840	NovelFixedSOA	1633	n/a	n/a	1
727.4740000000	n/a	727474	FrequentFixedSOA	1633	n/a	n/a	1
729.1070000000	n/a	729107	FrequentFixedSOA	1633	n/a	n/a	1
730.7400000000	n/a	730740	FrequentFixedSOA	1633	n/a	n/a	1
732.3740000000	n/a	732374	GoFixedSOA	1633	n/a	n/a	0
734.0070000000	n/a	734007	FrequentFixedSOA	1633	n/a	n/a	1
735.6400000000	n/a	735640	FrequentFixedSOA	1633	n/a	n/a	1
737.2740000000	n/a	737274	FrequentFixedSOA	1633	n/a	n/a	1
738.9070000000	n/a	738907	GoFixedSOA	1633	n/a	n/a	0
740.5400000000	n/a	740540	FrequentFixedSOA	1633	n/a	n/a	1
742.1740000000	n/a	742174	FrequentFixedSOA	1633	n/a	n/a	1
743.8070000000	n/a	743807	NovelFixedSOA	1633	n/a	n/a	1
745.4400000000	n/a	745440	FrequentFixedSOA	1633	n/a	n/a	1
747.0740000000	n/a	747074	GoFixedSOA	331	n/a	n/a	1
748.7070000000	n/a	748707	FrequentFixedSOA	1633	n/a	n/a	1
750.3400000000	n/a	750340	FrequentFixedSOA	1633	n/a	n/a	1
751.9740000000	n/a	751974	FrequentFixedSOA	1633	n/a	n/a	1
753.6070000000	n/a	753607	FrequentFixedSOA	1633	n/a	n/a	1
755.2400000000	n/a	755240	FrequentFixedSOA	1633	n/a	n/a	1
756.8740000000	n/a	756874	FrequentFixedSOA	1633	n/a	n/a	1
758.5070000000	n/a	758507	NovelFixedSOA	1633	n/a	n/a	1
760.1400000000	n/a	760140	FrequentFixedSOA	1633	n/a	n/a	1
761.7740000000	n/a	761774	FrequentFixedSOA	1633	n/a	n/a	1
763.4070000000	n/a	763407	FrequentFixedSOA	1633	n/a	n/a	1
765.0400000000	n/a	765040	GoFixedSOA	462	n/a	n/a	1
766.6740000000	n/a	766674	FrequentFixedSOA	1633	n/a	n/a	1
768.3070000000	n/a	768307	FrequentFixedSOA	1633	n/a	n/a	1
769.9400000000	n/a	769940	FrequentFixedSOA	1633	n/a	n/a	1
771.5740000000	n/a	771574	FrequentFixedSOA	1633	n/a	n/a	1
773.2070000000	n/a	773207	NovelFixedSOA	1633	n/a	n/a	1
774.8400000000	n/a	774840	FrequentFixedSOA	1633	n/a	n/a	1
776.4740000000	n/a	776474	FrequentFixedSOA	1633	n/a	n/a	1
778.1070000000	n/a	778107	NovelFixedSOA	1633	n/a	n/a	1
779.7400000000	n/a	779740	FrequentFixedSOA	1633	n/a	n/a	1
781.3740000000	n/a	781374	NovelFixedSOA	1633	n/a	n/a	1
783.0070000000	n/a	783007	FrequentFixedSOA	1633	n/a	n/a	1
784.6400000000	n/a	784640	FrequentFixedSOA	1633	n/a	n/a	1
786.2740000000	n/a	786274	FrequentFixedSOA	1633	n/a	n/a	1
787.9070000000	n/a	787907	FrequentFixedSOA	1633	n/a	n/a	1
789.5400000000	n/a	789540	FrequentFixedSOA	1633	n/a	n/a	1
791.1740000000	n/a	791174	FrequentFixedSOA	1633	n/a	n/a	1
792.8070000000	n/a	792807	FrequentFixedSOA	1633	n/a	n/a	1
794.4400000000	n/a	794440	GoFixedSOA	817	n/a	n/a	1
796.0740000000	n/a	796074	FrequentFixedSOA	1633	n/a	n/a	1
797.7070000000	n/a	797707	GoFixedSOA	1633	n/a	n/a	0
799.3400000000	n/a	799340	FrequentFixedSOA	1633	n/a	n/a	1
800.9740000000	n/a	800974	FrequentFixedSOA	1633	n/a	n/a	1
802.6070000000	n/a	802607	NovelFixedSOA	1633	n/a	n/a	1
804.2400000000	n/a	804240	FrequentFixedSOA	1633	n/a	n/a	1
805.8740000000	n/a	805874	GoVariableSOA	482	n/a	n/a	1
807.4740000000	n/a	807474	FrequentVariableSOA	1800	n/a	n/a	1
809.2740000000	n/a	809274	FrequentVariableSOA	1683	n/a	n/a	1
810.9570000000	n/a	810957	FrequentVariableSOA	1783	n/a	n/a	1
812.7400000000	n/a	812740	GoVariableSOA	1683	n/a	n/a	0
814.4240000000	n/a	814424	FrequentVariableSOA	1566	n/a	n/a	1
815.9900000000	n/a	815990	FrequentVariableSOA	1783	n/a	n/a	1
817.7740000000	n/a	817774	FrequentVariableSOA	1650	n/a	n/a	1
819.4240000000	n/a	819424	FrequentVariableSOA	1633	n/a	n/a	1
821.0570000000	n/a	821057	GoVariableSOA	1600	n/a	n/a	0
822.6570000000	n/a	822657	FrequentVariableSOA	1600	n/a	n/a	1
824.2570000000	n/a	824257	FrequentVariableSOA	1683	n/a	n/a	1
825.9400000000	n/a	825940	NovelVariableSOA	1800	n/a	n/a	1
827.7400000000	n/a	827740	FrequentVariableSOA	1666	n/a	n/a	1
829.4070000000	n/a	829407	FrequentVariableSOA	1650	n/a	n/a	1
831.0570000000	n/a	831057	GoVariableSOA	414	n/a	n/a	1
832.6070000000	n/a	832607	FrequentVariableSOA	1516	n/a	n/a	1
834.1240000000	n/a	834124	FrequentVariableSOA	1666	n/a	n/a	1
835.7900000000	n/a	835790	FrequentVariableSOA	1516	n/a	n/a	1
837.3070000000	n/a	837307	NovelVariableSOA	1766	n/a	n/a	1
839.0740000000	n/a	839074	FrequentVariableSOA	1566	n/a	n/a	1
840.6400000000	n/a	840640	NovelVariableSOA	1600	n/a	n/a	1
842.2400000000	n/a	842240	FrequentVariableSOA	1700	n/a	n/a	1
843.9400000000	n/a	843940	FrequentVariableSOA	1633	n/a	n/a	1
845.5740000000	n/a	845574	FrequentVariableSOA	1583	n/a	n/a	1
847.1570000000	n/a	847157	GoVariableSOA	1550	n/a	n/a	0
848.7070000000	n/a	848707	FrequentVariableSOA	1600	n/a	n/a	1
850.3070000000	n/a	850307	FrequentVariableSOA	1716	n/a	n/a	1
852.0240000000	n/a	852024	FrequentVariableSOA	1750	n/a	n/a	1
853.7740000000	n/a	853774	GoVariableSOA	1533	n/a	n/a	0
855.3070000000	n/a	855307	FrequentVariableSOA	1550	n/a	n/a	1
856.8570000000	n/a	856857	FrequentVariableSOA	1550	n/a	n/a	1
858.4070000000	n/a	858407	NovelVariableSOA	1566	n/a	n/a	1
859.9740000000	n/a	859974	FrequentVariableSOA	1616	n/a	n/a	1
861.5900000000	n/a	861590	GoVariableSOA	356	n/a	n/a	1
863.1740000000	n/a	863174	FrequentVariableSOA	1750	n/a	n/a	1
864.9240000000	n/a	864924	FrequentVariableSOA	1750	n/a	n/a	1
866.6740000000	n/a	866674	FrequentVariableSOA	1600	n/a	n/a	1
868.2740000000	n/a	868274	FrequentVariableSOA	1750	n/a	n/a	1
870.0240000000	n/a	870024	FrequentVariableSOA	1750	n/a	n/a	1
871.7740000000	n/a	871774	FrequentVariableSOA	1550	n/a	n/a	1
873.3240000000	n/a	873324	NovelVariableSOA	1666	n/a	n/a	1
874.9900000000	n/a	874990	FrequentVariableSOA	1550	n/a	n/a	1
876.5400000000	n/a	876540	FrequentVariableSOA	1650	n/a	n/a	1
878.1900000000	n/a	878190	FrequentVariableSOA	1666	n/a	n/a	1
879.8570000000	n/a	879857	GoVariableSOA	1633	n/a	n/a	0
881.4900000000	n/a	881490	FrequentVariableSOA	1750	n/a	n/a	1
883.2400000000	n/a	883240	FrequentVariableSOA	1516	n/a	n/a	1
884.7570000000	n/a	884757	FrequentVariableSOA	1566	n/a	n/a	1
886.3230000000	n/a	886323	FrequentVariableSOA	1550	n/a	n/a	1
887.8730000000	n/a	887873	NovelVariableSOA	1633	n/a	n/a	1
889.5070000000	n/a	889507	FrequentVariableSOA	1666	n/a	n/a	1
891.1730000000	n/a	891173	FrequentVariableSOA	1716	n/a	n/a	1
892.8900000000	n/a	892890	NovelVariableSOA	1766	n/a	n/a	1
894.6570000000	n/a	894657	FrequentVariableSOA	1583	n/a	n/a	1
896.2400000000	n/a	896240	NovelVariableSOA	1716	n/a	n/a	1
897.9570000000	n/a	897957	FrequentVariableSOA	1683	n/a	n/a	1
899.6400000000	n/a	899640	FrequentVariableSOA	1666	n/a	n/a	1
901.3070000000	n/a	901307	FrequentVariableSOA	1683	n/a	n/a	1
902.9900000000	n/a	902990	FrequentVariableSOA	1683	n/a	n/a	1
904.6730000000	n/a	904673	FrequentVariableSOA	1700	n/a	n/a	1
906.3730000000	n/a	906373	FrequentVariableSOA	1616	n/a	n/a	1
907.9900000000	n/a	907990	FrequentVariableSOA	1683	n/a	n/a	1
909.6730000000	n/a	909673	GoVariableSOA	554	n/a	n/a	1
911.3900000000	n/a	911390	FrequentVariableSOA	1516	n/a	n/a	1
912.9070000000	n/a	912907	GoVariableSOA	1550	n/a	n/a	0
914.4570000000	n/a	914457	FrequentVariableSOA	1666	n/a	n/a	1
916.1230000000	n/a	916123	FrequentVariableSOA	1666	n/a	n/a	1
917.7900000000	n/a	917790	NovelVariableSOA	1650	n/a	n/a	1
919.4400000000	n/a	919440	FrequentVariableSOA	1566	n/a	n/a	1
