onset	duration	sample	trial_type	response_time	stim_file	value	correct
10.2160000000	n/a	10216	ignore	n/a	n/a	n/a	n/a
13.3160000000	n/a	13316	ignore	n/a	n/a	n/a	n/a
16.3280000000	n/a	16328	ignore	n/a	n/a	n/a	n/a
34.3990000000	n/a	34399	ignore	n/a	n/a	n/a	n/a
37.4990000000	n/a	37499	ignore	n/a	n/a	n/a	n/a
40.4860000000	n/a	40486	ignore	n/a	n/a	n/a	n/a
58.2160000000	n/a	58216	NeuStim	n/a	n/a	n/a	n/a
61.3160000000	n/a	61316	NeuNonAlcP1000	n/a	n/a	n/a	n/a
66.3030000000	n/a	66303	NeuNonAlcP1000	n/a	n/a	n/a	n/a
77.3820000000	n/a	77382	PosStim	n/a	n/a	n/a	n/a
80.4160000000	n/a	80416	PosAlcStimWithoutStartle	n/a	n/a	n/a	n/a
93.7490000000	n/a	93749	NeuStim	n/a	n/a	n/a	n/a
96.8490000000	n/a	96849	NeuAlcP2000	n/a	n/a	n/a	n/a
100.8360000000	n/a	100836	NeuAlcP2000	n/a	n/a	n/a	n/a
111.0990000000	n/a	111099	NegStim	n/a	n/a	n/a	n/a
114.1990000000	n/a	114199	NegNonAlcP2000	n/a	n/a	n/a	n/a
118.1860000000	n/a	118186	NegNonAlcP2000	n/a	n/a	n/a	n/a
129.9990000000	n/a	129999	NeuStim	n/a	n/a	n/a	n/a
133.0320000000	n/a	133032	NeuNonAlcStimWithoutStartle	n/a	n/a	n/a	n/a
149.9990000000	n/a	149999	PosStim	n/a	n/a	n/a	n/a
153.0990000000	n/a	153099	PosNonAlcP1000	n/a	n/a	n/a	n/a
158.0860000000	n/a	158086	PosNonAlcP1000	n/a	n/a	n/a	n/a
167.2820000000	n/a	167282	NeuStim	n/a	n/a	n/a	n/a
170.3820000000	n/a	170382	NeuAlcP1000	n/a	n/a	n/a	n/a
175.3690000000	n/a	175369	NeuAlcP1000	n/a	n/a	n/a	n/a
185.9150000000	n/a	185915	NegStim	n/a	n/a	n/a	n/a
188.9490000000	n/a	188949	NegNonAlcStimWithoutStartle	n/a	n/a	n/a	n/a
201.9990000000	n/a	201999	NeuStim	n/a	n/a	n/a	n/a
205.0990000000	n/a	205099	NeuNonAlcP1000	n/a	n/a	n/a	n/a
210.0860000000	n/a	210086	NeuNonAlcP1000	n/a	n/a	n/a	n/a
221.5320000000	n/a	221532	NegStim	n/a	n/a	n/a	n/a
224.6320000000	n/a	224632	NegNonAlcP3000	n/a	n/a	n/a	n/a
227.6190000000	n/a	227619	NegNonAlcP3000	n/a	n/a	n/a	n/a
239.0650000000	n/a	239065	PosStim	n/a	n/a	n/a	n/a
242.1650000000	n/a	242165	PosNonAlcP3000	n/a	n/a	n/a	n/a
245.1520000000	n/a	245152	PosNonAlcP3000	n/a	n/a	n/a	n/a
256.3490000000	n/a	256349	NeuStim	n/a	n/a	n/a	n/a
259.4490000000	n/a	259449	NeuAlcP1000	n/a	n/a	n/a	n/a
264.4360000000	n/a	264436	NeuAlcP1000	n/a	n/a	n/a	n/a
272.9490000000	n/a	272949	NegStim	n/a	n/a	n/a	n/a
275.9820000000	n/a	275982	NegAlcStimWithoutStartle	n/a	n/a	n/a	n/a
289.9990000000	n/a	289999	PosStim	n/a	n/a	n/a	n/a
293.0320000000	n/a	293032	PosNonAlcStimWithoutStartle	n/a	n/a	n/a	n/a
309.2150000000	n/a	309215	NegStim	n/a	n/a	n/a	n/a
312.3150000000	n/a	312315	NegAlcP3000	n/a	n/a	n/a	n/a
315.3020000000	n/a	315302	NegAlcP3000	n/a	n/a	n/a	n/a
327.1490000000	n/a	327149	NeuStim	n/a	n/a	n/a	n/a
330.1820000000	n/a	330182	NeuAlcStimWithoutStartle	n/a	n/a	n/a	n/a
346.6320000000	n/a	346632	PosStim	n/a	n/a	n/a	n/a
349.7320000000	n/a	349732	PosNonAlcP1000	n/a	n/a	n/a	n/a
354.7190000000	n/a	354719	PosNonAlcP1000	n/a	n/a	n/a	n/a
364.0490000000	n/a	364049	NegStim	n/a	n/a	n/a	n/a
367.1490000000	n/a	367149	NegAlcP3000	n/a	n/a	n/a	n/a
370.1360000000	n/a	370136	NegAlcP3000	n/a	n/a	n/a	n/a
383.5490000000	n/a	383549	NegStim	n/a	n/a	n/a	n/a
386.5820000000	n/a	386582	NegNonAlcStimWithoutStartle	n/a	n/a	n/a	n/a
400.0320000000	n/a	400032	PosStim	n/a	n/a	n/a	n/a
403.1320000000	n/a	403132	PosAlcP1000	n/a	n/a	n/a	n/a
408.1190000000	n/a	408119	PosAlcP1000	n/a	n/a	n/a	n/a
418.8480000000	n/a	418848	NeuStim	n/a	n/a	n/a	n/a
421.8820000000	n/a	421882	NeuAlcStimWithoutStartle	n/a	n/a	n/a	n/a
438.4150000000	n/a	438415	NegStim	n/a	n/a	n/a	n/a
441.5150000000	n/a	441515	NegNonAlcP1000	n/a	n/a	n/a	n/a
446.5020000000	n/a	446502	NegNonAlcP1000	n/a	n/a	n/a	n/a
455.0820000000	n/a	455082	PosStim	n/a	n/a	n/a	n/a
458.1820000000	n/a	458182	PosAlcP3000	n/a	n/a	n/a	n/a
461.1690000000	n/a	461169	PosAlcP3000	n/a	n/a	n/a	n/a
473.6820000000	n/a	473682	NeuStim	n/a	n/a	n/a	n/a
476.7820000000	n/a	476782	NeuAlcP3000	n/a	n/a	n/a	n/a
479.7690000000	n/a	479769	NeuAlcP3000	n/a	n/a	n/a	n/a
490.8480000000	n/a	490848	NegStim	n/a	n/a	n/a	n/a
493.8820000000	n/a	493882	NegAlcStimWithoutStartle	n/a	n/a	n/a	n/a
507.1320000000	n/a	507132	PosStim	n/a	n/a	n/a	n/a
510.2320000000	n/a	510232	PosNonAlcP2000	n/a	n/a	n/a	n/a
514.2190000000	n/a	514219	PosNonAlcP2000	n/a	n/a	n/a	n/a
526.9820000000	n/a	526982	NegStim	n/a	n/a	n/a	n/a
530.0820000000	n/a	530082	NegAlcP2000	n/a	n/a	n/a	n/a
534.0690000000	n/a	534069	NegAlcP2000	n/a	n/a	n/a	n/a
545.6320000000	n/a	545632	PosStim	n/a	n/a	n/a	n/a
548.7320000000	n/a	548732	PosAlcP2000	n/a	n/a	n/a	n/a
552.7190000000	n/a	552719	PosAlcP2000	n/a	n/a	n/a	n/a
564.9320000000	n/a	564932	NeuStim	n/a	n/a	n/a	n/a
567.9650000000	n/a	567965	NeuAlcStimWithoutStartle	n/a	n/a	n/a	n/a
582.6320000000	n/a	582632	NegStim	n/a	n/a	n/a	n/a
585.7320000000	n/a	585732	NegNonAlcP1000	n/a	n/a	n/a	n/a
590.7190000000	n/a	590719	NegNonAlcP1000	n/a	n/a	n/a	n/a
602.6980000000	n/a	602698	NeuStim	n/a	n/a	n/a	n/a
605.7980000000	n/a	605798	NeuNonAlcP1000	n/a	n/a	n/a	n/a
610.7850000000	n/a	610785	NeuNonAlcP1000	n/a	n/a	n/a	n/a
619.4150000000	n/a	619415	PosStim	n/a	n/a	n/a	n/a
622.5150000000	n/a	622515	PosNonAlcP3000	n/a	n/a	n/a	n/a
625.5020000000	n/a	625502	PosNonAlcP3000	n/a	n/a	n/a	n/a
639.4480000000	n/a	639448	NeuStim	n/a	n/a	n/a	n/a
642.4810000000	n/a	642481	NeuNonAlcStimWithoutStartle	n/a	n/a	n/a	n/a
656.3810000000	n/a	656381	NegStim	n/a	n/a	n/a	n/a
659.4150000000	n/a	659415	NegNonAlcStimWithoutStartle	n/a	n/a	n/a	n/a
675.4150000000	n/a	675415	NeuStim	n/a	n/a	n/a	n/a
678.5150000000	n/a	678515	NeuNonAlcP3000	n/a	n/a	n/a	n/a
681.5020000000	n/a	681502	NeuNonAlcP3000	n/a	n/a	n/a	n/a
693.7650000000	n/a	693765	PosStim	n/a	n/a	n/a	n/a
696.8650000000	n/a	696865	PosAlcP1000	n/a	n/a	n/a	n/a
701.8520000000	n/a	701852	PosAlcP1000	n/a	n/a	n/a	n/a
709.9650000000	n/a	709965	NegStim	n/a	n/a	n/a	n/a
713.0650000000	n/a	713065	NegNonAlcP1000	n/a	n/a	n/a	n/a
718.0520000000	n/a	718052	NegNonAlcP1000	n/a	n/a	n/a	n/a
727.2650000000	n/a	727265	PosStim	n/a	n/a	n/a	n/a
730.2980000000	n/a	730298	PosNonAlcStimWithoutStartle	n/a	n/a	n/a	n/a
747.2980000000	n/a	747298	NeuStim	n/a	n/a	n/a	n/a
750.3980000000	n/a	750398	NeuAlcP2000	n/a	n/a	n/a	n/a
754.3850000000	n/a	754385	NeuAlcP2000	n/a	n/a	n/a	n/a
764.5650000000	n/a	764565	PosStim	n/a	n/a	n/a	n/a
767.6650000000	n/a	767665	PosAlcP1000	n/a	n/a	n/a	n/a
772.6520000000	n/a	772652	PosAlcP1000	n/a	n/a	n/a	n/a
783.7810000000	n/a	783781	NegStim	n/a	n/a	n/a	n/a
786.8150000000	n/a	786815	NegNonAlcStimWithoutStartle	n/a	n/a	n/a	n/a
800.2650000000	n/a	800265	PosStim	n/a	n/a	n/a	n/a
803.3650000000	n/a	803365	PosNonAlcP2000	n/a	n/a	n/a	n/a
807.3520000000	n/a	807352	PosNonAlcP2000	n/a	n/a	n/a	n/a
818.9810000000	n/a	818981	NegStim	n/a	n/a	n/a	n/a
822.0810000000	n/a	822081	NegNonAlcP3000	n/a	n/a	n/a	n/a
825.0680000000	n/a	825068	NegNonAlcP3000	n/a	n/a	n/a	n/a
835.4310000000	n/a	835431	NeuStim	n/a	n/a	n/a	n/a
838.5310000000	n/a	838531	NeuNonAlcP2000	n/a	n/a	n/a	n/a
842.5180000000	n/a	842518	NeuNonAlcP2000	n/a	n/a	n/a	n/a
851.8310000000	n/a	851831	NegStim	n/a	n/a	n/a	n/a
854.8640000000	n/a	854864	NegAlcStimWithoutStartle	n/a	n/a	n/a	n/a
869.8310000000	n/a	869831	PosStim	n/a	n/a	n/a	n/a
872.8640000000	n/a	872864	PosAlcStimWithoutStartle	n/a	n/a	n/a	n/a
889.0810000000	n/a	889081	NeuStim	n/a	n/a	n/a	n/a
892.1810000000	n/a	892181	NeuAlcP3000	n/a	n/a	n/a	n/a
895.1680000000	n/a	895168	NeuAlcP3000	n/a	n/a	n/a	n/a
906.8810000000	n/a	906881	NegStim	n/a	n/a	n/a	n/a
909.9810000000	n/a	909981	NegNonAlcP1000	n/a	n/a	n/a	n/a
914.9680000000	n/a	914968	NegNonAlcP1000	n/a	n/a	n/a	n/a
925.2980000000	n/a	925298	NeuStim	n/a	n/a	n/a	n/a
928.3980000000	n/a	928398	NeuNonAlcP2000	n/a	n/a	n/a	n/a
932.3850000000	n/a	932385	NeuNonAlcP2000	n/a	n/a	n/a	n/a
943.9640000000	n/a	943964	PosStim	n/a	n/a	n/a	n/a
946.9980000000	n/a	946998	PosAlcStimWithoutStartle	n/a	n/a	n/a	n/a
963.0980000000	n/a	963098	NegStim	n/a	n/a	n/a	n/a
966.1980000000	n/a	966198	NegNonAlcP2000	n/a	n/a	n/a	n/a
970.1850000000	n/a	970185	NegNonAlcP2000	n/a	n/a	n/a	n/a
979.6810000000	n/a	979681	NeuStim	n/a	n/a	n/a	n/a
982.7810000000	n/a	982781	NeuAlcP1000	n/a	n/a	n/a	n/a
987.7680000000	n/a	987768	NeuAlcP1000	n/a	n/a	n/a	n/a
