onset	duration	sample	trial_type	response_time	stim_file	value	correct
8.7510000000	n/a	8751	ignore	n/a	n/a	n/a	n/a
11.8510000000	n/a	11851	ignore	n/a	n/a	n/a	n/a
14.8680000000	n/a	14868	ignore	n/a	n/a	n/a	n/a
30.6340000000	n/a	30634	ignore	n/a	n/a	n/a	n/a
33.7340000000	n/a	33734	ignore	n/a	n/a	n/a	n/a
36.7210000000	n/a	36721	ignore	n/a	n/a	n/a	n/a
54.0010000000	n/a	54001	NeuStim	n/a	n/a	n/a	n/a
57.1010000000	n/a	57101	NeuNonAlcP1000	n/a	n/a	n/a	n/a
62.0880000000	n/a	62088	NeuNonAlcP1000	n/a	n/a	n/a	n/a
71.5010000000	n/a	71501	PosStim	n/a	n/a	n/a	n/a
74.5340000000	n/a	74534	PosAlcStimWithoutStartle	n/a	n/a	n/a	n/a
89.7170000000	n/a	89717	NeuStim	n/a	n/a	n/a	n/a
92.8170000000	n/a	92817	NeuAlcP2000	n/a	n/a	n/a	n/a
96.8040000000	n/a	96804	NeuAlcP2000	n/a	n/a	n/a	n/a
107.5840000000	n/a	107584	NegStim	n/a	n/a	n/a	n/a
110.6840000000	n/a	110684	NegNonAlcP2000	n/a	n/a	n/a	n/a
114.6710000000	n/a	114671	NegNonAlcP2000	n/a	n/a	n/a	n/a
125.0170000000	n/a	125017	NeuStim	n/a	n/a	n/a	n/a
128.0500000000	n/a	128050	NeuNonAlcStimWithoutStartle	n/a	n/a	n/a	n/a
142.4670000000	n/a	142467	PosStim	n/a	n/a	n/a	n/a
145.5670000000	n/a	145567	PosNonAlcP1000	n/a	n/a	n/a	n/a
150.5540000000	n/a	150554	PosNonAlcP1000	n/a	n/a	n/a	n/a
160.6000000000	n/a	160600	NeuStim	n/a	n/a	n/a	n/a
163.7000000000	n/a	163700	NeuAlcP1000	n/a	n/a	n/a	n/a
168.6870000000	n/a	168687	NeuAlcP1000	n/a	n/a	n/a	n/a
180.2340000000	n/a	180234	NegStim	n/a	n/a	n/a	n/a
183.2670000000	n/a	183267	NegNonAlcStimWithoutStartle	n/a	n/a	n/a	n/a
197.3500000000	n/a	197350	NeuStim	n/a	n/a	n/a	n/a
200.4500000000	n/a	200450	NeuNonAlcP1000	n/a	n/a	n/a	n/a
205.4370000000	n/a	205437	NeuNonAlcP1000	n/a	n/a	n/a	n/a
214.0500000000	n/a	214050	NegStim	n/a	n/a	n/a	n/a
217.1500000000	n/a	217150	NegNonAlcP3000	n/a	n/a	n/a	n/a
220.1370000000	n/a	220137	NegNonAlcP3000	n/a	n/a	n/a	n/a
230.4000000000	n/a	230400	PosStim	n/a	n/a	n/a	n/a
233.5000000000	n/a	233500	PosNonAlcP3000	n/a	n/a	n/a	n/a
236.4870000000	n/a	236487	PosNonAlcP3000	n/a	n/a	n/a	n/a
246.9840000000	n/a	246984	NeuStim	n/a	n/a	n/a	n/a
250.0840000000	n/a	250084	NeuAlcP1000	n/a	n/a	n/a	n/a
255.0710000000	n/a	255071	NeuAlcP1000	n/a	n/a	n/a	n/a
266.4170000000	n/a	266417	NegStim	n/a	n/a	n/a	n/a
269.4500000000	n/a	269450	NegAlcStimWithoutStartle	n/a	n/a	n/a	n/a
285.3340000000	n/a	285334	PosStim	n/a	n/a	n/a	n/a
288.3670000000	n/a	288367	PosNonAlcStimWithoutStartle	n/a	n/a	n/a	n/a
302.9000000000	n/a	302900	NegStim	n/a	n/a	n/a	n/a
306.0000000000	n/a	306000	NegAlcP3000	n/a	n/a	n/a	n/a
308.9870000000	n/a	308987	NegAlcP3000	n/a	n/a	n/a	n/a
321.1840000000	n/a	321184	NeuStim	n/a	n/a	n/a	n/a
324.2170000000	n/a	324217	NeuAlcStimWithoutStartle	n/a	n/a	n/a	n/a
339.5670000000	n/a	339567	PosStim	n/a	n/a	n/a	n/a
342.6670000000	n/a	342667	PosNonAlcP1000	n/a	n/a	n/a	n/a
347.6540000000	n/a	347654	PosNonAlcP1000	n/a	n/a	n/a	n/a
357.8500000000	n/a	357850	NegStim	n/a	n/a	n/a	n/a
360.9500000000	n/a	360950	NegAlcP3000	n/a	n/a	n/a	n/a
363.9370000000	n/a	363937	NegAlcP3000	n/a	n/a	n/a	n/a
377.8840000000	n/a	377884	NegStim	n/a	n/a	n/a	n/a
380.9170000000	n/a	380917	NegNonAlcStimWithoutStartle	n/a	n/a	n/a	n/a
396.2670000000	n/a	396267	PosStim	n/a	n/a	n/a	n/a
399.3670000000	n/a	399367	PosAlcP1000	n/a	n/a	n/a	n/a
404.3540000000	n/a	404354	PosAlcP1000	n/a	n/a	n/a	n/a
416.3830000000	n/a	416383	NeuStim	n/a	n/a	n/a	n/a
419.4170000000	n/a	419417	NeuAlcStimWithoutStartle	n/a	n/a	n/a	n/a
434.5330000000	n/a	434533	NegStim	n/a	n/a	n/a	n/a
437.6330000000	n/a	437633	NegNonAlcP1000	n/a	n/a	n/a	n/a
442.6200000000	n/a	442620	NegNonAlcP1000	n/a	n/a	n/a	n/a
453.4830000000	n/a	453483	PosStim	n/a	n/a	n/a	n/a
456.5830000000	n/a	456583	PosAlcP3000	n/a	n/a	n/a	n/a
459.5700000000	n/a	459570	PosAlcP3000	n/a	n/a	n/a	n/a
470.4330000000	n/a	470433	NeuStim	n/a	n/a	n/a	n/a
473.5330000000	n/a	473533	NeuAlcP3000	n/a	n/a	n/a	n/a
476.5200000000	n/a	476520	NeuAlcP3000	n/a	n/a	n/a	n/a
486.7170000000	n/a	486717	NegStim	n/a	n/a	n/a	n/a
489.7500000000	n/a	489750	NegAlcStimWithoutStartle	n/a	n/a	n/a	n/a
505.6830000000	n/a	505683	PosStim	n/a	n/a	n/a	n/a
508.7830000000	n/a	508783	PosNonAlcP2000	n/a	n/a	n/a	n/a
512.7700000000	n/a	512770	PosNonAlcP2000	n/a	n/a	n/a	n/a
525.7830000000	n/a	525783	NegStim	n/a	n/a	n/a	n/a
528.8830000000	n/a	528883	NegAlcP2000	n/a	n/a	n/a	n/a
532.8700000000	n/a	532870	NegAlcP2000	n/a	n/a	n/a	n/a
545.6670000000	n/a	545667	PosStim	n/a	n/a	n/a	n/a
548.7670000000	n/a	548767	PosAlcP2000	n/a	n/a	n/a	n/a
552.7540000000	n/a	552754	PosAlcP2000	n/a	n/a	n/a	n/a
562.4330000000	n/a	562433	NeuStim	n/a	n/a	n/a	n/a
565.4670000000	n/a	565467	NeuAlcStimWithoutStartle	n/a	n/a	n/a	n/a
578.9330000000	n/a	578933	NegStim	n/a	n/a	n/a	n/a
582.0330000000	n/a	582033	NegNonAlcP1000	n/a	n/a	n/a	n/a
587.0200000000	n/a	587020	NegNonAlcP1000	n/a	n/a	n/a	n/a
597.2830000000	n/a	597283	NeuStim	n/a	n/a	n/a	n/a
600.3830000000	n/a	600383	NeuNonAlcP1000	n/a	n/a	n/a	n/a
605.3700000000	n/a	605370	NeuNonAlcP1000	n/a	n/a	n/a	n/a
614.7000000000	n/a	614700	PosStim	n/a	n/a	n/a	n/a
617.8000000000	n/a	617800	PosNonAlcP3000	n/a	n/a	n/a	n/a
620.7870000000	n/a	620787	PosNonAlcP3000	n/a	n/a	n/a	n/a
631.4330000000	n/a	631433	NeuStim	n/a	n/a	n/a	n/a
634.4670000000	n/a	634467	NeuNonAlcStimWithoutStartle	n/a	n/a	n/a	n/a
649.5830000000	n/a	649583	NegStim	n/a	n/a	n/a	n/a
652.6160000000	n/a	652616	NegNonAlcStimWithoutStartle	n/a	n/a	n/a	n/a
668.0330000000	n/a	668033	NeuStim	n/a	n/a	n/a	n/a
671.1330000000	n/a	671133	NeuNonAlcP3000	n/a	n/a	n/a	n/a
674.1200000000	n/a	674120	NeuNonAlcP3000	n/a	n/a	n/a	n/a
687.9660000000	n/a	687966	PosStim	n/a	n/a	n/a	n/a
691.0660000000	n/a	691066	PosAlcP1000	n/a	n/a	n/a	n/a
696.0530000000	n/a	696053	PosAlcP1000	n/a	n/a	n/a	n/a
704.6660000000	n/a	704666	NegStim	n/a	n/a	n/a	n/a
707.7660000000	n/a	707766	NegNonAlcP1000	n/a	n/a	n/a	n/a
712.7530000000	n/a	712753	NegNonAlcP1000	n/a	n/a	n/a	n/a
722.4330000000	n/a	722433	PosStim	n/a	n/a	n/a	n/a
725.4660000000	n/a	725466	PosNonAlcStimWithoutStartle	n/a	n/a	n/a	n/a
741.9500000000	n/a	741950	NeuStim	n/a	n/a	n/a	n/a
745.0500000000	n/a	745050	NeuAlcP2000	n/a	n/a	n/a	n/a
749.0370000000	n/a	749037	NeuAlcP2000	n/a	n/a	n/a	n/a
761.8000000000	n/a	761800	PosStim	n/a	n/a	n/a	n/a
764.9000000000	n/a	764900	PosAlcP1000	n/a	n/a	n/a	n/a
769.8870000000	n/a	769887	PosAlcP1000	n/a	n/a	n/a	n/a
779.2160000000	n/a	779216	NegStim	n/a	n/a	n/a	n/a
782.2500000000	n/a	782250	NegNonAlcStimWithoutStartle	n/a	n/a	n/a	n/a
796.1160000000	n/a	796116	PosStim	n/a	n/a	n/a	n/a
799.2160000000	n/a	799216	PosNonAlcP2000	n/a	n/a	n/a	n/a
803.2030000000	n/a	803203	PosNonAlcP2000	n/a	n/a	n/a	n/a
814.1000000000	n/a	814100	NegStim	n/a	n/a	n/a	n/a
817.2000000000	n/a	817200	NegNonAlcP3000	n/a	n/a	n/a	n/a
820.1870000000	n/a	820187	NegNonAlcP3000	n/a	n/a	n/a	n/a
830.3660000000	n/a	830366	NeuStim	n/a	n/a	n/a	n/a
833.4660000000	n/a	833466	NeuNonAlcP2000	n/a	n/a	n/a	n/a
837.4530000000	n/a	837453	NeuNonAlcP2000	n/a	n/a	n/a	n/a
848.7660000000	n/a	848766	NegStim	n/a	n/a	n/a	n/a
851.8000000000	n/a	851800	NegAlcStimWithoutStartle	n/a	n/a	n/a	n/a
865.3160000000	n/a	865316	PosStim	n/a	n/a	n/a	n/a
868.3500000000	n/a	868350	PosAlcStimWithoutStartle	n/a	n/a	n/a	n/a
884.7500000000	n/a	884750	NeuStim	n/a	n/a	n/a	n/a
887.8500000000	n/a	887850	NeuAlcP3000	n/a	n/a	n/a	n/a
890.8370000000	n/a	890837	NeuAlcP3000	n/a	n/a	n/a	n/a
902.3160000000	n/a	902316	NegStim	n/a	n/a	n/a	n/a
905.4160000000	n/a	905416	NegNonAlcP1000	n/a	n/a	n/a	n/a
910.4030000000	n/a	910403	NegNonAlcP1000	n/a	n/a	n/a	n/a
921.0830000000	n/a	921083	NeuStim	n/a	n/a	n/a	n/a
924.1830000000	n/a	924183	NeuNonAlcP2000	n/a	n/a	n/a	n/a
928.1700000000	n/a	928170	NeuNonAlcP2000	n/a	n/a	n/a	n/a
937.4990000000	n/a	937499	PosStim	n/a	n/a	n/a	n/a
940.5330000000	n/a	940533	PosAlcStimWithoutStartle	n/a	n/a	n/a	n/a
957.1660000000	n/a	957166	NegStim	n/a	n/a	n/a	n/a
960.2660000000	n/a	960266	NegNonAlcP2000	n/a	n/a	n/a	n/a
964.2530000000	n/a	964253	NegNonAlcP2000	n/a	n/a	n/a	n/a
976.2160000000	n/a	976216	NeuStim	n/a	n/a	n/a	n/a
979.3160000000	n/a	979316	NeuAlcP1000	n/a	n/a	n/a	n/a
984.3030000000	n/a	984303	NeuAlcP1000	n/a	n/a	n/a	n/a
