onset	duration	sample	trial_type	response_time	stim_file	value	correct
9.5470000000	n/a	9547	ignore	n/a	n/a	n/a	n/a
12.6470000000	n/a	12647	ignore	n/a	n/a	n/a	n/a
15.6570000000	n/a	15657	ignore	n/a	n/a	n/a	n/a
31.1970000000	n/a	31197	ignore	n/a	n/a	n/a	n/a
34.2970000000	n/a	34297	ignore	n/a	n/a	n/a	n/a
37.2840000000	n/a	37284	ignore	n/a	n/a	n/a	n/a
53.2470000000	n/a	53247	PosStim	n/a	n/a	n/a	n/a
56.2800000000	n/a	56280	PosNonAlcStimWithoutStartle	n/a	n/a	n/a	n/a
70.2970000000	n/a	70297	NegStim	n/a	n/a	n/a	n/a
73.3300000000	n/a	73330	NegNonAlcStimWithoutStartle	n/a	n/a	n/a	n/a
87.7470000000	n/a	87747	NeuStim	n/a	n/a	n/a	n/a
90.8470000000	n/a	90847	NeuNonAlcP2000	n/a	n/a	n/a	n/a
94.8340000000	n/a	94834	NeuNonAlcP2000	n/a	n/a	n/a	n/a
105.7140000000	n/a	105714	NegStim	n/a	n/a	n/a	n/a
108.8140000000	n/a	108814	NegAlcP2000	n/a	n/a	n/a	n/a
112.8010000000	n/a	112801	NegAlcP2000	n/a	n/a	n/a	n/a
124.8140000000	n/a	124814	NeuStim	n/a	n/a	n/a	n/a
127.8470000000	n/a	127847	NeuAlcStimWithoutStartle	n/a	n/a	n/a	n/a
141.1970000000	n/a	141197	PosStim	n/a	n/a	n/a	n/a
144.2970000000	n/a	144297	PosAlcP1000	n/a	n/a	n/a	n/a
149.2840000000	n/a	149284	PosAlcP1000	n/a	n/a	n/a	n/a
160.9300000000	n/a	160930	NeuStim	n/a	n/a	n/a	n/a
164.0300000000	n/a	164030	NeuAlcP2000	n/a	n/a	n/a	n/a
168.0170000000	n/a	168017	NeuAlcP2000	n/a	n/a	n/a	n/a
177.9970000000	n/a	177997	NegStim	n/a	n/a	n/a	n/a
181.0970000000	n/a	181097	NegAlcP3000	n/a	n/a	n/a	n/a
184.0840000000	n/a	184084	NegAlcP3000	n/a	n/a	n/a	n/a
195.9640000000	n/a	195964	PosStim	n/a	n/a	n/a	n/a
198.9970000000	n/a	198997	PosNonAlcStimWithoutStartle	n/a	n/a	n/a	n/a
215.6640000000	n/a	215664	NeuStim	n/a	n/a	n/a	n/a
218.7640000000	n/a	218764	NeuAlcP1000	n/a	n/a	n/a	n/a
223.7510000000	n/a	223751	NeuAlcP1000	n/a	n/a	n/a	n/a
232.6800000000	n/a	232680	NegStim	n/a	n/a	n/a	n/a
235.7800000000	n/a	235780	NegNonAlcP3000	n/a	n/a	n/a	n/a
238.7670000000	n/a	238767	NegNonAlcP3000	n/a	n/a	n/a	n/a
251.0800000000	n/a	251080	PosStim	n/a	n/a	n/a	n/a
254.1800000000	n/a	254180	PosAlcP2000	n/a	n/a	n/a	n/a
258.1670000000	n/a	258167	PosAlcP2000	n/a	n/a	n/a	n/a
268.8630000000	n/a	268863	NegStim	n/a	n/a	n/a	n/a
271.8970000000	n/a	271897	NegNonAlcStimWithoutStartle	n/a	n/a	n/a	n/a
287.5970000000	n/a	287597	PosStim	n/a	n/a	n/a	n/a
290.6300000000	n/a	290630	PosAlcStimWithoutStartle	n/a	n/a	n/a	n/a
306.1630000000	n/a	306163	NeuStim	n/a	n/a	n/a	n/a
309.2630000000	n/a	309263	NeuNonAlcP3000	n/a	n/a	n/a	n/a
312.2500000000	n/a	312250	NeuNonAlcP3000	n/a	n/a	n/a	n/a
324.8970000000	n/a	324897	NegStim	n/a	n/a	n/a	n/a
327.9970000000	n/a	327997	NegAlcP1000	n/a	n/a	n/a	n/a
332.9840000000	n/a	332984	NegAlcP1000	n/a	n/a	n/a	n/a
341.2630000000	n/a	341263	NeuStim	n/a	n/a	n/a	n/a
344.3630000000	n/a	344363	NeuAlcP3000	n/a	n/a	n/a	n/a
347.3500000000	n/a	347350	NeuAlcP3000	n/a	n/a	n/a	n/a
359.0800000000	n/a	359080	PosStim	n/a	n/a	n/a	n/a
362.1800000000	n/a	362180	PosAlcP3000	n/a	n/a	n/a	n/a
365.1670000000	n/a	365167	PosAlcP3000	n/a	n/a	n/a	n/a
375.8630000000	n/a	375863	NeuStim	n/a	n/a	n/a	n/a
378.8970000000	n/a	378897	NeuAlcStimWithoutStartle	n/a	n/a	n/a	n/a
392.9800000000	n/a	392980	NegStim	n/a	n/a	n/a	n/a
396.0800000000	n/a	396080	NegAlcP1000	n/a	n/a	n/a	n/a
401.0670000000	n/a	401067	NegAlcP1000	n/a	n/a	n/a	n/a
413.1300000000	n/a	413130	NeuStim	n/a	n/a	n/a	n/a
416.2300000000	n/a	416230	NeuNonAlcP3000	n/a	n/a	n/a	n/a
419.2170000000	n/a	419217	NeuNonAlcP3000	n/a	n/a	n/a	n/a
429.2970000000	n/a	429297	NegStim	n/a	n/a	n/a	n/a
432.3970000000	n/a	432397	NegNonAlcP2000	n/a	n/a	n/a	n/a
436.3840000000	n/a	436384	NegNonAlcP2000	n/a	n/a	n/a	n/a
448.2300000000	n/a	448230	PosStim	n/a	n/a	n/a	n/a
451.2630000000	n/a	451263	PosNonAlcStimWithoutStartle	n/a	n/a	n/a	n/a
467.9130000000	n/a	467913	NeuStim	n/a	n/a	n/a	n/a
470.9470000000	n/a	470947	NeuNonAlcStimWithoutStartle	n/a	n/a	n/a	n/a
486.8800000000	n/a	486880	PosStim	n/a	n/a	n/a	n/a
489.9800000000	n/a	489980	PosNonAlcP1000	n/a	n/a	n/a	n/a
494.9670000000	n/a	494967	PosNonAlcP1000	n/a	n/a	n/a	n/a
505.3630000000	n/a	505363	NegStim	n/a	n/a	n/a	n/a
508.3970000000	n/a	508397	NegAlcStimWithoutStartle	n/a	n/a	n/a	n/a
523.8300000000	n/a	523830	NeuStim	n/a	n/a	n/a	n/a
526.9300000000	n/a	526930	NeuAlcP2000	n/a	n/a	n/a	n/a
530.9170000000	n/a	530917	NeuAlcP2000	n/a	n/a	n/a	n/a
542.4800000000	n/a	542480	PosStim	n/a	n/a	n/a	n/a
545.5800000000	n/a	545580	PosNonAlcP1000	n/a	n/a	n/a	n/a
550.5670000000	n/a	550567	PosNonAlcP1000	n/a	n/a	n/a	n/a
559.5130000000	n/a	559513	NeuStim	n/a	n/a	n/a	n/a
562.6130000000	n/a	562613	NeuNonAlcP1000	n/a	n/a	n/a	n/a
567.6000000000	n/a	567600	NeuNonAlcP1000	n/a	n/a	n/a	n/a
576.5800000000	n/a	576580	PosStim	n/a	n/a	n/a	n/a
579.6130000000	n/a	579613	PosNonAlcStimWithoutStartle	n/a	n/a	n/a	n/a
596.2300000000	n/a	596230	NegStim	n/a	n/a	n/a	n/a
599.3300000000	n/a	599330	NegAlcP2000	n/a	n/a	n/a	n/a
603.3170000000	n/a	603317	NegAlcP2000	n/a	n/a	n/a	n/a
612.5630000000	n/a	612563	NeuStim	n/a	n/a	n/a	n/a
615.6630000000	n/a	615663	NeuAlcP3000	n/a	n/a	n/a	n/a
618.6500000000	n/a	618650	NeuAlcP3000	n/a	n/a	n/a	n/a
628.8800000000	n/a	628880	NegStim	n/a	n/a	n/a	n/a
631.9130000000	n/a	631913	NegAlcStimWithoutStartle	n/a	n/a	n/a	n/a
647.0460000000	n/a	647046	NeuStim	n/a	n/a	n/a	n/a
650.1460000000	n/a	650146	NeuNonAlcP2000	n/a	n/a	n/a	n/a
654.1330000000	n/a	654133	NeuNonAlcP2000	n/a	n/a	n/a	n/a
666.0130000000	n/a	666013	PosStim	n/a	n/a	n/a	n/a
669.1130000000	n/a	669113	PosNonAlcP3000	n/a	n/a	n/a	n/a
672.1000000000	n/a	672100	PosNonAlcP3000	n/a	n/a	n/a	n/a
684.8300000000	n/a	684830	NegStim	n/a	n/a	n/a	n/a
687.9300000000	n/a	687930	NegAlcP3000	n/a	n/a	n/a	n/a
690.9170000000	n/a	690917	NegAlcP3000	n/a	n/a	n/a	n/a
703.1960000000	n/a	703196	PosStim	n/a	n/a	n/a	n/a
706.2300000000	n/a	706230	PosAlcStimWithoutStartle	n/a	n/a	n/a	n/a
720.4800000000	n/a	720480	NegStim	n/a	n/a	n/a	n/a
723.5800000000	n/a	723580	NegAlcP1000	n/a	n/a	n/a	n/a
728.5670000000	n/a	728567	NegAlcP1000	n/a	n/a	n/a	n/a
737.1800000000	n/a	737180	PosStim	n/a	n/a	n/a	n/a
740.2130000000	n/a	740213	PosAlcStimWithoutStartle	n/a	n/a	n/a	n/a
756.7630000000	n/a	756763	NegStim	n/a	n/a	n/a	n/a
759.8630000000	n/a	759863	NegNonAlcP2000	n/a	n/a	n/a	n/a
763.8500000000	n/a	763850	NegNonAlcP2000	n/a	n/a	n/a	n/a
776.6800000000	n/a	776680	PosStim	n/a	n/a	n/a	n/a
779.7800000000	n/a	779780	PosAlcP2000	n/a	n/a	n/a	n/a
783.7670000000	n/a	783767	PosAlcP2000	n/a	n/a	n/a	n/a
794.3790000000	n/a	794379	NeuStim	n/a	n/a	n/a	n/a
797.4130000000	n/a	797413	NeuNonAlcStimWithoutStartle	n/a	n/a	n/a	n/a
811.1630000000	n/a	811163	PosStim	n/a	n/a	n/a	n/a
814.2630000000	n/a	814263	PosNonAlcP2000	n/a	n/a	n/a	n/a
818.2500000000	n/a	818250	PosNonAlcP2000	n/a	n/a	n/a	n/a
830.7790000000	n/a	830779	NegStim	n/a	n/a	n/a	n/a
833.8130000000	n/a	833813	NegAlcStimWithoutStartle	n/a	n/a	n/a	n/a
849.7290000000	n/a	849729	PosStim	n/a	n/a	n/a	n/a
852.8290000000	n/a	852829	PosAlcP3000	n/a	n/a	n/a	n/a
855.8160000000	n/a	855816	PosAlcP3000	n/a	n/a	n/a	n/a
868.1460000000	n/a	868146	PosStim	n/a	n/a	n/a	n/a
871.2460000000	n/a	871246	PosNonAlcP3000	n/a	n/a	n/a	n/a
874.2330000000	n/a	874233	PosNonAlcP3000	n/a	n/a	n/a	n/a
887.7290000000	n/a	887729	NeuStim	n/a	n/a	n/a	n/a
890.7630000000	n/a	890763	NeuNonAlcStimWithoutStartle	n/a	n/a	n/a	n/a
906.8790000000	n/a	906879	NeuStim	n/a	n/a	n/a	n/a
909.9790000000	n/a	909979	NeuNonAlcP3000	n/a	n/a	n/a	n/a
912.9660000000	n/a	912966	NeuNonAlcP3000	n/a	n/a	n/a	n/a
924.1630000000	n/a	924163	PosStim	n/a	n/a	n/a	n/a
927.2630000000	n/a	927263	PosAlcP2000	n/a	n/a	n/a	n/a
931.2500000000	n/a	931250	PosAlcP2000	n/a	n/a	n/a	n/a
942.9960000000	n/a	942996	NegStim	n/a	n/a	n/a	n/a
946.0960000000	n/a	946096	NegAlcP1000	n/a	n/a	n/a	n/a
951.0830000000	n/a	951083	NegAlcP1000	n/a	n/a	n/a	n/a
960.1460000000	n/a	960146	PosStim	n/a	n/a	n/a	n/a
963.2460000000	n/a	963246	PosNonAlcP2000	n/a	n/a	n/a	n/a
967.2330000000	n/a	967233	PosNonAlcP2000	n/a	n/a	n/a	n/a
977.4460000000	n/a	977446	NeuStim	n/a	n/a	n/a	n/a
980.4790000000	n/a	980479	NeuNonAlcStimWithoutStartle	n/a	n/a	n/a	n/a
994.7790000000	n/a	994779	NegStim	n/a	n/a	n/a	n/a
997.8790000000	n/a	997879	NegAlcP2000	n/a	n/a	n/a	n/a
1001.8660000000	n/a	1001866	NegAlcP2000	n/a	n/a	n/a	n/a
1014.4630000000	n/a	1014463	PosStim	n/a	n/a	n/a	n/a
1017.5630000000	n/a	1017563	PosAlcP3000	n/a	n/a	n/a	n/a
1020.5500000000	n/a	1020550	PosAlcP3000	n/a	n/a	n/a	n/a
1032.7460000000	n/a	1032746	NeuStim	n/a	n/a	n/a	n/a
1035.7790000000	n/a	1035779	NeuAlcStimWithoutStartle	n/a	n/a	n/a	n/a
1049.2460000000	n/a	1049246	NegStim	n/a	n/a	n/a	n/a
1052.3460000000	n/a	1052346	NegNonAlcP3000	n/a	n/a	n/a	n/a
1055.3330000000	n/a	1055333	NegNonAlcP3000	n/a	n/a	n/a	n/a
