onset	duration	sample	trial_type	response_time	stim_file	value	correct
6.5860000000	n/a	6586	ignore	n/a	n/a	n/a	n/a
9.6860000000	n/a	9686	ignore	n/a	n/a	n/a	n/a
12.6990000000	n/a	12699	ignore	n/a	n/a	n/a	n/a
28.4860000000	n/a	28486	ignore	n/a	n/a	n/a	n/a
31.5860000000	n/a	31586	ignore	n/a	n/a	n/a	n/a
34.5730000000	n/a	34573	ignore	n/a	n/a	n/a	n/a
52.2030000000	n/a	52203	PosStim	n/a	n/a	n/a	n/a
55.2360000000	n/a	55236	PosNonAlcStimWithoutStartle	n/a	n/a	n/a	n/a
70.7860000000	n/a	70786	NegStim	n/a	n/a	n/a	n/a
73.8190000000	n/a	73819	NegNonAlcStimWithoutStartle	n/a	n/a	n/a	n/a
87.0690000000	n/a	87069	NeuStim	n/a	n/a	n/a	n/a
90.1690000000	n/a	90169	NeuNonAlcP2000	n/a	n/a	n/a	n/a
94.1560000000	n/a	94156	NeuNonAlcP2000	n/a	n/a	n/a	n/a
104.1690000000	n/a	104169	NegStim	n/a	n/a	n/a	n/a
107.2690000000	n/a	107269	NegAlcP2000	n/a	n/a	n/a	n/a
111.2560000000	n/a	111256	NegAlcP2000	n/a	n/a	n/a	n/a
123.3690000000	n/a	123369	NeuStim	n/a	n/a	n/a	n/a
126.4030000000	n/a	126403	NeuAlcStimWithoutStartle	n/a	n/a	n/a	n/a
139.9190000000	n/a	139919	PosStim	n/a	n/a	n/a	n/a
143.0190000000	n/a	143019	PosAlcP1000	n/a	n/a	n/a	n/a
148.0060000000	n/a	148006	PosAlcP1000	n/a	n/a	n/a	n/a
156.9690000000	n/a	156969	NeuStim	n/a	n/a	n/a	n/a
160.0690000000	n/a	160069	NeuAlcP2000	n/a	n/a	n/a	n/a
164.0560000000	n/a	164056	NeuAlcP2000	n/a	n/a	n/a	n/a
176.6190000000	n/a	176619	NegStim	n/a	n/a	n/a	n/a
179.7190000000	n/a	179719	NegAlcP3000	n/a	n/a	n/a	n/a
182.7060000000	n/a	182706	NegAlcP3000	n/a	n/a	n/a	n/a
193.0360000000	n/a	193036	PosStim	n/a	n/a	n/a	n/a
196.0690000000	n/a	196069	PosNonAlcStimWithoutStartle	n/a	n/a	n/a	n/a
210.9690000000	n/a	210969	NeuStim	n/a	n/a	n/a	n/a
214.0690000000	n/a	214069	NeuAlcP1000	n/a	n/a	n/a	n/a
219.0560000000	n/a	219056	NeuAlcP1000	n/a	n/a	n/a	n/a
229.5860000000	n/a	229586	NegStim	n/a	n/a	n/a	n/a
232.6860000000	n/a	232686	NegNonAlcP3000	n/a	n/a	n/a	n/a
235.6730000000	n/a	235673	NegNonAlcP3000	n/a	n/a	n/a	n/a
248.9360000000	n/a	248936	PosStim	n/a	n/a	n/a	n/a
252.0360000000	n/a	252036	PosAlcP2000	n/a	n/a	n/a	n/a
256.0230000000	n/a	256023	PosAlcP2000	n/a	n/a	n/a	n/a
268.4860000000	n/a	268486	NegStim	n/a	n/a	n/a	n/a
271.5190000000	n/a	271519	NegNonAlcStimWithoutStartle	n/a	n/a	n/a	n/a
288.3190000000	n/a	288319	PosStim	n/a	n/a	n/a	n/a
291.3520000000	n/a	291352	PosAlcStimWithoutStartle	n/a	n/a	n/a	n/a
305.7690000000	n/a	305769	NeuStim	n/a	n/a	n/a	n/a
308.8690000000	n/a	308869	NeuNonAlcP3000	n/a	n/a	n/a	n/a
311.8560000000	n/a	311856	NeuNonAlcP3000	n/a	n/a	n/a	n/a
323.1020000000	n/a	323102	NegStim	n/a	n/a	n/a	n/a
326.2020000000	n/a	326202	NegAlcP1000	n/a	n/a	n/a	n/a
331.1890000000	n/a	331189	NegAlcP1000	n/a	n/a	n/a	n/a
342.4360000000	n/a	342436	NeuStim	n/a	n/a	n/a	n/a
345.5360000000	n/a	345536	NeuAlcP3000	n/a	n/a	n/a	n/a
348.5230000000	n/a	348523	NeuAlcP3000	n/a	n/a	n/a	n/a
359.7360000000	n/a	359736	PosStim	n/a	n/a	n/a	n/a
362.8360000000	n/a	362836	PosAlcP3000	n/a	n/a	n/a	n/a
365.8230000000	n/a	365823	PosAlcP3000	n/a	n/a	n/a	n/a
377.0690000000	n/a	377069	NeuStim	n/a	n/a	n/a	n/a
380.1020000000	n/a	380102	NeuAlcStimWithoutStartle	n/a	n/a	n/a	n/a
397.0520000000	n/a	397052	NegStim	n/a	n/a	n/a	n/a
400.1520000000	n/a	400152	NegAlcP1000	n/a	n/a	n/a	n/a
405.1390000000	n/a	405139	NegAlcP1000	n/a	n/a	n/a	n/a
416.5190000000	n/a	416519	NeuStim	n/a	n/a	n/a	n/a
419.6190000000	n/a	419619	NeuNonAlcP3000	n/a	n/a	n/a	n/a
422.6060000000	n/a	422606	NeuNonAlcP3000	n/a	n/a	n/a	n/a
436.4520000000	n/a	436452	NegStim	n/a	n/a	n/a	n/a
439.5520000000	n/a	439552	NegNonAlcP2000	n/a	n/a	n/a	n/a
443.5390000000	n/a	443539	NegNonAlcP2000	n/a	n/a	n/a	n/a
456.3860000000	n/a	456386	PosStim	n/a	n/a	n/a	n/a
459.4190000000	n/a	459419	PosNonAlcStimWithoutStartle	n/a	n/a	n/a	n/a
473.8860000000	n/a	473886	NeuStim	n/a	n/a	n/a	n/a
476.9190000000	n/a	476919	NeuNonAlcStimWithoutStartle	n/a	n/a	n/a	n/a
489.9690000000	n/a	489969	PosStim	n/a	n/a	n/a	n/a
493.0690000000	n/a	493069	PosNonAlcP1000	n/a	n/a	n/a	n/a
498.0560000000	n/a	498056	PosNonAlcP1000	n/a	n/a	n/a	n/a
508.2190000000	n/a	508219	NegStim	n/a	n/a	n/a	n/a
511.2520000000	n/a	511252	NegAlcStimWithoutStartle	n/a	n/a	n/a	n/a
527.1860000000	n/a	527186	NeuStim	n/a	n/a	n/a	n/a
530.2850000000	n/a	530285	NeuAlcP2000	n/a	n/a	n/a	n/a
534.2730000000	n/a	534273	NeuAlcP2000	n/a	n/a	n/a	n/a
547.2690000000	n/a	547269	PosStim	n/a	n/a	n/a	n/a
550.3690000000	n/a	550369	PosNonAlcP1000	n/a	n/a	n/a	n/a
555.3560000000	n/a	555356	PosNonAlcP1000	n/a	n/a	n/a	n/a
566.2520000000	n/a	566252	NeuStim	n/a	n/a	n/a	n/a
569.3520000000	n/a	569352	NeuNonAlcP1000	n/a	n/a	n/a	n/a
574.3390000000	n/a	574339	NeuNonAlcP1000	n/a	n/a	n/a	n/a
583.5190000000	n/a	583519	PosStim	n/a	n/a	n/a	n/a
586.5520000000	n/a	586552	PosNonAlcStimWithoutStartle	n/a	n/a	n/a	n/a
599.9350000000	n/a	599935	NegStim	n/a	n/a	n/a	n/a
603.0350000000	n/a	603035	NegAlcP2000	n/a	n/a	n/a	n/a
607.0220000000	n/a	607022	NegAlcP2000	n/a	n/a	n/a	n/a
617.2520000000	n/a	617252	NeuStim	n/a	n/a	n/a	n/a
620.3520000000	n/a	620352	NeuAlcP3000	n/a	n/a	n/a	n/a
623.3390000000	n/a	623339	NeuAlcP3000	n/a	n/a	n/a	n/a
636.2350000000	n/a	636235	NegStim	n/a	n/a	n/a	n/a
639.2690000000	n/a	639269	NegAlcStimWithoutStartle	n/a	n/a	n/a	n/a
652.8350000000	n/a	652835	NeuStim	n/a	n/a	n/a	n/a
655.9350000000	n/a	655935	NeuNonAlcP2000	n/a	n/a	n/a	n/a
659.9220000000	n/a	659922	NeuNonAlcP2000	n/a	n/a	n/a	n/a
669.5520000000	n/a	669552	PosStim	n/a	n/a	n/a	n/a
672.6520000000	n/a	672652	PosNonAlcP3000	n/a	n/a	n/a	n/a
675.6390000000	n/a	675639	PosNonAlcP3000	n/a	n/a	n/a	n/a
689.1690000000	n/a	689169	NegStim	n/a	n/a	n/a	n/a
692.2690000000	n/a	692269	NegAlcP3000	n/a	n/a	n/a	n/a
695.2560000000	n/a	695256	NegAlcP3000	n/a	n/a	n/a	n/a
705.5190000000	n/a	705519	PosStim	n/a	n/a	n/a	n/a
708.5520000000	n/a	708552	PosAlcStimWithoutStartle	n/a	n/a	n/a	n/a
721.7850000000	n/a	721785	NegStim	n/a	n/a	n/a	n/a
724.8850000000	n/a	724885	NegAlcP1000	n/a	n/a	n/a	n/a
729.8720000000	n/a	729872	NegAlcP1000	n/a	n/a	n/a	n/a
738.3520000000	n/a	738352	PosStim	n/a	n/a	n/a	n/a
741.3850000000	n/a	741385	PosAlcStimWithoutStartle	n/a	n/a	n/a	n/a
755.2020000000	n/a	755202	NegStim	n/a	n/a	n/a	n/a
758.3020000000	n/a	758302	NegNonAlcP2000	n/a	n/a	n/a	n/a
762.2890000000	n/a	762289	NegNonAlcP2000	n/a	n/a	n/a	n/a
772.9020000000	n/a	772902	PosStim	n/a	n/a	n/a	n/a
776.0020000000	n/a	776002	PosAlcP2000	n/a	n/a	n/a	n/a
779.9890000000	n/a	779989	PosAlcP2000	n/a	n/a	n/a	n/a
790.0350000000	n/a	790035	NeuStim	n/a	n/a	n/a	n/a
793.0680000000	n/a	793068	NeuNonAlcStimWithoutStartle	n/a	n/a	n/a	n/a
807.4680000000	n/a	807468	PosStim	n/a	n/a	n/a	n/a
810.5680000000	n/a	810568	PosNonAlcP2000	n/a	n/a	n/a	n/a
814.5550000000	n/a	814555	PosNonAlcP2000	n/a	n/a	n/a	n/a
826.1520000000	n/a	826152	NegStim	n/a	n/a	n/a	n/a
829.1850000000	n/a	829185	NegAlcStimWithoutStartle	n/a	n/a	n/a	n/a
845.0680000000	n/a	845068	PosStim	n/a	n/a	n/a	n/a
848.1680000000	n/a	848168	PosAlcP3000	n/a	n/a	n/a	n/a
851.1550000000	n/a	851155	PosAlcP3000	n/a	n/a	n/a	n/a
861.4850000000	n/a	861485	PosStim	n/a	n/a	n/a	n/a
864.5850000000	n/a	864585	PosNonAlcP3000	n/a	n/a	n/a	n/a
867.5720000000	n/a	867572	PosNonAlcP3000	n/a	n/a	n/a	n/a
878.9850000000	n/a	878985	NeuStim	n/a	n/a	n/a	n/a
882.0180000000	n/a	882018	NeuNonAlcStimWithoutStartle	n/a	n/a	n/a	n/a
897.8680000000	n/a	897868	NeuStim	n/a	n/a	n/a	n/a
900.9680000000	n/a	900968	NeuNonAlcP3000	n/a	n/a	n/a	n/a
903.9550000000	n/a	903955	NeuNonAlcP3000	n/a	n/a	n/a	n/a
914.3180000000	n/a	914318	PosStim	n/a	n/a	n/a	n/a
917.4180000000	n/a	917418	PosAlcP2000	n/a	n/a	n/a	n/a
921.4050000000	n/a	921405	PosAlcP2000	n/a	n/a	n/a	n/a
934.4520000000	n/a	934452	NegStim	n/a	n/a	n/a	n/a
937.5520000000	n/a	937552	NegAlcP1000	n/a	n/a	n/a	n/a
942.5390000000	n/a	942539	NegAlcP1000	n/a	n/a	n/a	n/a
951.6850000000	n/a	951685	PosStim	n/a	n/a	n/a	n/a
954.7850000000	n/a	954785	PosNonAlcP2000	n/a	n/a	n/a	n/a
958.7720000000	n/a	958772	PosNonAlcP2000	n/a	n/a	n/a	n/a
969.5180000000	n/a	969518	NeuStim	n/a	n/a	n/a	n/a
972.5520000000	n/a	972552	NeuNonAlcStimWithoutStartle	n/a	n/a	n/a	n/a
986.6350000000	n/a	986635	NegStim	n/a	n/a	n/a	n/a
989.7350000000	n/a	989735	NegAlcP2000	n/a	n/a	n/a	n/a
993.7220000000	n/a	993722	NegAlcP2000	n/a	n/a	n/a	n/a
1005.5520000000	n/a	1005552	PosStim	n/a	n/a	n/a	n/a
1008.6520000000	n/a	1008652	PosAlcP3000	n/a	n/a	n/a	n/a
1011.6390000000	n/a	1011639	PosAlcP3000	n/a	n/a	n/a	n/a
1024.0520000000	n/a	1024052	NeuStim	n/a	n/a	n/a	n/a
1027.0850000000	n/a	1027085	NeuAlcStimWithoutStartle	n/a	n/a	n/a	n/a
1043.0850000000	n/a	1043085	NegStim	n/a	n/a	n/a	n/a
1046.1850000000	n/a	1046185	NegNonAlcP3000	n/a	n/a	n/a	n/a
1049.1720000000	n/a	1049172	NegNonAlcP3000	n/a	n/a	n/a	n/a
