onset	duration	sample	trial_type	response_time	stim_file	value	correct
11.5670000000	n/a	11567	ignore	735	n/a	n/a	1
13.3670000000	n/a	13367	ignore	1000	n/a	n/a	1
15.3670000000	n/a	15367	ignore	1700	n/a	n/a	1
17.0670000000	n/a	17067	ignore	1300	n/a	n/a	1
19.4330000000	n/a	19433	ignore	1000	n/a	n/a	1
21.4340000000	n/a	21434	ignore	1700	n/a	n/a	1
23.1330000000	n/a	23133	ignore	1432	n/a	n/a	1
25.6330000000	n/a	25633	ignore	1000	n/a	n/a	1
27.6330000000	n/a	27633	ignore	1700	n/a	n/a	1
29.3330000000	n/a	29333	ignore	8392	n/a	n/a	0
38.8000000000	n/a	38800	ignore	1000	n/a	n/a	1
40.8000000000	n/a	40800	ignore	1700	n/a	n/a	1
42.5000000000	n/a	42500	ignore	966	n/a	n/a	0
44.5330000000	n/a	44533	ignore	1000	n/a	n/a	1
46.5330000000	n/a	46533	ignore	1700	n/a	n/a	1
48.2330000000	n/a	48233	ignore	2950	n/a	n/a	0
52.2500000000	n/a	52250	ignore	1000	n/a	n/a	1
54.2500000000	n/a	54250	ignore	1700	n/a	n/a	1
55.9500000000	n/a	55950	ignore	740	n/a	n/a	1
57.7670000000	n/a	57767	ignore	1000	n/a	n/a	1
59.7670000000	n/a	59767	ignore	1700	n/a	n/a	1
61.4670000000	n/a	61467	ignore	5332	n/a	n/a	1
67.8670000000	n/a	67867	ignore	1000	n/a	n/a	1
69.8670000000	n/a	69867	STATUS	1700	n/a	n/a	1
71.5670000000	n/a	71567	ignore	6506	n/a	n/a	1
78.1500000000	n/a	78150	ignore 	2000	n/a	n/a	1
86.2670000000	n/a	86267	ignore	1000	n/a	n/a	1
88.2670000000	n/a	88267	STATUS	1700	n/a	n/a	1
89.9670000000	n/a	89967	ignore	1151	n/a	n/a	0
92.1830000000	n/a	92183	ignore	1000	n/a	n/a	1
94.1830000000	n/a	94183	ignore	1700	n/a	n/a	1
95.8830000000	n/a	95883	ignore	1228	n/a	n/a	1
98.1830000000	n/a	98183	ignore	1000	n/a	n/a	1
100.1830000000	n/a	100183	ignore	1700	n/a	n/a	1
101.8830000000	n/a	101883	ignore	1390	n/a	n/a	1
104.3500000000	n/a	104350	ignore	1000	n/a	n/a	1
106.3500000000	n/a	106350	ignore	1700	n/a	n/a	1
108.0500000000	n/a	108050	ignore	453	n/a	n/a	0
109.5670000000	n/a	109567	ignore	1000	n/a	n/a	1
111.5670000000	n/a	111567	ignore	1700	n/a	n/a	1
113.2670000000	n/a	113267	ignore	1490	n/a	n/a	0
115.8330000000	n/a	115833	ignore	1000	n/a	n/a	1
117.8330000000	n/a	117833	ignore	1700	n/a	n/a	1
119.5330000000	n/a	119533	ignore	1532	n/a	n/a	1
122.1330000000	n/a	122133	ignore	1000	n/a	n/a	1
124.1330000000	n/a	124133	ignore	1700	n/a	n/a	1
125.8330000000	n/a	125833	ignore	1156	n/a	n/a	0
128.0670000000	n/a	128067	ignore	1000	n/a	n/a	1
130.0670000000	n/a	130067	ignore	1700	n/a	n/a	1
131.7670000000	n/a	131767	ignore	3153	n/a	n/a	1
134.9830000000	n/a	134983	ignore 	2000	n/a	n/a	1
154.9000000000	n/a	154900	PenaltyB1	3975	n/a	n/a	1
159.9500000000	n/a	159950	NeuCorrB1	1000	n/a	n/a	1
161.9500000000	n/a	161950	ignore	1700	n/a	n/a	1
163.6500000000	n/a	163650	PenaltyB1	4623	n/a	n/a	1
169.3500000000	n/a	169350	NeuCorrB1	1000	n/a	n/a	1
171.3500000000	n/a	171350	ignore	1700	n/a	n/a	1
173.0500000000	n/a	173050	PenaltyB1	1293	n/a	n/a	1
175.4160000000	n/a	175416	NeuCorrB1	1000	n/a	n/a	1
177.4170000000	n/a	177417	ignore	1700	n/a	n/a	1
179.1160000000	n/a	179116	RewardB1	5846	n/a	n/a	1
186.0330000000	n/a	186033	RewardCorrB1	1000	n/a	n/a	1
188.0330000000	n/a	188033	ignore	1700	n/a	n/a	1
189.7330000000	n/a	189733	RewardB1	1586	n/a	n/a	1
192.3830000000	n/a	192383	RewardCorrB1	1000	n/a	n/a	1
194.3830000000	n/a	194383	ignore	1700	n/a	n/a	1
196.0830000000	n/a	196083	PenaltyB1	767	n/a	n/a	1
197.9160000000	n/a	197916	NeuCorrB1	1000	n/a	n/a	1
199.9170000000	n/a	199917	ignore	1700	n/a	n/a	1
201.6160000000	n/a	201616	PenaltyB1	1053	n/a	n/a	1
203.7330000000	n/a	203733	NeuCorrB1	1000	n/a	n/a	1
205.7330000000	n/a	205733	ignore	1700	n/a	n/a	1
207.4330000000	n/a	207433	PenaltyB1	657	n/a	n/a	0
209.1660000000	n/a	209166	PunIncorrB1	1000	n/a	n/a	1
211.1670000000	n/a	211167	ignore	1700	n/a	n/a	1
212.8660000000	n/a	212866	PenaltyB1	665	n/a	n/a	1
214.6000000000	n/a	214600	PunCorrB1	1000	n/a	n/a	1
216.6000000000	n/a	216600	ignore	1700	n/a	n/a	1
218.3000000000	n/a	218300	RewardB1	964	n/a	n/a	0
220.3330000000	n/a	220333	NeuIncorrB1	1000	n/a	n/a	1
222.3330000000	n/a	222333	ignore	1700	n/a	n/a	1
224.0330000000	n/a	224033	PenaltyB1	705	n/a	n/a	1
225.8160000000	n/a	225816	NeuCorrB1	1000	n/a	n/a	1
227.8160000000	n/a	227816	ignore	1700	n/a	n/a	1
229.5160000000	n/a	229516	RewardB1	796	n/a	n/a	1
231.3830000000	n/a	231383	NeuCorrB1	1000	n/a	n/a	1
233.3830000000	n/a	233383	ignore	1700	n/a	n/a	1
235.0830000000	n/a	235083	PenaltyB1	4603	n/a	n/a	1
240.7500000000	n/a	240750	NeuCorrB1	1000	n/a	n/a	1
242.7500000000	n/a	242750	ignore	1700	n/a	n/a	1
244.4500000000	n/a	244450	RewardB1	805	n/a	n/a	1
246.3330000000	n/a	246333	RewardCorrB1	1000	n/a	n/a	1
248.3330000000	n/a	248333	ignore	1700	n/a	n/a	1
250.0330000000	n/a	250033	PenaltyB1	2242	n/a	n/a	1
253.3500000000	n/a	253350	NeuCorrB1	1000	n/a	n/a	1
255.3500000000	n/a	255350	ignore	1700	n/a	n/a	1
257.0500000000	n/a	257050	PenaltyB1	1272	n/a	n/a	1
259.4000000000	n/a	259400	NeuCorrB1	1000	n/a	n/a	1
261.4000000000	n/a	261400	ignore	1700	n/a	n/a	1
263.1000000000	n/a	263100	RewardB1	452	n/a	n/a	1
264.6160000000	n/a	264616	NeuCorrB1	1000	n/a	n/a	1
266.6160000000	n/a	266616	ignore	1700	n/a	n/a	1
268.3160000000	n/a	268316	PenaltyB1	741	n/a	n/a	1
270.1330000000	n/a	270133	NeuCorrB1	1000	n/a	n/a	1
272.1330000000	n/a	272133	ignore	1700	n/a	n/a	1
273.8330000000	n/a	273833	RewardB1	557	n/a	n/a	1
275.4660000000	n/a	275466	RewardCorrB1	1000	n/a	n/a	1
277.4660000000	n/a	277466	ignore	1700	n/a	n/a	1
279.1660000000	n/a	279166	RewardB1	563	n/a	n/a	1
280.8000000000	n/a	280800	RewardCorrB1	1000	n/a	n/a	1
282.8000000000	n/a	282800	ignore	1700	n/a	n/a	1
284.5000000000	n/a	284500	RewardB1	3801	n/a	n/a	0
289.3660000000	n/a	289366	RewIncorrB1	1000	n/a	n/a	1
291.3660000000	n/a	291366	ignore	1700	n/a	n/a	1
293.0660000000	n/a	293066	RewardB1	1175	n/a	n/a	0
295.3160000000	n/a	295316	NeuIncorrB1	1000	n/a	n/a	1
297.3160000000	n/a	297316	ignore	1700	n/a	n/a	1
299.0160000000	n/a	299016	RewardB1	655	n/a	n/a	1
300.7500000000	n/a	300750	RewardCorrB1	1000	n/a	n/a	1
302.7500000000	n/a	302750	ignore	1700	n/a	n/a	1
304.4500000000	n/a	304450	PenaltyB1	571	n/a	n/a	1
306.0830000000	n/a	306083	NeuCorrB1	1000	n/a	n/a	1
308.0830000000	n/a	308083	ignore	1700	n/a	n/a	1
309.7830000000	n/a	309783	RewardB1	481	n/a	n/a	0
311.3330000000	n/a	311333	NeuIncorrB1	1000	n/a	n/a	1
313.3330000000	n/a	313333	ignore	1700	n/a	n/a	1
315.0330000000	n/a	315033	PenaltyB1	661	n/a	n/a	1
316.7660000000	n/a	316766	PunCorrB1	1000	n/a	n/a	1
318.7660000000	n/a	318766	ignore	1700	n/a	n/a	1
320.4660000000	n/a	320466	RewardB1	768	n/a	n/a	0
322.3000000000	n/a	322300	NeuIncorrB1	1000	n/a	n/a	1
324.3000000000	n/a	324300	ignore	1700	n/a	n/a	1
326.0000000000	n/a	326000	RewardB1	641	n/a	n/a	1
327.7160000000	n/a	327716	RewardCorrB1	1000	n/a	n/a	1
329.7160000000	n/a	329716	ignore	1700	n/a	n/a	1
331.4160000000	n/a	331416	RewardB1	2263	n/a	n/a	0
334.7500000000	n/a	334750	NeuIncorrB1	1000	n/a	n/a	1
336.7500000000	n/a	336750	ignore	1700	n/a	n/a	1
338.4500000000	n/a	338450	PenaltyB1	1165	n/a	n/a	0
340.6830000000	n/a	340683	PunIncorrB1	1000	n/a	n/a	1
342.6830000000	n/a	342683	ignore	1700	n/a	n/a	1
344.3830000000	n/a	344383	RewardB1	367	n/a	n/a	0
345.8160000000	n/a	345816	RewIncorrB1	1000	n/a	n/a	1
347.8160000000	n/a	347816	ignore	1700	n/a	n/a	1
349.5160000000	n/a	349516	PenaltyB1	2511	n/a	n/a	1
353.1000000000	n/a	353100	NeuCorrB1	1000	n/a	n/a	1
355.1000000000	n/a	355100	ignore	1700	n/a	n/a	1
356.8000000000	n/a	356800	RewardB1	748	n/a	n/a	1
358.6160000000	n/a	358616	RewardCorrB1	1000	n/a	n/a	1
360.6160000000	n/a	360616	ignore	1700	n/a	n/a	1
362.3160000000	n/a	362316	PenaltyB1	6030	n/a	n/a	0
369.4160000000	n/a	369416	NeuIncorrB1	1000	n/a	n/a	1
371.4160000000	n/a	371416	ignore	1700	n/a	n/a	1
373.1160000000	n/a	373116	RewardB1	789	n/a	n/a	0
374.9830000000	n/a	374983	NeuIncorrB1	1000	n/a	n/a	1
376.9830000000	n/a	376983	ignore	1700	n/a	n/a	1
378.6830000000	n/a	378683	PenaltyB1	1067	n/a	n/a	1
380.8160000000	n/a	380816	NeuCorrB1	1000	n/a	n/a	1
382.8160000000	n/a	382816	ignore	1700	n/a	n/a	1
384.5160000000	n/a	384516	PenaltyB1	842	n/a	n/a	1
386.4330000000	n/a	386433	NeuCorrB1	1000	n/a	n/a	1
388.4330000000	n/a	388433	ignore	1700	n/a	n/a	1
390.1330000000	n/a	390133	RewardB1	837	n/a	n/a	0
392.0330000000	n/a	392033	NeuIncorrB1	1000	n/a	n/a	1
394.0330000000	n/a	394033	ignore	1700	n/a	n/a	1
395.7330000000	n/a	395733	PenaltyB1	1350	n/a	n/a	1
398.1490000000	n/a	398149	PunCorrB1	1000	n/a	n/a	1
400.1500000000	n/a	400150	ignore	1700	n/a	n/a	1
401.8490000000	n/a	401849	RewardB1	2206	n/a	n/a	1
405.1330000000	n/a	405133	RewardCorrB1	1000	n/a	n/a	1
407.1330000000	n/a	407133	ignore	1700	n/a	n/a	1
415.0830000000	n/a	415083	RewardB2	1527	n/a	n/a	1
417.6830000000	n/a	417683	RewardCorrB2	1000	n/a	n/a	1
419.6830000000	n/a	419683	ignore	1700	n/a	n/a	1
421.3830000000	n/a	421383	PenaltyB2	680	n/a	n/a	0
423.1330000000	n/a	423133	PunIncorrB2	1000	n/a	n/a	1
425.1330000000	n/a	425133	ignore	1700	n/a	n/a	1
426.8330000000	n/a	426833	RewardB2	519	n/a	n/a	1
428.4160000000	n/a	428416	RewardCorrB2	1000	n/a	n/a	1
430.4160000000	n/a	430416	ignore	1700	n/a	n/a	1
432.1160000000	n/a	432116	RewardB2	644	n/a	n/a	0
433.8330000000	n/a	433833	RewIncorrB2	1000	n/a	n/a	1
435.8330000000	n/a	435833	STATUS	1700	n/a	n/a	1
437.5330000000	n/a	437533	PenaltyB2	581	n/a	n/a	1
439.1830000000	n/a	439183	NeuCorrB2	1000	n/a	n/a	1
441.1830000000	n/a	441183	STATUS	1700	n/a	n/a	1
442.8830000000	n/a	442883	RewardB2	541	n/a	n/a	0
444.4990000000	n/a	444499	NeuIncorrB2	1000	n/a	n/a	1
446.4990000000	n/a	446499	STATUS	1700	n/a	n/a	1
448.1990000000	n/a	448199	PenaltyB2	1448	n/a	n/a	1
450.7160000000	n/a	450716	NeuCorrB2	1000	n/a	n/a	1
452.7160000000	n/a	452716	STATUS	1700	n/a	n/a	1
454.4160000000	n/a	454416	RewardB2	579	n/a	n/a	0
456.0660000000	n/a	456066	NeuIncorrB2	1000	n/a	n/a	1
458.0660000000	n/a	458066	STATUS	1700	n/a	n/a	1
459.7660000000	n/a	459766	PenaltyB2	725	n/a	n/a	1
461.5660000000	n/a	461566	NeuCorrB2	1000	n/a	n/a	1
463.5660000000	n/a	463566	STATUS	1700	n/a	n/a	1
465.2660000000	n/a	465266	RewardB2	753	n/a	n/a	1
467.0830000000	n/a	467083	RewardCorrB2	1000	n/a	n/a	1
469.0830000000	n/a	469083	STATUS	1700	n/a	n/a	1
470.7830000000	n/a	470783	PenaltyB2	791	n/a	n/a	1
472.6490000000	n/a	472649	PunCorrB2	1000	n/a	n/a	1
474.6490000000	n/a	474649	STATUS	1700	n/a	n/a	1
476.3490000000	n/a	476349	RewardB2	628	n/a	n/a	1
478.0490000000	n/a	478049	RewardCorrB2	1000	n/a	n/a	1
480.0490000000	n/a	480049	STATUS	1700	n/a	n/a	1
481.7490000000	n/a	481749	PenaltyB2	6373	n/a	n/a	1
489.1990000000	n/a	489199	NeuCorrB2	1000	n/a	n/a	1
491.1990000000	n/a	491199	STATUS	1700	n/a	n/a	1
492.8990000000	n/a	492899	RewardB2	553	n/a	n/a	0
494.5160000000	n/a	494516	NeuIncorrB2	1000	n/a	n/a	1
496.5160000000	n/a	496516	STATUS	1700	n/a	n/a	1
498.2160000000	n/a	498216	PenaltyB2	862	n/a	n/a	1
500.1490000000	n/a	500149	NeuCorrB2	1000	n/a	n/a	1
502.1490000000	n/a	502149	STATUS	1700	n/a	n/a	1
503.8490000000	n/a	503849	RewardB2	604	n/a	n/a	0
505.5160000000	n/a	505516	RewIncorrB2	1000	n/a	n/a	1
507.5160000000	n/a	507516	STATUS	1700	n/a	n/a	1
509.2160000000	n/a	509216	PenaltyB2	1264	n/a	n/a	1
511.5490000000	n/a	511549	NeuCorrB2	1000	n/a	n/a	1
513.5490000000	n/a	513549	STATUS	1700	n/a	n/a	1
515.2490000000	n/a	515249	RewardB2	558	n/a	n/a	0
516.8830000000	n/a	516883	NeuIncorrB2	1000	n/a	n/a	1
518.8830000000	n/a	518883	STATUS	1700	n/a	n/a	1
520.5830000000	n/a	520583	PenaltyB2	4752	n/a	n/a	1
526.3990000000	n/a	526399	NeuCorrB2	1000	n/a	n/a	1
528.3990000000	n/a	528399	STATUS	1700	n/a	n/a	1
530.0990000000	n/a	530099	RewardB2	514	n/a	n/a	1
531.6830000000	n/a	531683	RewardCorrB2	1000	n/a	n/a	1
533.6830000000	n/a	533683	STATUS	1700	n/a	n/a	1
535.3830000000	n/a	535383	PenaltyB2	731	n/a	n/a	1
537.1830000000	n/a	537183	PunCorrB2	1000	n/a	n/a	1
539.1830000000	n/a	539183	STATUS	1700	n/a	n/a	1
540.8830000000	n/a	540883	PenaltyB2	1704	n/a	n/a	1
543.6490000000	n/a	543649	NeuCorrB2	1000	n/a	n/a	1
545.6490000000	n/a	545649	STATUS	1700	n/a	n/a	1
547.3490000000	n/a	547349	PenaltyB2	1014	n/a	n/a	1
549.4330000000	n/a	549433	NeuCorrB2	1000	n/a	n/a	1
551.4330000000	n/a	551433	STATUS	1700	n/a	n/a	1
553.1330000000	n/a	553133	RewardB2	558	n/a	n/a	0
554.7660000000	n/a	554766	NeuIncorrB2	1000	n/a	n/a	1
556.7660000000	n/a	556766	STATUS	1700	n/a	n/a	1
558.4660000000	n/a	558466	RewardB2	496	n/a	n/a	1
560.0330000000	n/a	560033	NeuCorrB2	1000	n/a	n/a	1
562.0330000000	n/a	562033	STATUS	1700	n/a	n/a	1
563.7330000000	n/a	563733	RewardB2	485	n/a	n/a	1
565.2830000000	n/a	565283	RewardCorrB2	1000	n/a	n/a	1
567.2830000000	n/a	567283	STATUS	1700	n/a	n/a	1
568.9830000000	n/a	568983	PenaltyB2	829	n/a	n/a	1
570.8830000000	n/a	570883	NeuCorrB2	1000	n/a	n/a	1
572.8830000000	n/a	572883	STATUS	1700	n/a	n/a	1
574.5830000000	n/a	574583	PenaltyB2	1880	n/a	n/a	0
577.5330000000	n/a	577533	PunIncorrB2	1000	n/a	n/a	1
579.5330000000	n/a	579533	STATUS	1700	n/a	n/a	1
581.2320000000	n/a	581232	RewardB2	607	n/a	n/a	0
582.9160000000	n/a	582916	NeuIncorrB2	1000	n/a	n/a	1
584.9160000000	n/a	584916	STATUS	1700	n/a	n/a	1
586.6160000000	n/a	586616	PenaltyB2	682	n/a	n/a	1
588.3660000000	n/a	588366	NeuCorrB2	1000	n/a	n/a	1
590.3660000000	n/a	590366	STATUS	1700	n/a	n/a	1
592.0660000000	n/a	592066	RewardB2	613	n/a	n/a	1
593.7490000000	n/a	593749	NeuCorrB2	1000	n/a	n/a	1
595.7490000000	n/a	595749	STATUS	1700	n/a	n/a	1
597.4490000000	n/a	597449	PenaltyB2	1526	n/a	n/a	1
600.0490000000	n/a	600049	NeuCorrB2	1000	n/a	n/a	1
602.0490000000	n/a	602049	STATUS	1700	n/a	n/a	1
603.7490000000	n/a	603749	RewardB2	1079	n/a	n/a	0
605.8990000000	n/a	605899	NeuIncorrB2	1000	n/a	n/a	1
607.8990000000	n/a	607899	STATUS	1700	n/a	n/a	1
609.5990000000	n/a	609599	PenaltyB2	701	n/a	n/a	1
611.3660000000	n/a	611366	NeuCorrB2	1000	n/a	n/a	1
613.3660000000	n/a	613366	STATUS	1700	n/a	n/a	1
615.0660000000	n/a	615066	PenaltyB2	3652	n/a	n/a	1
619.7820000000	n/a	619782	PunCorrB2	1000	n/a	n/a	1
621.7820000000	n/a	621782	STATUS	1700	n/a	n/a	1
623.4820000000	n/a	623482	RewardB2	1996	n/a	n/a	1
626.5490000000	n/a	626549	RewardCorrB2	1000	n/a	n/a	1
628.5490000000	n/a	628549	STATUS	1700	n/a	n/a	1
630.2490000000	n/a	630249	PenaltyB2	4278	n/a	n/a	1
635.5990000000	n/a	635599	NeuCorrB2	1000	n/a	n/a	1
637.5990000000	n/a	637599	STATUS	1700	n/a	n/a	1
639.2990000000	n/a	639299	RewardB2	2397	n/a	n/a	0
642.7660000000	n/a	642766	NeuIncorrB2	1000	n/a	n/a	1
644.7660000000	n/a	644766	STATUS	1700	n/a	n/a	1
646.4660000000	n/a	646466	PenaltyB2	1021	n/a	n/a	1
648.5490000000	n/a	648549	PunCorrB2	1000	n/a	n/a	1
650.5490000000	n/a	650549	STATUS	1700	n/a	n/a	1
652.2490000000	n/a	652249	RewardB2	1250	n/a	n/a	1
654.5660000000	n/a	654566	RewardCorrB2	1000	n/a	n/a	1
656.5660000000	n/a	656566	STATUS	1700	n/a	n/a	1
665.5820000000	n/a	665582	RewardB3	2235	n/a	n/a	1
668.8820000000	n/a	668882	RewardCorrB3	1000	n/a	n/a	1
670.8820000000	n/a	670882	STATUS	1700	n/a	n/a	1
672.5820000000	n/a	672582	PenaltyB3	2147	n/a	n/a	1
675.7990000000	n/a	675799	PunCorrB3	1000	n/a	n/a	1
677.7990000000	n/a	677799	STATUS	1700	n/a	n/a	1
679.4990000000	n/a	679499	RewardB3	668	n/a	n/a	0
681.2320000000	n/a	681232	NeuIncorrB3	1000	n/a	n/a	1
683.2320000000	n/a	683232	STATUS	1700	n/a	n/a	1
684.9320000000	n/a	684932	PenaltyB3	921	n/a	n/a	0
686.9160000000	n/a	686916	PunIncorrB3	1000	n/a	n/a	1
688.9160000000	n/a	688916	STATUS	1700	n/a	n/a	1
690.6160000000	n/a	690616	PenaltyB3	933	n/a	n/a	0
692.6160000000	n/a	692616	PunIncorrB3	1000	n/a	n/a	1
694.6160000000	n/a	694616	STATUS	1700	n/a	n/a	1
696.3160000000	n/a	696316	RewardB3	547	n/a	n/a	0
697.9320000000	n/a	697932	NeuIncorrB3	1000	n/a	n/a	1
699.9320000000	n/a	699932	STATUS	1700	n/a	n/a	1
701.6320000000	n/a	701632	PenaltyB3	959	n/a	n/a	1
703.6660000000	n/a	703666	PunCorrB3	1000	n/a	n/a	1
705.6660000000	n/a	705666	ignore	1700	n/a	n/a	1
707.3660000000	n/a	707366	RewardB3	667	n/a	n/a	1
709.0990000000	n/a	709099	RewardCorrB3	1000	n/a	n/a	1
711.0990000000	n/a	711099	STATUS	1700	n/a	n/a	1
712.7990000000	n/a	712799	PenaltyB3	2291	n/a	n/a	1
716.1660000000	n/a	716166	NeuCorrB3	1000	n/a	n/a	1
718.1660000000	n/a	718166	STATUS	1700	n/a	n/a	1
719.8660000000	n/a	719866	RewardB3	531	n/a	n/a	0
721.4660000000	n/a	721466	RewIncorrB3	1000	n/a	n/a	1
723.4660000000	n/a	723466	STATUS	1700	n/a	n/a	1
725.1660000000	n/a	725166	PenaltyB3	1269	n/a	n/a	0
727.4990000000	n/a	727499	PunIncorrB3	1000	n/a	n/a	1
729.4990000000	n/a	729499	STATUS	1700	n/a	n/a	1
731.1990000000	n/a	731199	RewardB3	463	n/a	n/a	0
732.7320000000	n/a	732732	NeuIncorrB3	1000	n/a	n/a	1
734.7320000000	n/a	734732	STATUS	1700	n/a	n/a	1
736.4320000000	n/a	736432	RewardB3	685	n/a	n/a	1
738.1820000000	n/a	738182	RewardCorrB3	1000	n/a	n/a	1
740.1820000000	n/a	740182	STATUS	1700	n/a	n/a	1
741.8820000000	n/a	741882	RewardB3	637	n/a	n/a	0
743.5820000000	n/a	743582	NeuIncorrB3	1000	n/a	n/a	1
745.5820000000	n/a	745582	STATUS	1700	n/a	n/a	1
747.2820000000	n/a	747282	PenaltyB3	885	n/a	n/a	1
749.2320000000	n/a	749232	PunCorrB3	1000	n/a	n/a	1
751.2320000000	n/a	751232	STATUS	1700	n/a	n/a	1
752.9320000000	n/a	752932	RewardB3	1000	n/a	n/a	0
754.9990000000	n/a	754999	NeuIncorrB3	1000	n/a	n/a	1
756.9990000000	n/a	756999	STATUS	1700	n/a	n/a	1
758.6990000000	n/a	758699	PenaltyB3	6664	n/a	n/a	1
766.4320000000	n/a	766432	NeuCorrB3	1000	n/a	n/a	1
768.4320000000	n/a	768432	STATUS	1700	n/a	n/a	1
770.1320000000	n/a	770132	RewardB3	637	n/a	n/a	1
771.8320000000	n/a	771832	RewardCorrB3	1000	n/a	n/a	1
773.8320000000	n/a	773832	STATUS	1700	n/a	n/a	1
775.5320000000	n/a	775532	RewardB3	2139	n/a	n/a	0
778.7490000000	n/a	778749	NeuIncorrB3	1000	n/a	n/a	1
780.7490000000	n/a	780749	STATUS	1700	n/a	n/a	1
782.4490000000	n/a	782449	RewardB3	1002	n/a	n/a	0
784.5160000000	n/a	784516	RewIncorrB3	1000	n/a	n/a	1
786.5160000000	n/a	786516	STATUS	1700	n/a	n/a	1
788.2160000000	n/a	788216	RewardB3	520	n/a	n/a	1
789.7990000000	n/a	789799	RewardCorrB3	1000	n/a	n/a	1
791.7990000000	n/a	791799	STATUS	1700	n/a	n/a	1
793.4990000000	n/a	793499	RewardB3	773	n/a	n/a	1
795.3490000000	n/a	795349	RewardCorrB3	1000	n/a	n/a	1
797.3490000000	n/a	797349	STATUS	1700	n/a	n/a	1
799.0490000000	n/a	799049	PenaltyB3	17661	n/a	n/a	0
817.7820000000	n/a	817782	PunIncorrB3	1000	n/a	n/a	1
819.7820000000	n/a	819782	STATUS	1700	n/a	n/a	1
821.4820000000	n/a	821482	RewardB3	541	n/a	n/a	1
823.0990000000	n/a	823099	NeuCorrB3	1000	n/a	n/a	1
825.0990000000	n/a	825099	STATUS	1700	n/a	n/a	1
826.7990000000	n/a	826799	PenaltyB3	1658	n/a	n/a	1
829.5320000000	n/a	829532	NeuCorrB3	1000	n/a	n/a	1
831.5320000000	n/a	831532	STATUS	1700	n/a	n/a	1
833.2320000000	n/a	833232	PenaltyB3	1419	n/a	n/a	1
835.7150000000	n/a	835715	NeuCorrB3	1000	n/a	n/a	1
837.7150000000	n/a	837715	STATUS	1700	n/a	n/a	1
839.4150000000	n/a	839415	RewardB3	1330	n/a	n/a	1
841.8150000000	n/a	841815	RewardCorrB3	1000	n/a	n/a	1
843.8150000000	n/a	843815	STATUS	1700	n/a	n/a	1
845.5150000000	n/a	845515	PenaltyB3	1547	n/a	n/a	1
848.1320000000	n/a	848132	NeuCorrB3	1000	n/a	n/a	1
850.1320000000	n/a	850132	STATUS	1700	n/a	n/a	1
851.8320000000	n/a	851832	RewardB3	1065	n/a	n/a	1
853.9650000000	n/a	853965	NeuCorrB3	1000	n/a	n/a	1
855.9650000000	n/a	855965	STATUS	1700	n/a	n/a	1
857.6650000000	n/a	857665	PenaltyB3	1858	n/a	n/a	0
860.5990000000	n/a	860599	PunIncorrB3	1000	n/a	n/a	1
862.5990000000	n/a	862599	STATUS	1700	n/a	n/a	1
864.2990000000	n/a	864299	RewardB3	1065	n/a	n/a	0
866.4320000000	n/a	866432	NeuIncorrB3	1000	n/a	n/a	1
868.4320000000	n/a	868432	STATUS	1700	n/a	n/a	1
870.1320000000	n/a	870132	PenaltyB3	928	n/a	n/a	1
872.1320000000	n/a	872132	PunCorrB3	1000	n/a	n/a	1
874.1320000000	n/a	874132	STATUS	1700	n/a	n/a	1
875.8320000000	n/a	875832	PenaltyB3	1730	n/a	n/a	0
878.6320000000	n/a	878632	PunIncorrB3	1000	n/a	n/a	1
880.6320000000	n/a	880632	STATUS	1700	n/a	n/a	1
882.3320000000	n/a	882332	PenaltyB3	4435	n/a	n/a	1
887.8320000000	n/a	887832	NeuCorrB3	1000	n/a	n/a	1
889.8320000000	n/a	889832	STATUS	1700	n/a	n/a	1
891.5320000000	n/a	891532	PenaltyB3	885	n/a	n/a	1
893.4820000000	n/a	893482	NeuCorrB3	1000	n/a	n/a	1
895.4820000000	n/a	895482	STATUS	1700	n/a	n/a	1
897.1820000000	n/a	897182	RewardB3	797	n/a	n/a	0
899.0490000000	n/a	899049	NeuIncorrB3	1000	n/a	n/a	1
901.0490000000	n/a	901049	STATUS	1700	n/a	n/a	1
902.7490000000	n/a	902749	RewardB3	454	n/a	n/a	1
904.2650000000	n/a	904265	RewardCorrB3	1000	n/a	n/a	1
906.2650000000	n/a	906265	STATUS	1700	n/a	n/a	1
907.9650000000	n/a	907965	PenaltyB3	920	n/a	n/a	1
909.9490000000	n/a	909949	NeuCorrB3	1000	n/a	n/a	1
911.9490000000	n/a	911949	STATUS	1700	n/a	n/a	1
913.6490000000	n/a	913649	PenaltyB3	3123	n/a	n/a	1
917.8490000000	n/a	917849	NeuCorrB3	1000	n/a	n/a	1
919.8490000000	n/a	919849	STATUS	1700	n/a	n/a	1
921.5490000000	n/a	921549	PenaltyB3	1111	n/a	n/a	1
923.7320000000	n/a	923732	NeuCorrB3	1000	n/a	n/a	1
925.7320000000	n/a	925732	STATUS	1700	n/a	n/a	1
933.4150000000	n/a	933415	RewardB4	1252	n/a	n/a	1
935.7320000000	n/a	935732	RewardCorrB4	1000	n/a	n/a	1
937.7320000000	n/a	937732	STATUS	1700	n/a	n/a	1
939.4320000000	n/a	939432	PenaltyB4	5455	n/a	n/a	0
945.9650000000	n/a	945965	NeuIncorrB4	1000	n/a	n/a	1
947.9650000000	n/a	947965	STATUS	1700	n/a	n/a	1
949.6650000000	n/a	949665	RewardB4	1776	n/a	n/a	0
952.5150000000	n/a	952515	NeuIncorrB4	1000	n/a	n/a	1
954.5150000000	n/a	954515	STATUS	1700	n/a	n/a	1
956.2150000000	n/a	956215	PenaltyB4	1500	n/a	n/a	0
958.7820000000	n/a	958782	PunIncorrB4	1000	n/a	n/a	1
960.7820000000	n/a	960782	STATUS	1700	n/a	n/a	1
962.4820000000	n/a	962482	RewardB4	2619	n/a	n/a	1
966.1650000000	n/a	966165	RewardCorrB4	1000	n/a	n/a	1
968.1650000000	n/a	968165	STATUS	1700	n/a	n/a	1
969.8650000000	n/a	969865	PenaltyB4	1500	n/a	n/a	1
972.4320000000	n/a	972432	PunCorrB4	1000	n/a	n/a	1
974.4320000000	n/a	974432	STATUS	1700	n/a	n/a	1
976.1320000000	n/a	976132	PenaltyB4	1673	n/a	n/a	1
978.8820000000	n/a	978882	NeuCorrB4	1000	n/a	n/a	1
980.8820000000	n/a	980882	STATUS	1700	n/a	n/a	1
982.5820000000	n/a	982582	RewardB4	623	n/a	n/a	0
984.2820000000	n/a	984282	NeuIncorrB4	1000	n/a	n/a	1
986.2820000000	n/a	986282	STATUS	1700	n/a	n/a	1
987.9820000000	n/a	987982	PenaltyB4	2366	n/a	n/a	1
991.4150000000	n/a	991415	NeuCorrB4	1000	n/a	n/a	1
993.4150000000	n/a	993415	STATUS	1700	n/a	n/a	1
995.1150000000	n/a	995115	RewardB4	2038	n/a	n/a	1
998.2150000000	n/a	998215	NeuCorrB4	1000	n/a	n/a	1
1000.2150000000	n/a	1000215	STATUS	1700	n/a	n/a	1
1001.9150000000	n/a	1001915	PenaltyB4	2040	n/a	n/a	1
1005.0320000000	n/a	1005032	NeuCorrB4	1000	n/a	n/a	1
1007.0320000000	n/a	1007032	STATUS	1700	n/a	n/a	1
1008.7320000000	n/a	1008732	RewardB4	577	n/a	n/a	0
1010.3820000000	n/a	1010382	NeuIncorrB4	1000	n/a	n/a	1
1012.3820000000	n/a	1012382	STATUS	1700	n/a	n/a	1
1014.0820000000	n/a	1014082	PenaltyB4	4066	n/a	n/a	1
1019.2150000000	n/a	1019215	NeuCorrB4	1000	n/a	n/a	1
1021.2150000000	n/a	1021215	STATUS	1700	n/a	n/a	1
1022.9150000000	n/a	1022915	PenaltyB4	2269	n/a	n/a	1
1026.2480000000	n/a	1026248	NeuCorrB4	1000	n/a	n/a	1
1028.2490000000	n/a	1028249	STATUS	1700	n/a	n/a	1
1029.9480000000	n/a	1029948	RewardB4	1572	n/a	n/a	1
1032.5980000000	n/a	1032598	RewardCorrB4	1000	n/a	n/a	1
1034.5990000000	n/a	1034599	STATUS	1700	n/a	n/a	1
1036.2980000000	n/a	1036298	RewardB4	2749	n/a	n/a	1
1040.1150000000	n/a	1040115	NeuCorrB4	1000	n/a	n/a	1
1042.1150000000	n/a	1042115	STATUS	1700	n/a	n/a	1
1043.8150000000	n/a	1043815	RewardB4	2098	n/a	n/a	0
1046.9820000000	n/a	1046982	NeuIncorrB4	1000	n/a	n/a	1
1048.9820000000	n/a	1048982	STATUS	1700	n/a	n/a	1
1050.6820000000	n/a	1050682	PenaltyB4	8185	n/a	n/a	0
1059.9320000000	n/a	1059932	PunIncorrB4	1000	n/a	n/a	1
1061.9320000000	n/a	1061932	STATUS	1700	n/a	n/a	1
1063.6320000000	n/a	1063632	PenaltyB4	1157	n/a	n/a	1
1065.8650000000	n/a	1065865	NeuCorrB4	1000	n/a	n/a	1
1067.8650000000	n/a	1067865	STATUS	1700	n/a	n/a	1
1069.5650000000	n/a	1069565	PenaltyB4	878	n/a	n/a	1
1071.5150000000	n/a	1071515	PunCorrB4	1000	n/a	n/a	1
1073.5150000000	n/a	1073515	STATUS	1700	n/a	n/a	1
1075.2150000000	n/a	1075215	RewardB4	764	n/a	n/a	1
1077.0480000000	n/a	1077048	RewardCorrB4	1000	n/a	n/a	1
1079.0480000000	n/a	1079048	STATUS	1700	n/a	n/a	1
1080.7480000000	n/a	1080748	PenaltyB4	770	n/a	n/a	1
1082.5820000000	n/a	1082582	NeuCorrB4	1000	n/a	n/a	1
1084.5820000000	n/a	1084582	STATUS	1700	n/a	n/a	1
1086.2820000000	n/a	1086282	RewardB4	3114	n/a	n/a	0
1090.4650000000	n/a	1090465	NeuIncorrB4	1000	n/a	n/a	1
1092.4650000000	n/a	1092465	STATUS	1700	n/a	n/a	1
1094.1650000000	n/a	1094165	PenaltyB4	3815	n/a	n/a	1
1099.0480000000	n/a	1099048	NeuCorrB4	1000	n/a	n/a	1
1101.0480000000	n/a	1101048	STATUS	1700	n/a	n/a	1
1102.7480000000	n/a	1102748	RewardB4	1165	n/a	n/a	0
1104.9820000000	n/a	1104982	RewIncorrB4	1000	n/a	n/a	1
1106.9820000000	n/a	1106982	STATUS	1700	n/a	n/a	1
1108.6820000000	n/a	1108682	PenaltyB4	3629	n/a	n/a	1
1113.3820000000	n/a	1113382	NeuCorrB4	1000	n/a	n/a	1
1115.3820000000	n/a	1115382	STATUS	1700	n/a	n/a	1
1117.0820000000	n/a	1117082	RewardB4	1217	n/a	n/a	0
1119.3650000000	n/a	1119365	NeuIncorrB4	1000	n/a	n/a	1
1121.3650000000	n/a	1121365	STATUS	1700	n/a	n/a	1
1123.0650000000	n/a	1123065	PenaltyB4	1333	n/a	n/a	1
1125.4650000000	n/a	1125465	NeuCorrB4	1000	n/a	n/a	1
1127.4650000000	n/a	1127465	STATUS	1700	n/a	n/a	1
1129.1650000000	n/a	1129165	RewardB4	959	n/a	n/a	1
1131.1980000000	n/a	1131198	RewardCorrB4	1000	n/a	n/a	1
1133.1980000000	n/a	1133198	STATUS	1700	n/a	n/a	1
1134.8980000000	n/a	1134898	PenaltyB4	14221	n/a	n/a	1
1150.1980000000	n/a	1150198	PunCorrB4	1000	n/a	n/a	1
1152.1980000000	n/a	1152198	STATUS	1700	n/a	n/a	1
1153.8980000000	n/a	1153898	RewardB4	1129	n/a	n/a	1
1156.0980000000	n/a	1156098	RewardCorrB4	1000	n/a	n/a	1
1158.0980000000	n/a	1158098	STATUS	1700	n/a	n/a	1
1159.7980000000	n/a	1159798	PenaltyB4	4330	n/a	n/a	1
1165.1980000000	n/a	1165198	NeuCorrB4	1000	n/a	n/a	1
1167.1980000000	n/a	1167198	STATUS	1700	n/a	n/a	1
1168.8980000000	n/a	1168898	RewardB4	1135	n/a	n/a	0
1171.0980000000	n/a	1171098	NeuIncorrB4	1000	n/a	n/a	1
1173.0980000000	n/a	1173098	STATUS	1700	n/a	n/a	1
1174.7980000000	n/a	1174798	PenaltyB4	1294	n/a	n/a	0
1177.1650000000	n/a	1177165	PunIncorrB4	1000	n/a	n/a	1
1179.1650000000	n/a	1179165	STATUS	1700	n/a	n/a	1
1180.8650000000	n/a	1180865	RewardB4	620	n/a	n/a	0
1182.5480000000	n/a	1182548	NeuIncorrB4	1000	n/a	n/a	1
1184.5480000000	n/a	1184548	STATUS	1700	n/a	n/a	1
1186.2480000000	n/a	1186248	PenaltyB4	2449	n/a	n/a	0
1189.7650000000	n/a	1189765	PunIncorrB4	1000	n/a	n/a	1
1191.7650000000	n/a	1191765	STATUS	1700	n/a	n/a	1
1193.4650000000	n/a	1193465	RewardB4	2342	n/a	n/a	0
1196.8820000000	n/a	1196882	RewIncorrB4	1000	n/a	n/a	1
1198.8820000000	n/a	1198882	STATUS	1700	n/a	n/a	1
1200.5820000000	n/a	1200582	RewardB4	546	n/a	n/a	1
1202.1980000000	n/a	1202198	RewardCorrB4	1000	n/a	n/a	1
1204.1980000000	n/a	1204198	STATUS	1700	n/a	n/a	1
1205.8980000000	n/a	1205898	PenaltyB4	1105	n/a	n/a	1
1208.0650000000	n/a	1208065	NeuCorrB4	1000	n/a	n/a	1
1210.0650000000	n/a	1210065	STATUS	1700	n/a	n/a	1
1211.7650000000	n/a	1211765	RewardB4	752	n/a	n/a	1
1213.5820000000	n/a	1213582	RewardCorrB4	1000	n/a	n/a	1
1215.5820000000	n/a	1215582	STATUS	1700	n/a	n/a	1
1224.5650000000	n/a	1224565	STATUS	1700	n/a	n/a	1
