onset	duration	sample	trial_type	response_time	stim_file	value	correct
1.0040000000	n/a	1004	FrequentFixedSOA	1633	n/a	n/a	1
2.6370000000	n/a	2637	FrequentFixedSOA	1633	n/a	n/a	1
4.2700000000	n/a	4270	FrequentFixedSOA	1633	n/a	n/a	1
5.9030000000	n/a	5903	FrequentFixedSOA	1633	n/a	n/a	1
7.5370000000	n/a	7537	FrequentFixedSOA	1633	n/a	n/a	1
9.1700000000	n/a	9170	FrequentFixedSOA	1633	n/a	n/a	1
10.8030000000	n/a	10803	FrequentFixedSOA	1633	n/a	n/a	1
12.4370000000	n/a	12437	FrequentFixedSOA	1633	n/a	n/a	1
14.0700000000	n/a	14070	FrequentFixedSOA	1633	n/a	n/a	1
15.7030000000	n/a	15703	FrequentFixedSOA	1633	n/a	n/a	1
17.3370000000	n/a	17337	NovelFixedSOA	286	n/a	n/a	0
18.9700000000	n/a	18970	FrequentFixedSOA	1633	n/a	n/a	1
20.6030000000	n/a	20603	GoFixedSOA	448	n/a	n/a	1
22.2370000000	n/a	22237	FrequentFixedSOA	1633	n/a	n/a	1
23.8700000000	n/a	23870	FrequentFixedSOA	1633	n/a	n/a	1
25.5030000000	n/a	25503	FrequentFixedSOA	1633	n/a	n/a	1
27.1370000000	n/a	27137	GoFixedSOA	307	n/a	n/a	1
28.7700000000	n/a	28770	FrequentFixedSOA	1633	n/a	n/a	1
30.4030000000	n/a	30403	FrequentFixedSOA	1633	n/a	n/a	1
32.0370000000	n/a	32037	FrequentFixedSOA	1633	n/a	n/a	1
33.6700000000	n/a	33670	NovelFixedSOA	1633	n/a	n/a	1
35.3030000000	n/a	35303	FrequentFixedSOA	1633	n/a	n/a	1
36.9370000000	n/a	36937	FrequentFixedSOA	1633	n/a	n/a	1
38.5700000000	n/a	38570	FrequentFixedSOA	1633	n/a	n/a	1
40.2030000000	n/a	40203	GoFixedSOA	362	n/a	n/a	1
41.8370000000	n/a	41837	FrequentFixedSOA	1633	n/a	n/a	1
43.4700000000	n/a	43470	NovelFixedSOA	1633	n/a	n/a	1
45.1030000000	n/a	45103	FrequentFixedSOA	1633	n/a	n/a	1
46.7370000000	n/a	46737	FrequentFixedSOA	1633	n/a	n/a	1
48.3700000000	n/a	48370	FrequentFixedSOA	1633	n/a	n/a	1
50.0030000000	n/a	50003	GoFixedSOA	358	n/a	n/a	1
51.6370000000	n/a	51637	FrequentFixedSOA	1633	n/a	n/a	1
53.2700000000	n/a	53270	GoFixedSOA	404	n/a	n/a	1
54.9030000000	n/a	54903	FrequentFixedSOA	1633	n/a	n/a	1
56.5370000000	n/a	56537	FrequentFixedSOA	1633	n/a	n/a	1
58.1700000000	n/a	58170	GoFixedSOA	315	n/a	n/a	1
59.8030000000	n/a	59803	FrequentFixedSOA	1633	n/a	n/a	1
61.4370000000	n/a	61437	FrequentFixedSOA	1633	n/a	n/a	1
63.0700000000	n/a	63070	FrequentFixedSOA	1633	n/a	n/a	1
64.7030000000	n/a	64703	FrequentFixedSOA	1633	n/a	n/a	1
66.3370000000	n/a	66337	NovelFixedSOA	1633	n/a	n/a	1
67.9700000000	n/a	67970	FrequentFixedSOA	1633	n/a	n/a	1
69.6030000000	n/a	69603	NovelFixedSOA	1633	n/a	n/a	1
71.2370000000	n/a	71237	FrequentFixedSOA	1633	n/a	n/a	1
72.8700000000	n/a	72870	FrequentFixedSOA	1633	n/a	n/a	1
74.5030000000	n/a	74503	GoFixedSOA	356	n/a	n/a	1
76.1370000000	n/a	76137	FrequentFixedSOA	1633	n/a	n/a	1
77.7700000000	n/a	77770	FrequentFixedSOA	1633	n/a	n/a	1
79.4030000000	n/a	79403	FrequentFixedSOA	1633	n/a	n/a	1
81.0370000000	n/a	81037	FrequentFixedSOA	1633	n/a	n/a	1
82.6700000000	n/a	82670	NovelFixedSOA	1633	n/a	n/a	1
84.3030000000	n/a	84303	FrequentFixedSOA	1633	n/a	n/a	1
85.9370000000	n/a	85937	FrequentFixedSOA	1633	n/a	n/a	1
87.5700000000	n/a	87570	FrequentFixedSOA	1633	n/a	n/a	1
89.2030000000	n/a	89203	FrequentFixedSOA	1633	n/a	n/a	1
90.8370000000	n/a	90837	GoFixedSOA	301	n/a	n/a	1
92.4700000000	n/a	92470	FrequentFixedSOA	1633	n/a	n/a	1
94.1030000000	n/a	94103	FrequentFixedSOA	1633	n/a	n/a	1
95.7370000000	n/a	95737	NovelFixedSOA	1633	n/a	n/a	1
97.3700000000	n/a	97370	FrequentFixedSOA	1633	n/a	n/a	1
99.0030000000	n/a	99003	FrequentFixedSOA	1633	n/a	n/a	1
100.6370000000	n/a	100637	GoFixedSOA	302	n/a	n/a	1
102.2700000000	n/a	102270	FrequentFixedSOA	1633	n/a	n/a	1
103.9030000000	n/a	103903	FrequentFixedSOA	1633	n/a	n/a	1
105.5370000000	n/a	105537	FrequentFixedSOA	1633	n/a	n/a	1
107.1700000000	n/a	107170	FrequentFixedSOA	1633	n/a	n/a	1
108.8030000000	n/a	108803	NovelFixedSOA	1633	n/a	n/a	1
110.4370000000	n/a	110437	FrequentFixedSOA	1633	n/a	n/a	1
112.0700000000	n/a	112070	FrequentFixedSOA	1633	n/a	n/a	1
113.7030000000	n/a	113703	GoFixedSOA	297	n/a	n/a	1
115.3370000000	n/a	115337	FrequentVariableSOA	1633	n/a	n/a	1
116.9700000000	n/a	116970	FrequentVariableSOA	1666	n/a	n/a	1
118.6370000000	n/a	118637	FrequentVariableSOA	1683	n/a	n/a	1
120.3200000000	n/a	120320	FrequentVariableSOA	1716	n/a	n/a	1
122.0370000000	n/a	122037	FrequentVariableSOA	1516	n/a	n/a	1
123.5530000000	n/a	123553	FrequentVariableSOA	1600	n/a	n/a	1
125.1530000000	n/a	125153	FrequentVariableSOA	1516	n/a	n/a	1
126.6700000000	n/a	126670	FrequentVariableSOA	1716	n/a	n/a	1
128.3870000000	n/a	128387	FrequentVariableSOA	1700	n/a	n/a	1
130.0870000000	n/a	130087	FrequentVariableSOA	1583	n/a	n/a	1
131.6700000000	n/a	131670	NovelVariableSOA	1516	n/a	n/a	1
133.1870000000	n/a	133187	FrequentVariableSOA	1650	n/a	n/a	1
134.8370000000	n/a	134837	GoVariableSOA	334	n/a	n/a	1
136.5870000000	n/a	136587	FrequentVariableSOA	1666	n/a	n/a	1
138.2530000000	n/a	138253	FrequentVariableSOA	1766	n/a	n/a	1
140.0200000000	n/a	140020	FrequentVariableSOA	1766	n/a	n/a	1
141.7870000000	n/a	141787	GoVariableSOA	351	n/a	n/a	1
143.5530000000	n/a	143553	FrequentVariableSOA	1500	n/a	n/a	1
145.0530000000	n/a	145053	FrequentVariableSOA	1716	n/a	n/a	1
146.7700000000	n/a	146770	FrequentVariableSOA	1550	n/a	n/a	1
148.3200000000	n/a	148320	NovelVariableSOA	1633	n/a	n/a	1
149.9530000000	n/a	149953	FrequentVariableSOA	1616	n/a	n/a	1
151.5700000000	n/a	151570	FrequentVariableSOA	1550	n/a	n/a	1
153.1200000000	n/a	153120	FrequentVariableSOA	1566	n/a	n/a	1
154.6860000000	n/a	154686	GoVariableSOA	297	n/a	n/a	1
156.4030000000	n/a	156403	FrequentVariableSOA	1666	n/a	n/a	1
158.0700000000	n/a	158070	NovelVariableSOA	1766	n/a	n/a	1
159.8360000000	n/a	159836	FrequentVariableSOA	1600	n/a	n/a	1
161.4360000000	n/a	161436	FrequentVariableSOA	1633	n/a	n/a	1
163.0700000000	n/a	163070	FrequentVariableSOA	1566	n/a	n/a	1
164.6360000000	n/a	164636	GoVariableSOA	287	n/a	n/a	1
166.4200000000	n/a	166420	FrequentVariableSOA	1616	n/a	n/a	1
168.0360000000	n/a	168036	GoVariableSOA	406	n/a	n/a	1
169.6700000000	n/a	169670	FrequentVariableSOA	1516	n/a	n/a	1
171.1860000000	n/a	171186	FrequentVariableSOA	1550	n/a	n/a	1
172.7360000000	n/a	172736	GoVariableSOA	306	n/a	n/a	1
174.4530000000	n/a	174453	FrequentVariableSOA	1750	n/a	n/a	1
176.2030000000	n/a	176203	FrequentVariableSOA	1616	n/a	n/a	1
177.8200000000	n/a	177820	FrequentVariableSOA	1750	n/a	n/a	1
179.5700000000	n/a	179570	FrequentVariableSOA	1550	n/a	n/a	1
181.1200000000	n/a	181120	NovelVariableSOA	1516	n/a	n/a	1
182.6360000000	n/a	182636	FrequentVariableSOA	1700	n/a	n/a	1
184.3360000000	n/a	184336	NovelVariableSOA	1533	n/a	n/a	1
185.8700000000	n/a	185870	FrequentVariableSOA	1533	n/a	n/a	1
187.4030000000	n/a	187403	FrequentVariableSOA	1783	n/a	n/a	1
189.1860000000	n/a	189186	GoVariableSOA	342	n/a	n/a	1
190.9530000000	n/a	190953	FrequentVariableSOA	1600	n/a	n/a	1
192.5530000000	n/a	192553	FrequentVariableSOA	1550	n/a	n/a	1
194.1030000000	n/a	194103	FrequentVariableSOA	1700	n/a	n/a	1
195.8030000000	n/a	195803	FrequentVariableSOA	1633	n/a	n/a	1
197.4360000000	n/a	197436	NovelVariableSOA	1733	n/a	n/a	1
199.1700000000	n/a	199170	FrequentVariableSOA	1550	n/a	n/a	1
200.7200000000	n/a	200720	FrequentVariableSOA	1766	n/a	n/a	1
202.4860000000	n/a	202486	FrequentVariableSOA	1616	n/a	n/a	1
204.1030000000	n/a	204103	FrequentVariableSOA	1566	n/a	n/a	1
205.6700000000	n/a	205670	GoVariableSOA	354	n/a	n/a	1
207.4700000000	n/a	207470	FrequentVariableSOA	1666	n/a	n/a	1
209.1360000000	n/a	209136	FrequentVariableSOA	1600	n/a	n/a	1
210.7360000000	n/a	210736	NovelVariableSOA	1583	n/a	n/a	1
212.3200000000	n/a	212320	FrequentVariableSOA	1550	n/a	n/a	1
213.8700000000	n/a	213870	FrequentVariableSOA	1583	n/a	n/a	1
215.4530000000	n/a	215453	GoVariableSOA	286	n/a	n/a	1
217.0700000000	n/a	217070	FrequentVariableSOA	1783	n/a	n/a	1
218.8530000000	n/a	218853	FrequentVariableSOA	1633	n/a	n/a	1
220.4860000000	n/a	220486	FrequentVariableSOA	1600	n/a	n/a	1
222.0860000000	n/a	222086	FrequentVariableSOA	1683	n/a	n/a	1
223.7700000000	n/a	223770	NovelVariableSOA	1783	n/a	n/a	1
225.5530000000	n/a	225553	FrequentVariableSOA	1650	n/a	n/a	1
227.2030000000	n/a	227203	FrequentVariableSOA	1783	n/a	n/a	1
228.9860000000	n/a	228986	GoVariableSOA	291	n/a	n/a	1
230.5700000000	n/a	230570	FrequentFixedSOA	1633	n/a	n/a	1
232.2030000000	n/a	232203	FrequentFixedSOA	1633	n/a	n/a	1
233.8360000000	n/a	233836	FrequentFixedSOA	1633	n/a	n/a	1
235.4700000000	n/a	235470	GoFixedSOA	298	n/a	n/a	1
237.1030000000	n/a	237103	FrequentFixedSOA	1633	n/a	n/a	1
238.7360000000	n/a	238736	FrequentFixedSOA	1633	n/a	n/a	1
240.3700000000	n/a	240370	FrequentFixedSOA	1633	n/a	n/a	1
242.0030000000	n/a	242003	GoFixedSOA	309	n/a	n/a	1
243.6360000000	n/a	243636	FrequentFixedSOA	1633	n/a	n/a	1
245.2700000000	n/a	245270	FrequentFixedSOA	1633	n/a	n/a	1
246.9030000000	n/a	246903	FrequentFixedSOA	1633	n/a	n/a	1
248.5360000000	n/a	248536	NovelFixedSOA	1633	n/a	n/a	1
250.1700000000	n/a	250170	FrequentFixedSOA	1633	n/a	n/a	1
251.8030000000	n/a	251803	NovelFixedSOA	1633	n/a	n/a	1
253.4360000000	n/a	253436	FrequentFixedSOA	1633	n/a	n/a	1
255.0700000000	n/a	255070	FrequentFixedSOA	1633	n/a	n/a	1
256.7030000000	n/a	256703	NovelFixedSOA	1633	n/a	n/a	1
258.3360000000	n/a	258336	FrequentFixedSOA	1633	n/a	n/a	1
259.9700000000	n/a	259970	FrequentFixedSOA	1633	n/a	n/a	1
261.6030000000	n/a	261603	FrequentFixedSOA	1633	n/a	n/a	1
263.2360000000	n/a	263236	FrequentFixedSOA	1633	n/a	n/a	1
264.8700000000	n/a	264870	FrequentFixedSOA	1633	n/a	n/a	1
266.5030000000	n/a	266503	NovelFixedSOA	1633	n/a	n/a	1
268.1360000000	n/a	268136	FrequentFixedSOA	1633	n/a	n/a	1
269.7700000000	n/a	269770	FrequentFixedSOA	1633	n/a	n/a	1
271.4030000000	n/a	271403	FrequentFixedSOA	1633	n/a	n/a	1
273.0360000000	n/a	273036	FrequentFixedSOA	1633	n/a	n/a	1
274.6700000000	n/a	274670	FrequentFixedSOA	1633	n/a	n/a	1
276.3030000000	n/a	276303	GoFixedSOA	381	n/a	n/a	1
277.9360000000	n/a	277936	FrequentFixedSOA	1633	n/a	n/a	1
279.5700000000	n/a	279570	FrequentFixedSOA	1633	n/a	n/a	1
281.2030000000	n/a	281203	GoFixedSOA	347	n/a	n/a	1
282.8360000000	n/a	282836	FrequentFixedSOA	1633	n/a	n/a	1
284.4700000000	n/a	284470	NovelFixedSOA	1633	n/a	n/a	1
286.1030000000	n/a	286103	FrequentFixedSOA	1633	n/a	n/a	1
287.7360000000	n/a	287736	GoFixedSOA	374	n/a	n/a	1
289.3700000000	n/a	289370	FrequentFixedSOA	1633	n/a	n/a	1
291.0030000000	n/a	291003	GoFixedSOA	320	n/a	n/a	1
292.6360000000	n/a	292636	FrequentFixedSOA	1633	n/a	n/a	1
294.2700000000	n/a	294270	FrequentFixedSOA	1633	n/a	n/a	1
295.9030000000	n/a	295903	FrequentFixedSOA	1633	n/a	n/a	1
297.5360000000	n/a	297536	FrequentFixedSOA	1633	n/a	n/a	1
299.1700000000	n/a	299170	GoFixedSOA	311	n/a	n/a	1
300.8030000000	n/a	300803	FrequentFixedSOA	1633	n/a	n/a	1
302.4360000000	n/a	302436	FrequentFixedSOA	1633	n/a	n/a	1
304.0700000000	n/a	304070	FrequentFixedSOA	1633	n/a	n/a	1
305.7030000000	n/a	305703	NovelFixedSOA	1633	n/a	n/a	1
307.3360000000	n/a	307336	FrequentFixedSOA	1633	n/a	n/a	1
308.9700000000	n/a	308970	FrequentFixedSOA	1633	n/a	n/a	1
310.6030000000	n/a	310603	FrequentFixedSOA	1633	n/a	n/a	1
312.2360000000	n/a	312236	FrequentFixedSOA	1633	n/a	n/a	1
313.8700000000	n/a	313870	NovelFixedSOA	1633	n/a	n/a	1
315.5030000000	n/a	315503	FrequentFixedSOA	1633	n/a	n/a	1
317.1360000000	n/a	317136	FrequentFixedSOA	1633	n/a	n/a	1
318.7700000000	n/a	318770	FrequentFixedSOA	1633	n/a	n/a	1
320.4030000000	n/a	320403	FrequentFixedSOA	1633	n/a	n/a	1
322.0360000000	n/a	322036	NovelFixedSOA	1633	n/a	n/a	1
323.6700000000	n/a	323670	FrequentFixedSOA	1633	n/a	n/a	1
325.3030000000	n/a	325303	FrequentFixedSOA	1633	n/a	n/a	1
326.9360000000	n/a	326936	GoFixedSOA	349	n/a	n/a	1
328.5700000000	n/a	328570	FrequentFixedSOA	1633	n/a	n/a	1
330.2030000000	n/a	330203	FrequentFixedSOA	1633	n/a	n/a	1
331.8360000000	n/a	331836	FrequentFixedSOA	1633	n/a	n/a	1
333.4700000000	n/a	333470	FrequentFixedSOA	1633	n/a	n/a	1
335.1030000000	n/a	335103	NovelFixedSOA	1633	n/a	n/a	1
336.7360000000	n/a	336736	FrequentFixedSOA	1633	n/a	n/a	1
338.3700000000	n/a	338370	FrequentFixedSOA	1633	n/a	n/a	1
340.0030000000	n/a	340003	FrequentFixedSOA	1633	n/a	n/a	1
341.6360000000	n/a	341636	FrequentFixedSOA	1633	n/a	n/a	1
343.2700000000	n/a	343270	FrequentFixedSOA	1633	n/a	n/a	1
344.9030000000	n/a	344903	FrequentVariableSOA	1616	n/a	n/a	1
346.5200000000	n/a	346520	FrequentVariableSOA	1566	n/a	n/a	1
348.0860000000	n/a	348086	FrequentVariableSOA	1766	n/a	n/a	1
349.8530000000	n/a	349853	GoVariableSOA	256	n/a	n/a	1
351.5030000000	n/a	351503	FrequentVariableSOA	1733	n/a	n/a	1
353.2360000000	n/a	353236	FrequentVariableSOA	1783	n/a	n/a	1
355.0200000000	n/a	355020	FrequentVariableSOA	1566	n/a	n/a	1
356.5860000000	n/a	356586	GoVariableSOA	693	n/a	n/a	1
358.2860000000	n/a	358286	FrequentVariableSOA	1666	n/a	n/a	1
359.9530000000	n/a	359953	FrequentVariableSOA	1733	n/a	n/a	1
361.6860000000	n/a	361686	FrequentVariableSOA	1750	n/a	n/a	1
363.4360000000	n/a	363436	NovelVariableSOA	1633	n/a	n/a	1
365.0690000000	n/a	365069	FrequentVariableSOA	1766	n/a	n/a	1
366.8360000000	n/a	366836	NovelVariableSOA	1650	n/a	n/a	1
368.4860000000	n/a	368486	FrequentVariableSOA	1733	n/a	n/a	1
370.2190000000	n/a	370219	FrequentVariableSOA	1516	n/a	n/a	1
371.7360000000	n/a	371736	NovelVariableSOA	1616	n/a	n/a	1
373.3530000000	n/a	373353	FrequentVariableSOA	1650	n/a	n/a	1
375.0030000000	n/a	375003	FrequentVariableSOA	1750	n/a	n/a	1
376.7530000000	n/a	376753	FrequentVariableSOA	1733	n/a	n/a	1
378.4860000000	n/a	378486	FrequentVariableSOA	1666	n/a	n/a	1
380.1530000000	n/a	380153	FrequentVariableSOA	1666	n/a	n/a	1
381.8190000000	n/a	381819	NovelVariableSOA	1766	n/a	n/a	1
383.5860000000	n/a	383586	FrequentVariableSOA	1550	n/a	n/a	1
385.1360000000	n/a	385136	FrequentVariableSOA	1783	n/a	n/a	1
386.9190000000	n/a	386919	FrequentVariableSOA	1566	n/a	n/a	1
388.4860000000	n/a	388486	FrequentVariableSOA	1550	n/a	n/a	1
390.0360000000	n/a	390036	FrequentVariableSOA	1800	n/a	n/a	1
391.8360000000	n/a	391836	GoVariableSOA	247	n/a	n/a	1
393.5190000000	n/a	393519	FrequentVariableSOA	1600	n/a	n/a	1
395.1190000000	n/a	395119	FrequentVariableSOA	1750	n/a	n/a	1
396.8690000000	n/a	396869	GoVariableSOA	386	n/a	n/a	1
398.6190000000	n/a	398619	FrequentVariableSOA	1616	n/a	n/a	1
400.2360000000	n/a	400236	NovelVariableSOA	1533	n/a	n/a	1
401.7690000000	n/a	401769	FrequentVariableSOA	1633	n/a	n/a	1
403.4030000000	n/a	403403	GoVariableSOA	333	n/a	n/a	1
404.9190000000	n/a	404919	FrequentVariableSOA	1700	n/a	n/a	1
406.6190000000	n/a	406619	GoVariableSOA	322	n/a	n/a	1
408.1860000000	n/a	408186	FrequentVariableSOA	1650	n/a	n/a	1
409.8360000000	n/a	409836	FrequentVariableSOA	1716	n/a	n/a	1
411.5530000000	n/a	411553	FrequentVariableSOA	1583	n/a	n/a	1
413.1360000000	n/a	413136	FrequentVariableSOA	1650	n/a	n/a	1
414.7860000000	n/a	414786	GoVariableSOA	315	n/a	n/a	1
416.3530000000	n/a	416353	FrequentVariableSOA	1733	n/a	n/a	1
418.0860000000	n/a	418086	FrequentVariableSOA	1516	n/a	n/a	1
419.6030000000	n/a	419603	FrequentVariableSOA	1616	n/a	n/a	1
421.2190000000	n/a	421219	NovelVariableSOA	1650	n/a	n/a	1
422.8690000000	n/a	422869	FrequentVariableSOA	1600	n/a	n/a	1
424.4690000000	n/a	424469	FrequentVariableSOA	1766	n/a	n/a	1
426.2360000000	n/a	426236	FrequentVariableSOA	1616	n/a	n/a	1
427.8530000000	n/a	427853	FrequentVariableSOA	1516	n/a	n/a	1
429.3690000000	n/a	429369	NovelVariableSOA	1600	n/a	n/a	1
430.9690000000	n/a	430969	FrequentVariableSOA	1550	n/a	n/a	1
432.5190000000	n/a	432519	FrequentVariableSOA	1566	n/a	n/a	1
434.0860000000	n/a	434086	FrequentVariableSOA	1683	n/a	n/a	1
435.7690000000	n/a	435769	FrequentVariableSOA	1500	n/a	n/a	1
437.2690000000	n/a	437269	NovelVariableSOA	1750	n/a	n/a	1
439.0190000000	n/a	439019	FrequentVariableSOA	1583	n/a	n/a	1
440.6030000000	n/a	440603	FrequentVariableSOA	1666	n/a	n/a	1
442.2690000000	n/a	442269	GoVariableSOA	215	n/a	n/a	1
444.0190000000	n/a	444019	FrequentVariableSOA	1633	n/a	n/a	1
445.6530000000	n/a	445653	FrequentVariableSOA	1650	n/a	n/a	1
447.3030000000	n/a	447303	FrequentVariableSOA	1783	n/a	n/a	1
449.0860000000	n/a	449086	FrequentVariableSOA	1600	n/a	n/a	1
450.6860000000	n/a	450686	NovelVariableSOA	1700	n/a	n/a	1
452.3860000000	n/a	452386	FrequentVariableSOA	1716	n/a	n/a	1
454.1030000000	n/a	454103	FrequentVariableSOA	1650	n/a	n/a	1
455.7530000000	n/a	455753	FrequentVariableSOA	1566	n/a	n/a	1
457.3190000000	n/a	457319	FrequentVariableSOA	1566	n/a	n/a	1
458.8860000000	n/a	458886	FrequentVariableSOA	1550	n/a	n/a	1
460.4360000000	n/a	460436	GoFixedSOA	290	n/a	n/a	1
462.0690000000	n/a	462069	FrequentFixedSOA	1633	n/a	n/a	1
463.7030000000	n/a	463703	FrequentFixedSOA	1633	n/a	n/a	1
465.3360000000	n/a	465336	FrequentFixedSOA	1633	n/a	n/a	1
466.9690000000	n/a	466969	FrequentFixedSOA	1633	n/a	n/a	1
468.6030000000	n/a	468603	FrequentFixedSOA	1633	n/a	n/a	1
470.2360000000	n/a	470236	FrequentFixedSOA	1633	n/a	n/a	1
471.8690000000	n/a	471869	NovelFixedSOA	1633	n/a	n/a	1
473.5030000000	n/a	473503	FrequentFixedSOA	1633	n/a	n/a	1
475.1360000000	n/a	475136	FrequentFixedSOA	1633	n/a	n/a	1
476.7690000000	n/a	476769	FrequentFixedSOA	1633	n/a	n/a	1
478.4030000000	n/a	478403	NovelFixedSOA	1633	n/a	n/a	1
480.0360000000	n/a	480036	FrequentFixedSOA	1633	n/a	n/a	1
481.6690000000	n/a	481669	GoFixedSOA	235	n/a	n/a	1
483.3030000000	n/a	483303	FrequentFixedSOA	1633	n/a	n/a	1
484.9360000000	n/a	484936	FrequentFixedSOA	1633	n/a	n/a	1
486.5690000000	n/a	486569	GoFixedSOA	403	n/a	n/a	1
488.2030000000	n/a	488203	FrequentFixedSOA	1633	n/a	n/a	1
489.8360000000	n/a	489836	NovelFixedSOA	1633	n/a	n/a	1
491.4690000000	n/a	491469	FrequentFixedSOA	1633	n/a	n/a	1
493.1030000000	n/a	493103	FrequentFixedSOA	1633	n/a	n/a	1
494.7360000000	n/a	494736	FrequentFixedSOA	1633	n/a	n/a	1
496.3690000000	n/a	496369	FrequentFixedSOA	1633	n/a	n/a	1
498.0030000000	n/a	498003	FrequentFixedSOA	1633	n/a	n/a	1
499.6360000000	n/a	499636	GoFixedSOA	258	n/a	n/a	1
501.2690000000	n/a	501269	FrequentFixedSOA	1633	n/a	n/a	1
502.9030000000	n/a	502903	FrequentFixedSOA	1633	n/a	n/a	1
504.5360000000	n/a	504536	NovelFixedSOA	1633	n/a	n/a	1
506.1690000000	n/a	506169	FrequentFixedSOA	1633	n/a	n/a	1
507.8030000000	n/a	507803	FrequentFixedSOA	1633	n/a	n/a	1
509.4360000000	n/a	509436	FrequentFixedSOA	1633	n/a	n/a	1
511.0690000000	n/a	511069	FrequentFixedSOA	1633	n/a	n/a	1
512.7030000000	n/a	512703	FrequentFixedSOA	1633	n/a	n/a	1
514.3360000000	n/a	514336	NovelFixedSOA	1633	n/a	n/a	1
515.9690000000	n/a	515969	FrequentFixedSOA	1633	n/a	n/a	1
517.6030000000	n/a	517603	FrequentFixedSOA	1633	n/a	n/a	1
519.2360000000	n/a	519236	FrequentFixedSOA	1633	n/a	n/a	1
520.8690000000	n/a	520869	FrequentFixedSOA	1633	n/a	n/a	1
522.5030000000	n/a	522503	GoFixedSOA	409	n/a	n/a	1
524.1360000000	n/a	524136	FrequentFixedSOA	1633	n/a	n/a	1
525.7690000000	n/a	525769	FrequentFixedSOA	1633	n/a	n/a	1
527.4030000000	n/a	527403	NovelFixedSOA	1633	n/a	n/a	1
529.0360000000	n/a	529036	FrequentFixedSOA	1633	n/a	n/a	1
530.6690000000	n/a	530669	FrequentFixedSOA	1633	n/a	n/a	1
532.3030000000	n/a	532303	NovelFixedSOA	1633	n/a	n/a	1
533.9360000000	n/a	533936	FrequentFixedSOA	1633	n/a	n/a	1
535.5690000000	n/a	535569	FrequentFixedSOA	1633	n/a	n/a	1
537.2030000000	n/a	537203	FrequentFixedSOA	1633	n/a	n/a	1
538.8360000000	n/a	538836	FrequentFixedSOA	1633	n/a	n/a	1
540.4690000000	n/a	540469	FrequentFixedSOA	1633	n/a	n/a	1
542.1030000000	n/a	542103	GoFixedSOA	275	n/a	n/a	1
543.7360000000	n/a	543736	FrequentFixedSOA	1633	n/a	n/a	1
545.3690000000	n/a	545369	FrequentFixedSOA	1633	n/a	n/a	1
547.0030000000	n/a	547003	FrequentFixedSOA	1633	n/a	n/a	1
548.6360000000	n/a	548636	FrequentFixedSOA	1633	n/a	n/a	1
550.2690000000	n/a	550269	FrequentFixedSOA	1633	n/a	n/a	1
551.9030000000	n/a	551903	NovelFixedSOA	1633	n/a	n/a	1
553.5360000000	n/a	553536	FrequentFixedSOA	1633	n/a	n/a	1
555.1690000000	n/a	555169	GoFixedSOA	286	n/a	n/a	1
556.8030000000	n/a	556803	FrequentFixedSOA	1633	n/a	n/a	1
558.4360000000	n/a	558436	FrequentFixedSOA	1633	n/a	n/a	1
560.0690000000	n/a	560069	FrequentFixedSOA	1633	n/a	n/a	1
561.7030000000	n/a	561703	FrequentFixedSOA	1633	n/a	n/a	1
563.3360000000	n/a	563336	FrequentFixedSOA	1633	n/a	n/a	1
564.9690000000	n/a	564969	FrequentFixedSOA	1633	n/a	n/a	1
566.6030000000	n/a	566603	FrequentFixedSOA	1633	n/a	n/a	1
568.2360000000	n/a	568236	FrequentFixedSOA	1633	n/a	n/a	1
569.8690000000	n/a	569869	NovelFixedSOA	1633	n/a	n/a	1
571.5030000000	n/a	571503	FrequentFixedSOA	1633	n/a	n/a	1
573.1360000000	n/a	573136	FrequentFixedSOA	1633	n/a	n/a	1
574.7690000000	n/a	574769	GoVariableSOA	317	n/a	n/a	1
576.3860000000	n/a	576386	FrequentVariableSOA	1566	n/a	n/a	1
577.9530000000	n/a	577953	FrequentVariableSOA	1650	n/a	n/a	1
579.6020000000	n/a	579602	FrequentVariableSOA	1733	n/a	n/a	1
581.3360000000	n/a	581336	FrequentVariableSOA	1516	n/a	n/a	1
582.8520000000	n/a	582852	FrequentVariableSOA	1800	n/a	n/a	1
584.6520000000	n/a	584652	FrequentVariableSOA	1800	n/a	n/a	1
586.4520000000	n/a	586452	NovelVariableSOA	1533	n/a	n/a	1
587.9860000000	n/a	587986	FrequentVariableSOA	1633	n/a	n/a	1
589.6190000000	n/a	589619	FrequentVariableSOA	1650	n/a	n/a	1
591.2690000000	n/a	591269	FrequentVariableSOA	1533	n/a	n/a	1
592.8020000000	n/a	592802	NovelVariableSOA	1716	n/a	n/a	1
594.5190000000	n/a	594519	FrequentVariableSOA	1566	n/a	n/a	1
596.0860000000	n/a	596086	GoVariableSOA	311	n/a	n/a	1
597.7190000000	n/a	597719	FrequentVariableSOA	1600	n/a	n/a	1
599.3190000000	n/a	599319	FrequentVariableSOA	1750	n/a	n/a	1
601.0690000000	n/a	601069	GoVariableSOA	380	n/a	n/a	1
602.7520000000	n/a	602752	FrequentVariableSOA	1683	n/a	n/a	1
604.4360000000	n/a	604436	NovelVariableSOA	1700	n/a	n/a	1
606.1360000000	n/a	606136	FrequentVariableSOA	1683	n/a	n/a	1
607.8190000000	n/a	607819	FrequentVariableSOA	1633	n/a	n/a	1
609.4520000000	n/a	609452	FrequentVariableSOA	1700	n/a	n/a	1
611.1520000000	n/a	611152	FrequentVariableSOA	1633	n/a	n/a	1
612.7860000000	n/a	612786	FrequentVariableSOA	1616	n/a	n/a	1
614.4020000000	n/a	614402	GoVariableSOA	332	n/a	n/a	1
616.0520000000	n/a	616052	FrequentVariableSOA	1516	n/a	n/a	1
617.5690000000	n/a	617569	FrequentVariableSOA	1533	n/a	n/a	1
619.1020000000	n/a	619102	NovelVariableSOA	1616	n/a	n/a	1
620.7190000000	n/a	620719	FrequentVariableSOA	1583	n/a	n/a	1
622.3020000000	n/a	622302	FrequentVariableSOA	1716	n/a	n/a	1
624.0190000000	n/a	624019	FrequentVariableSOA	1616	n/a	n/a	1
625.6360000000	n/a	625636	FrequentVariableSOA	1766	n/a	n/a	1
627.4020000000	n/a	627402	FrequentVariableSOA	1700	n/a	n/a	1
629.1020000000	n/a	629102	NovelVariableSOA	1616	n/a	n/a	1
630.7190000000	n/a	630719	FrequentVariableSOA	1616	n/a	n/a	1
632.3360000000	n/a	632336	FrequentVariableSOA	1616	n/a	n/a	1
633.9520000000	n/a	633952	FrequentVariableSOA	1783	n/a	n/a	1
635.7360000000	n/a	635736	FrequentVariableSOA	1616	n/a	n/a	1
637.3520000000	n/a	637352	GoVariableSOA	425	n/a	n/a	1
639.1360000000	n/a	639136	FrequentVariableSOA	1533	n/a	n/a	1
640.6690000000	n/a	640669	FrequentVariableSOA	1750	n/a	n/a	1
642.4190000000	n/a	642419	NovelVariableSOA	1566	n/a	n/a	1
643.9860000000	n/a	643986	FrequentVariableSOA	1666	n/a	n/a	1
645.6520000000	n/a	645652	FrequentVariableSOA	1533	n/a	n/a	1
647.1860000000	n/a	647186	NovelVariableSOA	1700	n/a	n/a	1
648.8860000000	n/a	648886	FrequentVariableSOA	1566	n/a	n/a	1
650.4520000000	n/a	650452	FrequentVariableSOA	1766	n/a	n/a	1
652.2190000000	n/a	652219	FrequentVariableSOA	1550	n/a	n/a	1
653.7690000000	n/a	653769	FrequentVariableSOA	1783	n/a	n/a	1
655.5520000000	n/a	655552	FrequentVariableSOA	1516	n/a	n/a	1
657.0690000000	n/a	657069	GoVariableSOA	329	n/a	n/a	1
658.7520000000	n/a	658752	FrequentVariableSOA	1500	n/a	n/a	1
660.2520000000	n/a	660252	FrequentVariableSOA	1550	n/a	n/a	1
661.8020000000	n/a	661802	FrequentVariableSOA	1666	n/a	n/a	1
663.4690000000	n/a	663469	FrequentVariableSOA	1583	n/a	n/a	1
665.0520000000	n/a	665052	FrequentVariableSOA	1583	n/a	n/a	1
666.6360000000	n/a	666636	NovelVariableSOA	1700	n/a	n/a	1
668.3360000000	n/a	668336	FrequentVariableSOA	1750	n/a	n/a	1
670.0860000000	n/a	670086	GoVariableSOA	354	n/a	n/a	1
671.8690000000	n/a	671869	FrequentVariableSOA	1783	n/a	n/a	1
673.6520000000	n/a	673652	FrequentVariableSOA	1583	n/a	n/a	1
675.2360000000	n/a	675236	FrequentVariableSOA	1550	n/a	n/a	1
676.7860000000	n/a	676786	FrequentVariableSOA	1766	n/a	n/a	1
678.5520000000	n/a	678552	FrequentVariableSOA	1700	n/a	n/a	1
680.2520000000	n/a	680252	FrequentVariableSOA	1716	n/a	n/a	1
681.9690000000	n/a	681969	FrequentVariableSOA	1516	n/a	n/a	1
683.4860000000	n/a	683486	FrequentVariableSOA	1566	n/a	n/a	1
685.0520000000	n/a	685052	NovelVariableSOA	1716	n/a	n/a	1
686.7690000000	n/a	686769	FrequentVariableSOA	1516	n/a	n/a	1
688.2860000000	n/a	688286	FrequentVariableSOA	1516	n/a	n/a	1
689.8020000000	n/a	689802	GoFixedSOA	375	n/a	n/a	1
691.4360000000	n/a	691436	FrequentFixedSOA	1633	n/a	n/a	1
693.0690000000	n/a	693069	FrequentFixedSOA	1633	n/a	n/a	1
694.7020000000	n/a	694702	FrequentFixedSOA	1633	n/a	n/a	1
696.3360000000	n/a	696336	GoFixedSOA	342	n/a	n/a	1
697.9690000000	n/a	697969	FrequentFixedSOA	1633	n/a	n/a	1
699.6020000000	n/a	699602	FrequentFixedSOA	1633	n/a	n/a	1
701.2360000000	n/a	701236	FrequentFixedSOA	1633	n/a	n/a	1
702.8690000000	n/a	702869	FrequentFixedSOA	1633	n/a	n/a	1
704.5020000000	n/a	704502	GoFixedSOA	339	n/a	n/a	1
706.1360000000	n/a	706136	FrequentFixedSOA	1633	n/a	n/a	1
707.7690000000	n/a	707769	FrequentFixedSOA	1633	n/a	n/a	1
709.4020000000	n/a	709402	NovelFixedSOA	1633	n/a	n/a	1
711.0360000000	n/a	711036	FrequentFixedSOA	1633	n/a	n/a	1
712.6690000000	n/a	712669	FrequentFixedSOA	1633	n/a	n/a	1
714.3020000000	n/a	714302	GoFixedSOA	305	n/a	n/a	1
715.9360000000	n/a	715936	FrequentFixedSOA	1633	n/a	n/a	1
717.5690000000	n/a	717569	FrequentFixedSOA	1633	n/a	n/a	1
719.2020000000	n/a	719202	FrequentFixedSOA	1633	n/a	n/a	1
720.8360000000	n/a	720836	NovelFixedSOA	1633	n/a	n/a	1
722.4690000000	n/a	722469	FrequentFixedSOA	1633	n/a	n/a	1
724.1020000000	n/a	724102	NovelFixedSOA	1633	n/a	n/a	1
725.7360000000	n/a	725736	FrequentFixedSOA	1633	n/a	n/a	1
727.3690000000	n/a	727369	FrequentFixedSOA	1633	n/a	n/a	1
729.0020000000	n/a	729002	FrequentFixedSOA	1633	n/a	n/a	1
730.6360000000	n/a	730636	GoFixedSOA	328	n/a	n/a	1
732.2690000000	n/a	732269	FrequentFixedSOA	1633	n/a	n/a	1
733.9020000000	n/a	733902	FrequentFixedSOA	1633	n/a	n/a	1
735.5360000000	n/a	735536	FrequentFixedSOA	1633	n/a	n/a	1
737.1690000000	n/a	737169	GoFixedSOA	419	n/a	n/a	1
738.8020000000	n/a	738802	FrequentFixedSOA	1633	n/a	n/a	1
740.4360000000	n/a	740436	FrequentFixedSOA	1633	n/a	n/a	1
742.0690000000	n/a	742069	NovelFixedSOA	1633	n/a	n/a	1
743.7020000000	n/a	743702	FrequentFixedSOA	1633	n/a	n/a	1
745.3360000000	n/a	745336	GoFixedSOA	390	n/a	n/a	1
746.9690000000	n/a	746969	FrequentFixedSOA	1633	n/a	n/a	1
748.6020000000	n/a	748602	FrequentFixedSOA	1633	n/a	n/a	1
750.2360000000	n/a	750236	FrequentFixedSOA	1633	n/a	n/a	1
751.8690000000	n/a	751869	FrequentFixedSOA	1633	n/a	n/a	1
753.5020000000	n/a	753502	FrequentFixedSOA	1633	n/a	n/a	1
755.1360000000	n/a	755136	FrequentFixedSOA	1633	n/a	n/a	1
756.7690000000	n/a	756769	NovelFixedSOA	1633	n/a	n/a	1
758.4020000000	n/a	758402	FrequentFixedSOA	1633	n/a	n/a	1
760.0360000000	n/a	760036	FrequentFixedSOA	1633	n/a	n/a	1
761.6690000000	n/a	761669	FrequentFixedSOA	1633	n/a	n/a	1
763.3020000000	n/a	763302	GoFixedSOA	337	n/a	n/a	1
764.9360000000	n/a	764936	FrequentFixedSOA	1633	n/a	n/a	1
766.5690000000	n/a	766569	FrequentFixedSOA	1633	n/a	n/a	1
768.2020000000	n/a	768202	FrequentFixedSOA	1633	n/a	n/a	1
769.8360000000	n/a	769836	FrequentFixedSOA	1633	n/a	n/a	1
771.4690000000	n/a	771469	NovelFixedSOA	1633	n/a	n/a	1
773.1020000000	n/a	773102	FrequentFixedSOA	1633	n/a	n/a	1
774.7360000000	n/a	774736	FrequentFixedSOA	1633	n/a	n/a	1
776.3690000000	n/a	776369	NovelFixedSOA	1633	n/a	n/a	1
778.0020000000	n/a	778002	FrequentFixedSOA	1633	n/a	n/a	1
779.6360000000	n/a	779636	NovelFixedSOA	1633	n/a	n/a	1
781.2690000000	n/a	781269	FrequentFixedSOA	1633	n/a	n/a	1
782.9020000000	n/a	782902	FrequentFixedSOA	1633	n/a	n/a	1
784.5360000000	n/a	784536	FrequentFixedSOA	1633	n/a	n/a	1
786.1690000000	n/a	786169	FrequentFixedSOA	1633	n/a	n/a	1
787.8020000000	n/a	787802	FrequentFixedSOA	1633	n/a	n/a	1
789.4360000000	n/a	789436	FrequentFixedSOA	1633	n/a	n/a	1
791.0690000000	n/a	791069	FrequentFixedSOA	1633	n/a	n/a	1
792.7020000000	n/a	792702	GoFixedSOA	333	n/a	n/a	1
794.3360000000	n/a	794336	FrequentFixedSOA	1633	n/a	n/a	1
795.9690000000	n/a	795969	GoFixedSOA	416	n/a	n/a	1
797.6020000000	n/a	797602	FrequentFixedSOA	1633	n/a	n/a	1
799.2350000000	n/a	799235	FrequentFixedSOA	1633	n/a	n/a	1
800.8690000000	n/a	800869	NovelFixedSOA	1633	n/a	n/a	1
802.5020000000	n/a	802502	FrequentFixedSOA	1633	n/a	n/a	1
804.1350000000	n/a	804135	GoVariableSOA	347	n/a	n/a	1
805.9020000000	n/a	805902	FrequentVariableSOA	1700	n/a	n/a	1
807.6020000000	n/a	807602	FrequentVariableSOA	1733	n/a	n/a	1
809.3350000000	n/a	809335	FrequentVariableSOA	1566	n/a	n/a	1
810.9020000000	n/a	810902	GoVariableSOA	370	n/a	n/a	1
812.7020000000	n/a	812702	FrequentVariableSOA	1733	n/a	n/a	1
814.4350000000	n/a	814435	FrequentVariableSOA	1550	n/a	n/a	1
815.9850000000	n/a	815985	FrequentVariableSOA	1666	n/a	n/a	1
817.6520000000	n/a	817652	FrequentVariableSOA	1600	n/a	n/a	1
819.2520000000	n/a	819252	GoVariableSOA	381	n/a	n/a	1
821.0190000000	n/a	821019	FrequentVariableSOA	1666	n/a	n/a	1
822.6850000000	n/a	822685	FrequentVariableSOA	1666	n/a	n/a	1
824.3520000000	n/a	824352	NovelVariableSOA	1516	n/a	n/a	1
825.8690000000	n/a	825869	FrequentVariableSOA	1666	n/a	n/a	1
827.5350000000	n/a	827535	FrequentVariableSOA	1633	n/a	n/a	1
829.1690000000	n/a	829169	GoVariableSOA	304	n/a	n/a	1
830.8520000000	n/a	830852	FrequentVariableSOA	1550	n/a	n/a	1
832.4020000000	n/a	832402	FrequentVariableSOA	1666	n/a	n/a	1
834.0690000000	n/a	834069	FrequentVariableSOA	1666	n/a	n/a	1
835.7350000000	n/a	835735	NovelVariableSOA	1666	n/a	n/a	1
837.4020000000	n/a	837402	FrequentVariableSOA	1616	n/a	n/a	1
839.0190000000	n/a	839019	NovelVariableSOA	1783	n/a	n/a	1
840.8020000000	n/a	840802	FrequentVariableSOA	1666	n/a	n/a	1
842.4690000000	n/a	842469	FrequentVariableSOA	1733	n/a	n/a	1
844.2020000000	n/a	844202	FrequentVariableSOA	1516	n/a	n/a	1
845.7190000000	n/a	845719	GoVariableSOA	348	n/a	n/a	1
847.4520000000	n/a	847452	FrequentVariableSOA	1533	n/a	n/a	1
848.9850000000	n/a	848985	FrequentVariableSOA	1500	n/a	n/a	1
850.4850000000	n/a	850485	FrequentVariableSOA	1616	n/a	n/a	1
852.1020000000	n/a	852102	GoVariableSOA	322	n/a	n/a	1
853.8350000000	n/a	853835	FrequentVariableSOA	1716	n/a	n/a	1
855.5520000000	n/a	855552	FrequentVariableSOA	1750	n/a	n/a	1
857.3020000000	n/a	857302	NovelVariableSOA	1633	n/a	n/a	1
858.9350000000	n/a	858935	FrequentVariableSOA	1566	n/a	n/a	1
860.5020000000	n/a	860502	GoVariableSOA	303	n/a	n/a	1
862.0850000000	n/a	862085	FrequentVariableSOA	1716	n/a	n/a	1
863.8020000000	n/a	863802	FrequentVariableSOA	1566	n/a	n/a	1
865.3690000000	n/a	865369	FrequentVariableSOA	1583	n/a	n/a	1
866.9520000000	n/a	866952	FrequentVariableSOA	1783	n/a	n/a	1
868.7350000000	n/a	868735	FrequentVariableSOA	1550	n/a	n/a	1
870.2850000000	n/a	870285	FrequentVariableSOA	1750	n/a	n/a	1
872.0350000000	n/a	872035	NovelVariableSOA	1766	n/a	n/a	1
873.8020000000	n/a	873802	FrequentVariableSOA	1633	n/a	n/a	1
875.4350000000	n/a	875435	FrequentVariableSOA	1716	n/a	n/a	1
877.1520000000	n/a	877152	FrequentVariableSOA	1666	n/a	n/a	1
878.8190000000	n/a	878819	GoVariableSOA	557	n/a	n/a	1
880.5850000000	n/a	880585	FrequentVariableSOA	1633	n/a	n/a	1
882.2190000000	n/a	882219	FrequentVariableSOA	1666	n/a	n/a	1
883.8850000000	n/a	883885	FrequentVariableSOA	1533	n/a	n/a	1
885.4190000000	n/a	885419	FrequentVariableSOA	1700	n/a	n/a	1
887.1190000000	n/a	887119	NovelVariableSOA	1533	n/a	n/a	1
888.6520000000	n/a	888652	FrequentVariableSOA	1683	n/a	n/a	1
890.3350000000	n/a	890335	FrequentVariableSOA	1766	n/a	n/a	1
892.1020000000	n/a	892102	NovelVariableSOA	1583	n/a	n/a	1
893.6850000000	n/a	893685	FrequentVariableSOA	1616	n/a	n/a	1
895.3020000000	n/a	895302	NovelVariableSOA	1716	n/a	n/a	1
897.0190000000	n/a	897019	FrequentVariableSOA	1733	n/a	n/a	1
898.7520000000	n/a	898752	FrequentVariableSOA	1650	n/a	n/a	1
900.4020000000	n/a	900402	FrequentVariableSOA	1533	n/a	n/a	1
901.9350000000	n/a	901935	FrequentVariableSOA	1666	n/a	n/a	1
903.6020000000	n/a	903602	FrequentVariableSOA	1650	n/a	n/a	1
905.2520000000	n/a	905252	FrequentVariableSOA	1800	n/a	n/a	1
907.0520000000	n/a	907052	FrequentVariableSOA	1766	n/a	n/a	1
908.8190000000	n/a	908819	GoVariableSOA	513	n/a	n/a	1
910.4520000000	n/a	910452	FrequentVariableSOA	1750	n/a	n/a	1
912.2020000000	n/a	912202	GoVariableSOA	388	n/a	n/a	1
913.7690000000	n/a	913769	FrequentVariableSOA	1600	n/a	n/a	1
915.3690000000	n/a	915369	FrequentVariableSOA	1516	n/a	n/a	1
916.8850000000	n/a	916885	NovelVariableSOA	1583	n/a	n/a	1
918.4690000000	n/a	918469	FrequentVariableSOA	1783	n/a	n/a	1
