onset	duration	sample	trial_type	response_time	stim_file	value	correct
5.0540000000	n/a	5054	ignore	n/a	n/a	n/a	n/a
8.1540000000	n/a	8154	ignore	n/a	n/a	n/a	n/a
11.1680000000	n/a	11168	ignore	n/a	n/a	n/a	n/a
27.9040000000	n/a	27904	ignore	n/a	n/a	n/a	n/a
31.0040000000	n/a	31004	ignore	n/a	n/a	n/a	n/a
33.9910000000	n/a	33991	ignore	n/a	n/a	n/a	n/a
50.7210000000	n/a	50721	NeuStim	n/a	n/a	n/a	n/a
53.8210000000	n/a	53821	NeuNonAlcP1000	n/a	n/a	n/a	n/a
58.8080000000	n/a	58808	NeuNonAlcP1000	n/a	n/a	n/a	n/a
67.7210000000	n/a	67721	PosStim	n/a	n/a	n/a	n/a
70.7540000000	n/a	70754	PosAlcStimWithoutStartle	n/a	n/a	n/a	n/a
87.4380000000	n/a	87438	NeuStim	n/a	n/a	n/a	n/a
90.5380000000	n/a	90538	NeuAlcP2000	n/a	n/a	n/a	n/a
94.5250000000	n/a	94525	NeuAlcP2000	n/a	n/a	n/a	n/a
104.9040000000	n/a	104904	NegStim	n/a	n/a	n/a	n/a
108.0040000000	n/a	108004	NegNonAlcP2000	n/a	n/a	n/a	n/a
111.9910000000	n/a	111991	NegNonAlcP2000	n/a	n/a	n/a	n/a
122.8540000000	n/a	122854	NeuStim	n/a	n/a	n/a	n/a
125.8880000000	n/a	125888	NeuNonAlcStimWithoutStartle	n/a	n/a	n/a	n/a
141.7380000000	n/a	141738	PosStim	n/a	n/a	n/a	n/a
144.8380000000	n/a	144838	PosNonAlcP1000	n/a	n/a	n/a	n/a
149.8250000000	n/a	149825	PosNonAlcP1000	n/a	n/a	n/a	n/a
159.3710000000	n/a	159371	NeuStim	n/a	n/a	n/a	n/a
162.4710000000	n/a	162471	NeuAlcP1000	n/a	n/a	n/a	n/a
167.4580000000	n/a	167458	NeuAlcP1000	n/a	n/a	n/a	n/a
178.5540000000	n/a	178554	NegStim	n/a	n/a	n/a	n/a
181.5870000000	n/a	181587	NegNonAlcStimWithoutStartle	n/a	n/a	n/a	n/a
198.2210000000	n/a	198221	NeuStim	n/a	n/a	n/a	n/a
201.3210000000	n/a	201321	NeuNonAlcP1000	n/a	n/a	n/a	n/a
206.3080000000	n/a	206308	NeuNonAlcP1000	n/a	n/a	n/a	n/a
217.0210000000	n/a	217021	NegStim	n/a	n/a	n/a	n/a
220.1210000000	n/a	220121	NegNonAlcP3000	n/a	n/a	n/a	n/a
223.1080000000	n/a	223108	NegNonAlcP3000	n/a	n/a	n/a	n/a
233.5540000000	n/a	233554	PosStim	n/a	n/a	n/a	n/a
236.6540000000	n/a	236654	PosNonAlcP3000	n/a	n/a	n/a	n/a
239.6410000000	n/a	239641	PosNonAlcP3000	n/a	n/a	n/a	n/a
251.0040000000	n/a	251004	NeuStim	n/a	n/a	n/a	n/a
254.1040000000	n/a	254104	NeuAlcP1000	n/a	n/a	n/a	n/a
259.0910000000	n/a	259091	NeuAlcP1000	n/a	n/a	n/a	n/a
268.9210000000	n/a	268921	NegStim	n/a	n/a	n/a	n/a
271.9540000000	n/a	271954	NegAlcStimWithoutStartle	n/a	n/a	n/a	n/a
288.8710000000	n/a	288871	PosStim	n/a	n/a	n/a	n/a
291.9040000000	n/a	291904	PosNonAlcStimWithoutStartle	n/a	n/a	n/a	n/a
306.4870000000	n/a	306487	NegStim	n/a	n/a	n/a	n/a
309.5870000000	n/a	309587	NegAlcP3000	n/a	n/a	n/a	n/a
312.5740000000	n/a	312574	NegAlcP3000	n/a	n/a	n/a	n/a
325.4370000000	n/a	325437	NeuStim	n/a	n/a	n/a	n/a
328.4710000000	n/a	328471	NeuAlcStimWithoutStartle	n/a	n/a	n/a	n/a
344.6540000000	n/a	344654	PosStim	n/a	n/a	n/a	n/a
347.7540000000	n/a	347754	PosNonAlcP1000	n/a	n/a	n/a	n/a
352.7410000000	n/a	352741	PosNonAlcP1000	n/a	n/a	n/a	n/a
364.0870000000	n/a	364087	NegStim	n/a	n/a	n/a	n/a
367.1870000000	n/a	367187	NegAlcP3000	n/a	n/a	n/a	n/a
370.1740000000	n/a	370174	NegAlcP3000	n/a	n/a	n/a	n/a
381.0540000000	n/a	381054	NegStim	n/a	n/a	n/a	n/a
384.0870000000	n/a	384087	NegNonAlcStimWithoutStartle	n/a	n/a	n/a	n/a
397.1200000000	n/a	397120	PosStim	n/a	n/a	n/a	n/a
400.2200000000	n/a	400220	PosAlcP1000	n/a	n/a	n/a	n/a
405.2070000000	n/a	405207	PosAlcP1000	n/a	n/a	n/a	n/a
413.9200000000	n/a	413920	NeuStim	n/a	n/a	n/a	n/a
416.9540000000	n/a	416954	NeuAlcStimWithoutStartle	n/a	n/a	n/a	n/a
431.3200000000	n/a	431320	NegStim	n/a	n/a	n/a	n/a
434.4200000000	n/a	434420	NegNonAlcP1000	n/a	n/a	n/a	n/a
439.4070000000	n/a	439407	NegNonAlcP1000	n/a	n/a	n/a	n/a
448.8040000000	n/a	448804	PosStim	n/a	n/a	n/a	n/a
451.9040000000	n/a	451904	PosAlcP3000	n/a	n/a	n/a	n/a
454.8910000000	n/a	454891	PosAlcP3000	n/a	n/a	n/a	n/a
468.2370000000	n/a	468237	NeuStim	n/a	n/a	n/a	n/a
471.3370000000	n/a	471337	NeuAlcP3000	n/a	n/a	n/a	n/a
474.3240000000	n/a	474324	NeuAlcP3000	n/a	n/a	n/a	n/a
485.7200000000	n/a	485720	NegStim	n/a	n/a	n/a	n/a
488.7540000000	n/a	488754	NegAlcStimWithoutStartle	n/a	n/a	n/a	n/a
502.0200000000	n/a	502020	PosStim	n/a	n/a	n/a	n/a
505.1200000000	n/a	505120	PosNonAlcP2000	n/a	n/a	n/a	n/a
509.1070000000	n/a	509107	PosNonAlcP2000	n/a	n/a	n/a	n/a
518.6200000000	n/a	518620	NegStim	n/a	n/a	n/a	n/a
521.7200000000	n/a	521720	NegAlcP2000	n/a	n/a	n/a	n/a
525.7070000000	n/a	525707	NegAlcP2000	n/a	n/a	n/a	n/a
537.9870000000	n/a	537987	PosStim	n/a	n/a	n/a	n/a
541.0870000000	n/a	541087	PosAlcP2000	n/a	n/a	n/a	n/a
545.0740000000	n/a	545074	PosAlcP2000	n/a	n/a	n/a	n/a
554.2700000000	n/a	554270	NeuStim	n/a	n/a	n/a	n/a
557.3040000000	n/a	557304	NeuAlcStimWithoutStartle	n/a	n/a	n/a	n/a
571.5370000000	n/a	571537	NegStim	n/a	n/a	n/a	n/a
574.6370000000	n/a	574637	NegNonAlcP1000	n/a	n/a	n/a	n/a
579.6240000000	n/a	579624	NegNonAlcP1000	n/a	n/a	n/a	n/a
589.5530000000	n/a	589553	NeuStim	n/a	n/a	n/a	n/a
592.6530000000	n/a	592653	NeuNonAlcP1000	n/a	n/a	n/a	n/a
597.6410000000	n/a	597641	NeuNonAlcP1000	n/a	n/a	n/a	n/a
605.7370000000	n/a	605737	PosStim	n/a	n/a	n/a	n/a
608.8370000000	n/a	608837	PosNonAlcP3000	n/a	n/a	n/a	n/a
611.8240000000	n/a	611824	PosNonAlcP3000	n/a	n/a	n/a	n/a
625.6870000000	n/a	625687	NeuStim	n/a	n/a	n/a	n/a
628.7200000000	n/a	628720	NeuNonAlcStimWithoutStartle	n/a	n/a	n/a	n/a
645.3530000000	n/a	645353	NegStim	n/a	n/a	n/a	n/a
648.3870000000	n/a	648387	NegNonAlcStimWithoutStartle	n/a	n/a	n/a	n/a
664.7200000000	n/a	664720	NeuStim	n/a	n/a	n/a	n/a
667.8200000000	n/a	667820	NeuNonAlcP3000	n/a	n/a	n/a	n/a
670.8070000000	n/a	670807	NeuNonAlcP3000	n/a	n/a	n/a	n/a
684.5870000000	n/a	684587	PosStim	n/a	n/a	n/a	n/a
687.6870000000	n/a	687687	PosAlcP1000	n/a	n/a	n/a	n/a
692.6740000000	n/a	692674	PosAlcP1000	n/a	n/a	n/a	n/a
704.0700000000	n/a	704070	NegStim	n/a	n/a	n/a	n/a
707.1700000000	n/a	707170	NegNonAlcP1000	n/a	n/a	n/a	n/a
712.1570000000	n/a	712157	NegNonAlcP1000	n/a	n/a	n/a	n/a
721.7530000000	n/a	721753	PosStim	n/a	n/a	n/a	n/a
724.7870000000	n/a	724787	PosNonAlcStimWithoutStartle	n/a	n/a	n/a	n/a
740.5200000000	n/a	740520	NeuStim	n/a	n/a	n/a	n/a
743.6200000000	n/a	743620	NeuAlcP2000	n/a	n/a	n/a	n/a
747.6070000000	n/a	747607	NeuAlcP2000	n/a	n/a	n/a	n/a
758.1030000000	n/a	758103	PosStim	n/a	n/a	n/a	n/a
761.2030000000	n/a	761203	PosAlcP1000	n/a	n/a	n/a	n/a
766.1900000000	n/a	766190	PosAlcP1000	n/a	n/a	n/a	n/a
774.3700000000	n/a	774370	NegStim	n/a	n/a	n/a	n/a
777.4030000000	n/a	777403	NegNonAlcStimWithoutStartle	n/a	n/a	n/a	n/a
790.9030000000	n/a	790903	PosStim	n/a	n/a	n/a	n/a
794.0030000000	n/a	794003	PosNonAlcP2000	n/a	n/a	n/a	n/a
797.9900000000	n/a	797990	PosNonAlcP2000	n/a	n/a	n/a	n/a
808.1360000000	n/a	808136	NegStim	n/a	n/a	n/a	n/a
811.2360000000	n/a	811236	NegNonAlcP3000	n/a	n/a	n/a	n/a
814.2230000000	n/a	814223	NegNonAlcP3000	n/a	n/a	n/a	n/a
828.0030000000	n/a	828003	NeuStim	n/a	n/a	n/a	n/a
831.1030000000	n/a	831103	NeuNonAlcP2000	n/a	n/a	n/a	n/a
835.0900000000	n/a	835090	NeuNonAlcP2000	n/a	n/a	n/a	n/a
847.8860000000	n/a	847886	NegStim	n/a	n/a	n/a	n/a
850.9200000000	n/a	850920	NegAlcStimWithoutStartle	n/a	n/a	n/a	n/a
865.7860000000	n/a	865786	PosStim	n/a	n/a	n/a	n/a
868.8200000000	n/a	868820	PosAlcStimWithoutStartle	n/a	n/a	n/a	n/a
883.2360000000	n/a	883236	NeuStim	n/a	n/a	n/a	n/a
886.3360000000	n/a	886336	NeuAlcP3000	n/a	n/a	n/a	n/a
889.3230000000	n/a	889323	NeuAlcP3000	n/a	n/a	n/a	n/a
901.8200000000	n/a	901820	NegStim	n/a	n/a	n/a	n/a
904.9200000000	n/a	904920	NegNonAlcP1000	n/a	n/a	n/a	n/a
909.9070000000	n/a	909907	NegNonAlcP1000	n/a	n/a	n/a	n/a
920.7200000000	n/a	920720	NeuStim	n/a	n/a	n/a	n/a
923.8200000000	n/a	923820	NeuNonAlcP2000	n/a	n/a	n/a	n/a
927.8070000000	n/a	927807	NeuNonAlcP2000	n/a	n/a	n/a	n/a
938.4530000000	n/a	938453	PosStim	n/a	n/a	n/a	n/a
941.4860000000	n/a	941486	PosAlcStimWithoutStartle	n/a	n/a	n/a	n/a
955.4530000000	n/a	955453	NegStim	n/a	n/a	n/a	n/a
958.5530000000	n/a	958553	NegNonAlcP2000	n/a	n/a	n/a	n/a
962.5400000000	n/a	962540	NegNonAlcP2000	n/a	n/a	n/a	n/a
975.2530000000	n/a	975253	NeuStim	n/a	n/a	n/a	n/a
978.3530000000	n/a	978353	NeuAlcP1000	n/a	n/a	n/a	n/a
983.3400000000	n/a	983340	NeuAlcP1000	n/a	n/a	n/a	n/a
