onset	duration	sample	trial_type	response_time	stim_file	value	correct
4.3380000000	n/a	4338	FrequentFixedSOA	1633	n/a	n/a	1
5.9710000000	n/a	5971	FrequentFixedSOA	1633	n/a	n/a	1
7.6040000000	n/a	7604	FrequentFixedSOA	1633	n/a	n/a	1
9.2370000000	n/a	9237	FrequentFixedSOA	1633	n/a	n/a	1
10.8710000000	n/a	10871	FrequentFixedSOA	1633	n/a	n/a	1
12.5040000000	n/a	12504	FrequentFixedSOA	1633	n/a	n/a	1
14.1370000000	n/a	14137	FrequentFixedSOA	1633	n/a	n/a	1
15.7710000000	n/a	15771	FrequentFixedSOA	1633	n/a	n/a	1
17.4040000000	n/a	17404	FrequentFixedSOA	1633	n/a	n/a	1
19.0370000000	n/a	19037	FrequentFixedSOA	1633	n/a	n/a	1
20.6710000000	n/a	20671	NovelFixedSOA	1633	n/a	n/a	1
22.3040000000	n/a	22304	FrequentFixedSOA	1633	n/a	n/a	1
23.9370000000	n/a	23937	GoFixedSOA	1633	n/a	n/a	0
25.5710000000	n/a	25571	FrequentFixedSOA	1633	n/a	n/a	1
27.2040000000	n/a	27204	FrequentFixedSOA	1633	n/a	n/a	1
28.8370000000	n/a	28837	FrequentFixedSOA	1633	n/a	n/a	1
30.4710000000	n/a	30471	GoFixedSOA	430	n/a	n/a	1
32.1040000000	n/a	32104	FrequentFixedSOA	1633	n/a	n/a	1
33.7370000000	n/a	33737	FrequentFixedSOA	1633	n/a	n/a	1
35.3710000000	n/a	35371	FrequentFixedSOA	1633	n/a	n/a	1
37.0040000000	n/a	37004	NovelFixedSOA	1633	n/a	n/a	1
38.6370000000	n/a	38637	FrequentFixedSOA	1633	n/a	n/a	1
40.2710000000	n/a	40271	FrequentFixedSOA	1633	n/a	n/a	1
41.9040000000	n/a	41904	FrequentFixedSOA	1633	n/a	n/a	1
43.5370000000	n/a	43537	GoFixedSOA	336	n/a	n/a	1
45.1710000000	n/a	45171	FrequentFixedSOA	1633	n/a	n/a	1
46.8040000000	n/a	46804	NovelFixedSOA	1633	n/a	n/a	1
48.4370000000	n/a	48437	FrequentFixedSOA	1633	n/a	n/a	1
50.0710000000	n/a	50071	FrequentFixedSOA	1633	n/a	n/a	1
51.7040000000	n/a	51704	FrequentFixedSOA	1633	n/a	n/a	1
53.3370000000	n/a	53337	GoFixedSOA	334	n/a	n/a	1
54.9710000000	n/a	54971	FrequentFixedSOA	1633	n/a	n/a	1
56.6040000000	n/a	56604	GoFixedSOA	411	n/a	n/a	1
58.2370000000	n/a	58237	FrequentFixedSOA	1633	n/a	n/a	1
59.8710000000	n/a	59871	FrequentFixedSOA	1633	n/a	n/a	1
61.5040000000	n/a	61504	GoFixedSOA	292	n/a	n/a	1
63.1370000000	n/a	63137	FrequentFixedSOA	1633	n/a	n/a	1
64.7710000000	n/a	64771	FrequentFixedSOA	1633	n/a	n/a	1
66.4040000000	n/a	66404	FrequentFixedSOA	1633	n/a	n/a	1
68.0370000000	n/a	68037	FrequentFixedSOA	1633	n/a	n/a	1
69.6710000000	n/a	69671	NovelFixedSOA	1633	n/a	n/a	1
71.3040000000	n/a	71304	FrequentFixedSOA	1633	n/a	n/a	1
72.9370000000	n/a	72937	NovelFixedSOA	1633	n/a	n/a	1
74.5710000000	n/a	74571	FrequentFixedSOA	1633	n/a	n/a	1
76.2040000000	n/a	76204	FrequentFixedSOA	1633	n/a	n/a	1
77.8370000000	n/a	77837	GoFixedSOA	290	n/a	n/a	1
79.4710000000	n/a	79471	FrequentFixedSOA	1633	n/a	n/a	1
81.1040000000	n/a	81104	FrequentFixedSOA	1633	n/a	n/a	1
82.7370000000	n/a	82737	FrequentFixedSOA	1633	n/a	n/a	1
84.3710000000	n/a	84371	FrequentFixedSOA	1633	n/a	n/a	1
86.0040000000	n/a	86004	NovelFixedSOA	1633	n/a	n/a	1
87.6370000000	n/a	87637	FrequentFixedSOA	1633	n/a	n/a	1
89.2710000000	n/a	89271	FrequentFixedSOA	1633	n/a	n/a	1
90.9040000000	n/a	90904	FrequentFixedSOA	1633	n/a	n/a	1
92.5370000000	n/a	92537	FrequentFixedSOA	1633	n/a	n/a	1
94.1710000000	n/a	94171	GoFixedSOA	319	n/a	n/a	1
95.8040000000	n/a	95804	FrequentFixedSOA	1633	n/a	n/a	1
97.4370000000	n/a	97437	FrequentFixedSOA	1633	n/a	n/a	1
99.0700000000	n/a	99070	NovelFixedSOA	1633	n/a	n/a	1
100.7040000000	n/a	100704	FrequentFixedSOA	1633	n/a	n/a	1
102.3370000000	n/a	102337	FrequentFixedSOA	1633	n/a	n/a	1
103.9700000000	n/a	103970	GoFixedSOA	383	n/a	n/a	1
105.6040000000	n/a	105604	FrequentFixedSOA	1633	n/a	n/a	1
107.2370000000	n/a	107237	FrequentFixedSOA	1633	n/a	n/a	1
108.8700000000	n/a	108870	FrequentFixedSOA	1633	n/a	n/a	1
110.5040000000	n/a	110504	FrequentFixedSOA	1633	n/a	n/a	1
112.1370000000	n/a	112137	NovelFixedSOA	1633	n/a	n/a	1
113.7700000000	n/a	113770	FrequentFixedSOA	1633	n/a	n/a	1
115.4040000000	n/a	115404	FrequentFixedSOA	1633	n/a	n/a	1
117.0370000000	n/a	117037	GoFixedSOA	322	n/a	n/a	1
118.6700000000	n/a	118670	FrequentVariableSOA	1783	n/a	n/a	1
120.4540000000	n/a	120454	FrequentVariableSOA	1633	n/a	n/a	1
122.0870000000	n/a	122087	FrequentVariableSOA	1716	n/a	n/a	1
123.8040000000	n/a	123804	FrequentVariableSOA	1666	n/a	n/a	1
125.4700000000	n/a	125470	FrequentVariableSOA	1550	n/a	n/a	1
127.0200000000	n/a	127020	FrequentVariableSOA	1566	n/a	n/a	1
128.5870000000	n/a	128587	FrequentVariableSOA	1633	n/a	n/a	1
130.2200000000	n/a	130220	FrequentVariableSOA	1700	n/a	n/a	1
131.9200000000	n/a	131920	FrequentVariableSOA	1616	n/a	n/a	1
133.5370000000	n/a	133537	FrequentVariableSOA	1783	n/a	n/a	1
135.3200000000	n/a	135320	NovelVariableSOA	1616	n/a	n/a	1
136.9370000000	n/a	136937	FrequentVariableSOA	1783	n/a	n/a	1
138.7200000000	n/a	138720	GoVariableSOA	384	n/a	n/a	1
140.2700000000	n/a	140270	FrequentVariableSOA	1750	n/a	n/a	1
142.0200000000	n/a	142020	FrequentVariableSOA	1700	n/a	n/a	1
143.7200000000	n/a	143720	FrequentVariableSOA	1666	n/a	n/a	1
145.3870000000	n/a	145387	GoVariableSOA	467	n/a	n/a	1
146.9370000000	n/a	146937	FrequentVariableSOA	1800	n/a	n/a	1
148.7370000000	n/a	148737	FrequentVariableSOA	1533	n/a	n/a	1
150.2700000000	n/a	150270	FrequentVariableSOA	1533	n/a	n/a	1
151.8040000000	n/a	151804	NovelVariableSOA	1683	n/a	n/a	1
153.4870000000	n/a	153487	FrequentVariableSOA	1716	n/a	n/a	1
155.2040000000	n/a	155204	FrequentVariableSOA	1633	n/a	n/a	1
156.8370000000	n/a	156837	FrequentVariableSOA	1733	n/a	n/a	1
158.5700000000	n/a	158570	GoVariableSOA	337	n/a	n/a	1
160.2040000000	n/a	160204	FrequentVariableSOA	1683	n/a	n/a	1
161.8870000000	n/a	161887	NovelVariableSOA	1700	n/a	n/a	1
163.5870000000	n/a	163587	FrequentVariableSOA	1516	n/a	n/a	1
165.1040000000	n/a	165104	FrequentVariableSOA	1700	n/a	n/a	1
166.8040000000	n/a	166804	FrequentVariableSOA	1683	n/a	n/a	1
168.4870000000	n/a	168487	GoVariableSOA	336	n/a	n/a	1
170.1870000000	n/a	170187	FrequentVariableSOA	1783	n/a	n/a	1
171.9700000000	n/a	171970	GoVariableSOA	388	n/a	n/a	1
173.5870000000	n/a	173587	FrequentVariableSOA	1666	n/a	n/a	1
175.2540000000	n/a	175254	FrequentVariableSOA	1550	n/a	n/a	1
176.8040000000	n/a	176804	GoVariableSOA	405	n/a	n/a	1
178.3870000000	n/a	178387	FrequentVariableSOA	1716	n/a	n/a	1
180.1040000000	n/a	180104	FrequentVariableSOA	1766	n/a	n/a	1
181.8700000000	n/a	181870	FrequentVariableSOA	1750	n/a	n/a	1
183.6200000000	n/a	183620	FrequentVariableSOA	1716	n/a	n/a	1
185.3370000000	n/a	185337	NovelVariableSOA	1716	n/a	n/a	1
187.0540000000	n/a	187054	FrequentVariableSOA	1566	n/a	n/a	1
188.6200000000	n/a	188620	NovelVariableSOA	1566	n/a	n/a	1
190.1870000000	n/a	190187	FrequentVariableSOA	1500	n/a	n/a	1
191.6870000000	n/a	191687	FrequentVariableSOA	1583	n/a	n/a	1
193.2700000000	n/a	193270	GoVariableSOA	664	n/a	n/a	1
194.9040000000	n/a	194904	FrequentVariableSOA	1683	n/a	n/a	1
196.5870000000	n/a	196587	FrequentVariableSOA	1550	n/a	n/a	1
198.1370000000	n/a	198137	FrequentVariableSOA	1600	n/a	n/a	1
199.7370000000	n/a	199737	FrequentVariableSOA	1633	n/a	n/a	1
201.3700000000	n/a	201370	NovelVariableSOA	1783	n/a	n/a	1
203.1540000000	n/a	203154	FrequentVariableSOA	1616	n/a	n/a	1
204.7700000000	n/a	204770	FrequentVariableSOA	1616	n/a	n/a	1
206.3870000000	n/a	206387	FrequentVariableSOA	1516	n/a	n/a	1
207.9040000000	n/a	207904	FrequentVariableSOA	1616	n/a	n/a	1
209.5200000000	n/a	209520	GoVariableSOA	455	n/a	n/a	1
211.1370000000	n/a	211137	FrequentVariableSOA	1533	n/a	n/a	1
212.6700000000	n/a	212670	FrequentVariableSOA	1716	n/a	n/a	1
214.3870000000	n/a	214387	NovelVariableSOA	1516	n/a	n/a	1
215.9040000000	n/a	215904	FrequentVariableSOA	1700	n/a	n/a	1
217.6040000000	n/a	217604	FrequentVariableSOA	1716	n/a	n/a	1
219.3200000000	n/a	219320	GoVariableSOA	393	n/a	n/a	1
220.9870000000	n/a	220987	FrequentVariableSOA	1566	n/a	n/a	1
222.5540000000	n/a	222554	FrequentVariableSOA	1516	n/a	n/a	1
224.0700000000	n/a	224070	FrequentVariableSOA	1633	n/a	n/a	1
225.7040000000	n/a	225704	FrequentVariableSOA	1533	n/a	n/a	1
227.2370000000	n/a	227237	NovelVariableSOA	1516	n/a	n/a	1
228.7540000000	n/a	228754	FrequentVariableSOA	1750	n/a	n/a	1
230.5040000000	n/a	230504	FrequentVariableSOA	1783	n/a	n/a	1
232.2870000000	n/a	232287	GoVariableSOA	298	n/a	n/a	1
233.9700000000	n/a	233970	FrequentFixedSOA	1633	n/a	n/a	1
235.6040000000	n/a	235604	FrequentFixedSOA	1633	n/a	n/a	1
237.2370000000	n/a	237237	FrequentFixedSOA	1633	n/a	n/a	1
238.8700000000	n/a	238870	GoFixedSOA	1633	n/a	n/a	0
240.5040000000	n/a	240504	FrequentFixedSOA	1633	n/a	n/a	1
242.1370000000	n/a	242137	FrequentFixedSOA	1633	n/a	n/a	1
243.7700000000	n/a	243770	FrequentFixedSOA	1633	n/a	n/a	1
245.4040000000	n/a	245404	GoFixedSOA	341	n/a	n/a	1
247.0370000000	n/a	247037	FrequentFixedSOA	1633	n/a	n/a	1
248.6700000000	n/a	248670	FrequentFixedSOA	1633	n/a	n/a	1
250.3040000000	n/a	250304	FrequentFixedSOA	1633	n/a	n/a	1
251.9370000000	n/a	251937	NovelFixedSOA	1633	n/a	n/a	1
253.5700000000	n/a	253570	FrequentFixedSOA	1633	n/a	n/a	1
255.2040000000	n/a	255204	NovelFixedSOA	1633	n/a	n/a	1
256.8370000000	n/a	256837	FrequentFixedSOA	1633	n/a	n/a	1
258.4700000000	n/a	258470	FrequentFixedSOA	1633	n/a	n/a	1
260.1040000000	n/a	260104	NovelFixedSOA	1633	n/a	n/a	1
261.7370000000	n/a	261737	FrequentFixedSOA	1633	n/a	n/a	1
263.3700000000	n/a	263370	FrequentFixedSOA	1633	n/a	n/a	1
265.0040000000	n/a	265004	FrequentFixedSOA	1633	n/a	n/a	1
266.6370000000	n/a	266637	FrequentFixedSOA	1633	n/a	n/a	1
268.2700000000	n/a	268270	FrequentFixedSOA	1633	n/a	n/a	1
269.9040000000	n/a	269904	NovelFixedSOA	1633	n/a	n/a	1
271.5370000000	n/a	271537	FrequentFixedSOA	1633	n/a	n/a	1
273.1700000000	n/a	273170	FrequentFixedSOA	1633	n/a	n/a	1
274.8040000000	n/a	274804	FrequentFixedSOA	1633	n/a	n/a	1
276.4370000000	n/a	276437	FrequentFixedSOA	1633	n/a	n/a	1
278.0700000000	n/a	278070	FrequentFixedSOA	1633	n/a	n/a	1
279.7040000000	n/a	279704	GoFixedSOA	381	n/a	n/a	1
281.3370000000	n/a	281337	FrequentFixedSOA	1633	n/a	n/a	1
282.9700000000	n/a	282970	FrequentFixedSOA	1633	n/a	n/a	1
284.6040000000	n/a	284604	GoFixedSOA	451	n/a	n/a	1
286.2370000000	n/a	286237	FrequentFixedSOA	1633	n/a	n/a	1
287.8700000000	n/a	287870	NovelFixedSOA	1633	n/a	n/a	1
289.5040000000	n/a	289504	FrequentFixedSOA	1633	n/a	n/a	1
291.1370000000	n/a	291137	GoFixedSOA	923	n/a	n/a	1
292.7700000000	n/a	292770	FrequentFixedSOA	1633	n/a	n/a	1
294.4040000000	n/a	294404	GoFixedSOA	344	n/a	n/a	1
296.0370000000	n/a	296037	FrequentFixedSOA	1633	n/a	n/a	1
297.6700000000	n/a	297670	FrequentFixedSOA	1633	n/a	n/a	1
299.3040000000	n/a	299304	FrequentFixedSOA	1633	n/a	n/a	1
300.9370000000	n/a	300937	FrequentFixedSOA	1633	n/a	n/a	1
302.5700000000	n/a	302570	GoFixedSOA	547	n/a	n/a	1
304.2040000000	n/a	304204	FrequentFixedSOA	1633	n/a	n/a	1
305.8370000000	n/a	305837	FrequentFixedSOA	1633	n/a	n/a	1
307.4700000000	n/a	307470	FrequentFixedSOA	1633	n/a	n/a	1
309.1030000000	n/a	309103	NovelFixedSOA	1633	n/a	n/a	1
310.7370000000	n/a	310737	FrequentFixedSOA	1633	n/a	n/a	1
312.3700000000	n/a	312370	FrequentFixedSOA	1633	n/a	n/a	1
314.0030000000	n/a	314003	FrequentFixedSOA	1633	n/a	n/a	1
315.6370000000	n/a	315637	FrequentFixedSOA	1633	n/a	n/a	1
317.2700000000	n/a	317270	NovelFixedSOA	1633	n/a	n/a	1
318.9030000000	n/a	318903	FrequentFixedSOA	1633	n/a	n/a	1
320.5370000000	n/a	320537	FrequentFixedSOA	1633	n/a	n/a	1
322.1700000000	n/a	322170	FrequentFixedSOA	1633	n/a	n/a	1
323.8030000000	n/a	323803	FrequentFixedSOA	1633	n/a	n/a	1
325.4370000000	n/a	325437	NovelFixedSOA	1633	n/a	n/a	1
327.0700000000	n/a	327070	FrequentFixedSOA	1633	n/a	n/a	1
328.7030000000	n/a	328703	FrequentFixedSOA	1633	n/a	n/a	1
330.3370000000	n/a	330337	GoFixedSOA	296	n/a	n/a	1
331.9700000000	n/a	331970	FrequentFixedSOA	1633	n/a	n/a	1
333.6030000000	n/a	333603	FrequentFixedSOA	1633	n/a	n/a	1
335.2370000000	n/a	335237	FrequentFixedSOA	1633	n/a	n/a	1
336.8700000000	n/a	336870	FrequentFixedSOA	1633	n/a	n/a	1
338.5030000000	n/a	338503	NovelFixedSOA	1633	n/a	n/a	1
340.1370000000	n/a	340137	FrequentFixedSOA	1633	n/a	n/a	1
341.7700000000	n/a	341770	FrequentFixedSOA	1633	n/a	n/a	1
343.4030000000	n/a	343403	FrequentFixedSOA	1633	n/a	n/a	1
345.0370000000	n/a	345037	FrequentFixedSOA	1633	n/a	n/a	1
346.6700000000	n/a	346670	FrequentFixedSOA	1633	n/a	n/a	1
348.3030000000	n/a	348303	FrequentVariableSOA	1566	n/a	n/a	1
349.8700000000	n/a	349870	FrequentVariableSOA	1516	n/a	n/a	1
351.3870000000	n/a	351387	FrequentVariableSOA	1750	n/a	n/a	1
353.1370000000	n/a	353137	GoVariableSOA	1766	n/a	n/a	0
354.9030000000	n/a	354903	FrequentVariableSOA	1733	n/a	n/a	1
356.6370000000	n/a	356637	FrequentVariableSOA	1783	n/a	n/a	1
358.4200000000	n/a	358420	FrequentVariableSOA	1683	n/a	n/a	1
360.1030000000	n/a	360103	GoVariableSOA	517	n/a	n/a	1
361.6030000000	n/a	361603	FrequentVariableSOA	1800	n/a	n/a	1
363.4030000000	n/a	363403	FrequentVariableSOA	1700	n/a	n/a	1
365.1030000000	n/a	365103	FrequentVariableSOA	1583	n/a	n/a	1
366.6870000000	n/a	366687	NovelVariableSOA	1650	n/a	n/a	1
368.3370000000	n/a	368337	FrequentVariableSOA	1783	n/a	n/a	1
370.1200000000	n/a	370120	NovelVariableSOA	1800	n/a	n/a	1
371.9200000000	n/a	371920	FrequentVariableSOA	1633	n/a	n/a	1
373.5530000000	n/a	373553	FrequentVariableSOA	1650	n/a	n/a	1
375.2030000000	n/a	375203	NovelVariableSOA	1583	n/a	n/a	1
376.7870000000	n/a	376787	FrequentVariableSOA	1550	n/a	n/a	1
378.3370000000	n/a	378337	FrequentVariableSOA	1566	n/a	n/a	1
379.9030000000	n/a	379903	FrequentVariableSOA	1633	n/a	n/a	1
381.5370000000	n/a	381537	FrequentVariableSOA	1650	n/a	n/a	1
383.1870000000	n/a	383187	FrequentVariableSOA	1716	n/a	n/a	1
384.9030000000	n/a	384903	NovelVariableSOA	1633	n/a	n/a	1
386.5370000000	n/a	386537	FrequentVariableSOA	1716	n/a	n/a	1
388.2530000000	n/a	388253	FrequentVariableSOA	1683	n/a	n/a	1
389.9370000000	n/a	389937	FrequentVariableSOA	1616	n/a	n/a	1
391.5530000000	n/a	391553	FrequentVariableSOA	1600	n/a	n/a	1
393.1530000000	n/a	393153	FrequentVariableSOA	1750	n/a	n/a	1
394.9030000000	n/a	394903	GoVariableSOA	410	n/a	n/a	1
396.6200000000	n/a	396620	FrequentVariableSOA	1633	n/a	n/a	1
398.2530000000	n/a	398253	FrequentVariableSOA	1650	n/a	n/a	1
399.9030000000	n/a	399903	GoVariableSOA	1516	n/a	n/a	0
401.4200000000	n/a	401420	FrequentVariableSOA	1533	n/a	n/a	1
402.9530000000	n/a	402953	NovelVariableSOA	1683	n/a	n/a	1
404.6370000000	n/a	404637	FrequentVariableSOA	1600	n/a	n/a	1
406.2370000000	n/a	406237	GoVariableSOA	314	n/a	n/a	1
407.7700000000	n/a	407770	FrequentVariableSOA	1516	n/a	n/a	1
409.2870000000	n/a	409287	GoVariableSOA	463	n/a	n/a	1
410.8530000000	n/a	410853	FrequentVariableSOA	1750	n/a	n/a	1
412.6030000000	n/a	412603	FrequentVariableSOA	1716	n/a	n/a	1
414.3200000000	n/a	414320	FrequentVariableSOA	1650	n/a	n/a	1
415.9700000000	n/a	415970	FrequentVariableSOA	1566	n/a	n/a	1
417.5370000000	n/a	417537	GoVariableSOA	307	n/a	n/a	1
419.1870000000	n/a	419187	FrequentVariableSOA	1500	n/a	n/a	1
420.6870000000	n/a	420687	FrequentVariableSOA	1750	n/a	n/a	1
422.4370000000	n/a	422437	FrequentVariableSOA	1500	n/a	n/a	1
423.9370000000	n/a	423937	NovelVariableSOA	1750	n/a	n/a	1
425.6870000000	n/a	425687	FrequentVariableSOA	1550	n/a	n/a	1
427.2370000000	n/a	427237	FrequentVariableSOA	1583	n/a	n/a	1
428.8200000000	n/a	428820	FrequentVariableSOA	1783	n/a	n/a	1
430.6030000000	n/a	430603	FrequentVariableSOA	1633	n/a	n/a	1
432.2370000000	n/a	432237	NovelVariableSOA	1716	n/a	n/a	1
433.9530000000	n/a	433953	FrequentVariableSOA	1750	n/a	n/a	1
435.7030000000	n/a	435703	FrequentVariableSOA	1500	n/a	n/a	1
437.2030000000	n/a	437203	FrequentVariableSOA	1650	n/a	n/a	1
438.8530000000	n/a	438853	FrequentVariableSOA	1550	n/a	n/a	1
440.4030000000	n/a	440403	NovelVariableSOA	1700	n/a	n/a	1
442.1030000000	n/a	442103	FrequentVariableSOA	1733	n/a	n/a	1
443.8370000000	n/a	443837	FrequentVariableSOA	1733	n/a	n/a	1
445.5700000000	n/a	445570	GoVariableSOA	368	n/a	n/a	1
447.2700000000	n/a	447270	FrequentVariableSOA	1616	n/a	n/a	1
448.8870000000	n/a	448887	FrequentVariableSOA	1500	n/a	n/a	1
450.3870000000	n/a	450387	FrequentVariableSOA	1783	n/a	n/a	1
452.1700000000	n/a	452170	FrequentVariableSOA	1666	n/a	n/a	1
453.8370000000	n/a	453837	NovelVariableSOA	1566	n/a	n/a	1
455.4030000000	n/a	455403	FrequentVariableSOA	1616	n/a	n/a	1
457.0200000000	n/a	457020	FrequentVariableSOA	1683	n/a	n/a	1
458.7030000000	n/a	458703	FrequentVariableSOA	1616	n/a	n/a	1
460.3200000000	n/a	460320	FrequentVariableSOA	1683	n/a	n/a	1
462.0030000000	n/a	462003	FrequentVariableSOA	1533	n/a	n/a	1
463.5370000000	n/a	463537	GoFixedSOA	406	n/a	n/a	1
465.1700000000	n/a	465170	FrequentFixedSOA	1633	n/a	n/a	1
466.8030000000	n/a	466803	FrequentFixedSOA	1633	n/a	n/a	1
468.4370000000	n/a	468437	FrequentFixedSOA	1633	n/a	n/a	1
470.0700000000	n/a	470070	FrequentFixedSOA	1633	n/a	n/a	1
471.7030000000	n/a	471703	FrequentFixedSOA	1633	n/a	n/a	1
473.3370000000	n/a	473337	FrequentFixedSOA	1633	n/a	n/a	1
474.9700000000	n/a	474970	NovelFixedSOA	1633	n/a	n/a	1
476.6030000000	n/a	476603	FrequentFixedSOA	1633	n/a	n/a	1
478.2370000000	n/a	478237	FrequentFixedSOA	1633	n/a	n/a	1
479.8700000000	n/a	479870	FrequentFixedSOA	1633	n/a	n/a	1
481.5030000000	n/a	481503	NovelFixedSOA	1633	n/a	n/a	1
483.1370000000	n/a	483137	FrequentFixedSOA	1633	n/a	n/a	1
484.7700000000	n/a	484770	GoFixedSOA	1633	n/a	n/a	0
486.4030000000	n/a	486403	FrequentFixedSOA	1633	n/a	n/a	1
488.0370000000	n/a	488037	FrequentFixedSOA	1633	n/a	n/a	1
489.6700000000	n/a	489670	GoFixedSOA	1633	n/a	n/a	0
491.3030000000	n/a	491303	FrequentFixedSOA	1633	n/a	n/a	1
492.9370000000	n/a	492937	NovelFixedSOA	1633	n/a	n/a	1
494.5700000000	n/a	494570	FrequentFixedSOA	1633	n/a	n/a	1
496.2030000000	n/a	496203	FrequentFixedSOA	1633	n/a	n/a	1
497.8370000000	n/a	497837	FrequentFixedSOA	1633	n/a	n/a	1
499.4700000000	n/a	499470	FrequentFixedSOA	1633	n/a	n/a	1
501.1030000000	n/a	501103	FrequentFixedSOA	1633	n/a	n/a	1
502.7370000000	n/a	502737	GoFixedSOA	388	n/a	n/a	1
504.3700000000	n/a	504370	FrequentFixedSOA	1633	n/a	n/a	1
506.0030000000	n/a	506003	FrequentFixedSOA	1633	n/a	n/a	1
507.6370000000	n/a	507637	NovelFixedSOA	1633	n/a	n/a	1
509.2700000000	n/a	509270	FrequentFixedSOA	1633	n/a	n/a	1
510.9030000000	n/a	510903	FrequentFixedSOA	1633	n/a	n/a	1
512.5370000000	n/a	512537	FrequentFixedSOA	1633	n/a	n/a	1
514.1700000000	n/a	514170	FrequentFixedSOA	1633	n/a	n/a	1
515.8030000000	n/a	515803	FrequentFixedSOA	1633	n/a	n/a	1
517.4360000000	n/a	517436	NovelFixedSOA	1633	n/a	n/a	1
519.0700000000	n/a	519070	FrequentFixedSOA	1633	n/a	n/a	1
520.7030000000	n/a	520703	FrequentFixedSOA	1633	n/a	n/a	1
522.3360000000	n/a	522336	FrequentFixedSOA	1633	n/a	n/a	1
523.9700000000	n/a	523970	FrequentFixedSOA	1633	n/a	n/a	1
525.6030000000	n/a	525603	GoFixedSOA	336	n/a	n/a	1
527.2360000000	n/a	527236	FrequentFixedSOA	1633	n/a	n/a	1
528.8700000000	n/a	528870	FrequentFixedSOA	1633	n/a	n/a	1
530.5030000000	n/a	530503	NovelFixedSOA	1633	n/a	n/a	1
532.1360000000	n/a	532136	FrequentFixedSOA	1633	n/a	n/a	1
533.7700000000	n/a	533770	FrequentFixedSOA	1633	n/a	n/a	1
535.4030000000	n/a	535403	NovelFixedSOA	1633	n/a	n/a	1
537.0360000000	n/a	537036	FrequentFixedSOA	1633	n/a	n/a	1
538.6700000000	n/a	538670	FrequentFixedSOA	1633	n/a	n/a	1
540.3030000000	n/a	540303	FrequentFixedSOA	1633	n/a	n/a	1
541.9360000000	n/a	541936	FrequentFixedSOA	1633	n/a	n/a	1
543.5700000000	n/a	543570	FrequentFixedSOA	1633	n/a	n/a	1
545.2030000000	n/a	545203	GoFixedSOA	575	n/a	n/a	1
546.8360000000	n/a	546836	FrequentFixedSOA	1633	n/a	n/a	1
548.4700000000	n/a	548470	FrequentFixedSOA	1633	n/a	n/a	1
550.1030000000	n/a	550103	FrequentFixedSOA	1633	n/a	n/a	1
551.7360000000	n/a	551736	FrequentFixedSOA	1633	n/a	n/a	1
553.3700000000	n/a	553370	FrequentFixedSOA	1633	n/a	n/a	1
555.0030000000	n/a	555003	NovelFixedSOA	1633	n/a	n/a	1
556.6360000000	n/a	556636	FrequentFixedSOA	1633	n/a	n/a	1
558.2700000000	n/a	558270	GoFixedSOA	1633	n/a	n/a	0
559.9030000000	n/a	559903	FrequentFixedSOA	1633	n/a	n/a	1
561.5360000000	n/a	561536	FrequentFixedSOA	1633	n/a	n/a	1
563.1700000000	n/a	563170	FrequentFixedSOA	1633	n/a	n/a	1
564.8030000000	n/a	564803	FrequentFixedSOA	1633	n/a	n/a	1
566.4360000000	n/a	566436	FrequentFixedSOA	1633	n/a	n/a	1
568.0700000000	n/a	568070	FrequentFixedSOA	1633	n/a	n/a	1
569.7030000000	n/a	569703	FrequentFixedSOA	1633	n/a	n/a	1
571.3360000000	n/a	571336	FrequentFixedSOA	1633	n/a	n/a	1
572.9700000000	n/a	572970	NovelFixedSOA	1633	n/a	n/a	1
574.6030000000	n/a	574603	FrequentFixedSOA	1633	n/a	n/a	1
576.2360000000	n/a	576236	FrequentFixedSOA	1633	n/a	n/a	1
577.8700000000	n/a	577870	GoVariableSOA	349	n/a	n/a	1
579.5700000000	n/a	579570	FrequentVariableSOA	1683	n/a	n/a	1
581.2530000000	n/a	581253	FrequentVariableSOA	1516	n/a	n/a	1
582.7700000000	n/a	582770	FrequentVariableSOA	1600	n/a	n/a	1
584.3700000000	n/a	584370	FrequentVariableSOA	1783	n/a	n/a	1
586.1530000000	n/a	586153	FrequentVariableSOA	1583	n/a	n/a	1
587.7360000000	n/a	587736	FrequentVariableSOA	1533	n/a	n/a	1
589.2700000000	n/a	589270	NovelVariableSOA	1566	n/a	n/a	1
590.8360000000	n/a	590836	FrequentVariableSOA	1700	n/a	n/a	1
592.5360000000	n/a	592536	FrequentVariableSOA	1766	n/a	n/a	1
594.3030000000	n/a	594303	FrequentVariableSOA	1716	n/a	n/a	1
596.0200000000	n/a	596020	NovelVariableSOA	1766	n/a	n/a	1
597.7860000000	n/a	597786	FrequentVariableSOA	1683	n/a	n/a	1
599.4700000000	n/a	599470	GoVariableSOA	336	n/a	n/a	1
601.1700000000	n/a	601170	FrequentVariableSOA	1700	n/a	n/a	1
602.8700000000	n/a	602870	FrequentVariableSOA	1533	n/a	n/a	1
604.4030000000	n/a	604403	GoVariableSOA	523	n/a	n/a	1
606.1200000000	n/a	606120	FrequentVariableSOA	1800	n/a	n/a	1
607.9200000000	n/a	607920	NovelVariableSOA	1650	n/a	n/a	1
609.5700000000	n/a	609570	FrequentVariableSOA	1566	n/a	n/a	1
611.1360000000	n/a	611136	FrequentVariableSOA	1516	n/a	n/a	1
612.6530000000	n/a	612653	FrequentVariableSOA	1550	n/a	n/a	1
614.2030000000	n/a	614203	FrequentVariableSOA	1750	n/a	n/a	1
615.9530000000	n/a	615953	FrequentVariableSOA	1516	n/a	n/a	1
617.4700000000	n/a	617470	GoVariableSOA	428	n/a	n/a	1
619.2200000000	n/a	619220	FrequentVariableSOA	1700	n/a	n/a	1
620.9200000000	n/a	620920	FrequentVariableSOA	1683	n/a	n/a	1
622.6030000000	n/a	622603	NovelVariableSOA	1650	n/a	n/a	1
624.2530000000	n/a	624253	FrequentVariableSOA	1600	n/a	n/a	1
625.8530000000	n/a	625853	FrequentVariableSOA	1683	n/a	n/a	1
627.5360000000	n/a	627536	FrequentVariableSOA	1783	n/a	n/a	1
629.3200000000	n/a	629320	FrequentVariableSOA	1600	n/a	n/a	1
630.9200000000	n/a	630920	FrequentVariableSOA	1766	n/a	n/a	1
632.6860000000	n/a	632686	NovelVariableSOA	1733	n/a	n/a	1
634.4200000000	n/a	634420	FrequentVariableSOA	1783	n/a	n/a	1
636.2030000000	n/a	636203	FrequentVariableSOA	1666	n/a	n/a	1
637.8700000000	n/a	637870	FrequentVariableSOA	1566	n/a	n/a	1
639.4360000000	n/a	639436	FrequentVariableSOA	1766	n/a	n/a	1
641.2030000000	n/a	641203	GoVariableSOA	448	n/a	n/a	1
642.7360000000	n/a	642736	FrequentVariableSOA	1766	n/a	n/a	1
644.5030000000	n/a	644503	FrequentVariableSOA	1500	n/a	n/a	1
646.0030000000	n/a	646003	NovelVariableSOA	1683	n/a	n/a	1
647.6860000000	n/a	647686	FrequentVariableSOA	1600	n/a	n/a	1
649.2860000000	n/a	649286	FrequentVariableSOA	1550	n/a	n/a	1
650.8360000000	n/a	650836	NovelVariableSOA	1616	n/a	n/a	1
652.4530000000	n/a	652453	FrequentVariableSOA	1783	n/a	n/a	1
654.2360000000	n/a	654236	FrequentVariableSOA	1600	n/a	n/a	1
655.8360000000	n/a	655836	FrequentVariableSOA	1533	n/a	n/a	1
657.3700000000	n/a	657370	FrequentVariableSOA	1750	n/a	n/a	1
659.1200000000	n/a	659120	FrequentVariableSOA	1550	n/a	n/a	1
660.6700000000	n/a	660670	GoVariableSOA	391	n/a	n/a	1
662.3030000000	n/a	662303	FrequentVariableSOA	1750	n/a	n/a	1
664.0530000000	n/a	664053	FrequentVariableSOA	1500	n/a	n/a	1
665.5530000000	n/a	665553	FrequentVariableSOA	1533	n/a	n/a	1
667.0860000000	n/a	667086	FrequentVariableSOA	1750	n/a	n/a	1
668.8360000000	n/a	668836	FrequentVariableSOA	1766	n/a	n/a	1
670.6030000000	n/a	670603	NovelVariableSOA	1766	n/a	n/a	1
672.3700000000	n/a	672370	FrequentVariableSOA	1700	n/a	n/a	1
674.0700000000	n/a	674070	GoVariableSOA	571	n/a	n/a	1
675.7530000000	n/a	675753	FrequentVariableSOA	1566	n/a	n/a	1
677.3200000000	n/a	677320	FrequentVariableSOA	1766	n/a	n/a	1
679.0860000000	n/a	679086	FrequentVariableSOA	1550	n/a	n/a	1
680.6360000000	n/a	680636	FrequentVariableSOA	1616	n/a	n/a	1
682.2530000000	n/a	682253	FrequentVariableSOA	1650	n/a	n/a	1
683.9030000000	n/a	683903	FrequentVariableSOA	1566	n/a	n/a	1
685.4700000000	n/a	685470	FrequentVariableSOA	1533	n/a	n/a	1
687.0030000000	n/a	687003	FrequentVariableSOA	1683	n/a	n/a	1
688.6860000000	n/a	688686	NovelVariableSOA	1683	n/a	n/a	1
690.3700000000	n/a	690370	FrequentVariableSOA	1600	n/a	n/a	1
691.9700000000	n/a	691970	FrequentVariableSOA	1766	n/a	n/a	1
693.7360000000	n/a	693736	GoFixedSOA	404	n/a	n/a	1
695.3700000000	n/a	695370	FrequentFixedSOA	1633	n/a	n/a	1
697.0030000000	n/a	697003	FrequentFixedSOA	1633	n/a	n/a	1
698.6360000000	n/a	698636	FrequentFixedSOA	1633	n/a	n/a	1
700.2700000000	n/a	700270	GoFixedSOA	354	n/a	n/a	1
701.9030000000	n/a	701903	FrequentFixedSOA	1633	n/a	n/a	1
703.5360000000	n/a	703536	FrequentFixedSOA	1633	n/a	n/a	1
705.1700000000	n/a	705170	FrequentFixedSOA	1633	n/a	n/a	1
706.8030000000	n/a	706803	FrequentFixedSOA	1633	n/a	n/a	1
708.4360000000	n/a	708436	GoFixedSOA	818	n/a	n/a	1
710.0700000000	n/a	710070	FrequentFixedSOA	1633	n/a	n/a	1
711.7030000000	n/a	711703	FrequentFixedSOA	1633	n/a	n/a	1
713.3360000000	n/a	713336	NovelFixedSOA	1633	n/a	n/a	1
714.9700000000	n/a	714970	FrequentFixedSOA	1633	n/a	n/a	1
716.6030000000	n/a	716603	FrequentFixedSOA	1633	n/a	n/a	1
718.2360000000	n/a	718236	GoFixedSOA	624	n/a	n/a	1
719.8700000000	n/a	719870	FrequentFixedSOA	1633	n/a	n/a	1
721.5030000000	n/a	721503	FrequentFixedSOA	1633	n/a	n/a	1
723.1360000000	n/a	723136	FrequentFixedSOA	1633	n/a	n/a	1
724.7700000000	n/a	724770	NovelFixedSOA	1633	n/a	n/a	1
726.4030000000	n/a	726403	FrequentFixedSOA	1633	n/a	n/a	1
728.0360000000	n/a	728036	NovelFixedSOA	1633	n/a	n/a	1
729.6690000000	n/a	729669	FrequentFixedSOA	1633	n/a	n/a	1
731.3030000000	n/a	731303	FrequentFixedSOA	1633	n/a	n/a	1
732.9360000000	n/a	732936	FrequentFixedSOA	1633	n/a	n/a	1
734.5690000000	n/a	734569	GoFixedSOA	397	n/a	n/a	1
736.2030000000	n/a	736203	FrequentFixedSOA	1633	n/a	n/a	1
737.8360000000	n/a	737836	FrequentFixedSOA	1633	n/a	n/a	1
739.4690000000	n/a	739469	FrequentFixedSOA	1633	n/a	n/a	1
741.1030000000	n/a	741103	GoFixedSOA	538	n/a	n/a	1
742.7360000000	n/a	742736	FrequentFixedSOA	1633	n/a	n/a	1
744.3690000000	n/a	744369	FrequentFixedSOA	1633	n/a	n/a	1
746.0030000000	n/a	746003	NovelFixedSOA	1633	n/a	n/a	1
747.6360000000	n/a	747636	FrequentFixedSOA	1633	n/a	n/a	1
749.2690000000	n/a	749269	GoFixedSOA	393	n/a	n/a	1
750.9030000000	n/a	750903	FrequentFixedSOA	1633	n/a	n/a	1
752.5360000000	n/a	752536	FrequentFixedSOA	1633	n/a	n/a	1
754.1690000000	n/a	754169	FrequentFixedSOA	1633	n/a	n/a	1
755.8030000000	n/a	755803	FrequentFixedSOA	1633	n/a	n/a	1
757.4360000000	n/a	757436	FrequentFixedSOA	1633	n/a	n/a	1
759.0690000000	n/a	759069	FrequentFixedSOA	1633	n/a	n/a	1
760.7030000000	n/a	760703	NovelFixedSOA	1633	n/a	n/a	1
762.3360000000	n/a	762336	FrequentFixedSOA	1633	n/a	n/a	1
763.9690000000	n/a	763969	FrequentFixedSOA	1633	n/a	n/a	1
765.6030000000	n/a	765603	FrequentFixedSOA	1633	n/a	n/a	1
767.2360000000	n/a	767236	GoFixedSOA	388	n/a	n/a	1
768.8690000000	n/a	768869	FrequentFixedSOA	1633	n/a	n/a	1
770.5030000000	n/a	770503	FrequentFixedSOA	1633	n/a	n/a	1
772.1360000000	n/a	772136	FrequentFixedSOA	1633	n/a	n/a	1
773.7690000000	n/a	773769	FrequentFixedSOA	1633	n/a	n/a	1
775.4030000000	n/a	775403	NovelFixedSOA	1633	n/a	n/a	1
777.0360000000	n/a	777036	FrequentFixedSOA	1633	n/a	n/a	1
778.6690000000	n/a	778669	FrequentFixedSOA	1633	n/a	n/a	1
780.3030000000	n/a	780303	NovelFixedSOA	1633	n/a	n/a	1
781.9360000000	n/a	781936	FrequentFixedSOA	1633	n/a	n/a	1
783.5690000000	n/a	783569	NovelFixedSOA	1633	n/a	n/a	1
785.2030000000	n/a	785203	FrequentFixedSOA	1633	n/a	n/a	1
786.8360000000	n/a	786836	FrequentFixedSOA	1633	n/a	n/a	1
788.4690000000	n/a	788469	FrequentFixedSOA	1633	n/a	n/a	1
790.1030000000	n/a	790103	FrequentFixedSOA	1633	n/a	n/a	1
791.7360000000	n/a	791736	FrequentFixedSOA	1633	n/a	n/a	1
793.3690000000	n/a	793369	FrequentFixedSOA	1633	n/a	n/a	1
795.0030000000	n/a	795003	FrequentFixedSOA	1633	n/a	n/a	1
796.6360000000	n/a	796636	GoFixedSOA	730	n/a	n/a	1
798.2690000000	n/a	798269	FrequentFixedSOA	1633	n/a	n/a	1
799.9030000000	n/a	799903	GoFixedSOA	446	n/a	n/a	1
801.5360000000	n/a	801536	FrequentFixedSOA	1633	n/a	n/a	1
803.1690000000	n/a	803169	FrequentFixedSOA	1633	n/a	n/a	1
804.8030000000	n/a	804803	NovelFixedSOA	1633	n/a	n/a	1
806.4360000000	n/a	806436	FrequentFixedSOA	1633	n/a	n/a	1
808.0690000000	n/a	808069	GoVariableSOA	715	n/a	n/a	1
809.8360000000	n/a	809836	FrequentVariableSOA	1550	n/a	n/a	1
811.3860000000	n/a	811386	FrequentVariableSOA	1533	n/a	n/a	1
812.9190000000	n/a	812919	FrequentVariableSOA	1533	n/a	n/a	1
814.4530000000	n/a	814453	GoVariableSOA	1500	n/a	n/a	0
815.9530000000	n/a	815953	FrequentVariableSOA	1566	n/a	n/a	1
817.5190000000	n/a	817519	FrequentVariableSOA	1750	n/a	n/a	1
819.2690000000	n/a	819269	FrequentVariableSOA	1683	n/a	n/a	1
820.9530000000	n/a	820953	FrequentVariableSOA	1783	n/a	n/a	1
822.7360000000	n/a	822736	GoVariableSOA	1766	n/a	n/a	0
824.5030000000	n/a	824503	FrequentVariableSOA	1666	n/a	n/a	1
826.1690000000	n/a	826169	FrequentVariableSOA	1650	n/a	n/a	1
827.8190000000	n/a	827819	NovelVariableSOA	1566	n/a	n/a	1
829.3860000000	n/a	829386	FrequentVariableSOA	1783	n/a	n/a	1
831.1690000000	n/a	831169	FrequentVariableSOA	1766	n/a	n/a	1
832.9360000000	n/a	832936	GoVariableSOA	503	n/a	n/a	1
834.6690000000	n/a	834669	FrequentVariableSOA	1733	n/a	n/a	1
836.4030000000	n/a	836403	FrequentVariableSOA	1566	n/a	n/a	1
837.9690000000	n/a	837969	FrequentVariableSOA	1716	n/a	n/a	1
839.6860000000	n/a	839686	NovelVariableSOA	1716	n/a	n/a	1
841.4030000000	n/a	841403	FrequentVariableSOA	1716	n/a	n/a	1
843.1190000000	n/a	843119	NovelVariableSOA	1533	n/a	n/a	1
844.6530000000	n/a	844653	FrequentVariableSOA	1516	n/a	n/a	1
846.1690000000	n/a	846169	FrequentVariableSOA	1733	n/a	n/a	1
847.9030000000	n/a	847903	FrequentVariableSOA	1766	n/a	n/a	1
849.6690000000	n/a	849669	GoVariableSOA	1716	n/a	n/a	0
851.3860000000	n/a	851386	FrequentVariableSOA	1666	n/a	n/a	1
853.0530000000	n/a	853053	FrequentVariableSOA	1616	n/a	n/a	1
854.6690000000	n/a	854669	FrequentVariableSOA	1766	n/a	n/a	1
856.4360000000	n/a	856436	GoVariableSOA	1600	n/a	n/a	0
858.0360000000	n/a	858036	FrequentVariableSOA	1766	n/a	n/a	1
859.8030000000	n/a	859803	FrequentVariableSOA	1750	n/a	n/a	1
861.5530000000	n/a	861553	NovelVariableSOA	1583	n/a	n/a	1
863.1360000000	n/a	863136	FrequentVariableSOA	1700	n/a	n/a	1
864.8360000000	n/a	864836	GoVariableSOA	1516	n/a	n/a	0
866.3530000000	n/a	866353	FrequentVariableSOA	1800	n/a	n/a	1
868.1530000000	n/a	868153	FrequentVariableSOA	1516	n/a	n/a	1
869.6690000000	n/a	869669	FrequentVariableSOA	1666	n/a	n/a	1
871.3360000000	n/a	871336	FrequentVariableSOA	1650	n/a	n/a	1
872.9860000000	n/a	872986	FrequentVariableSOA	1533	n/a	n/a	1
874.5190000000	n/a	874519	FrequentVariableSOA	1650	n/a	n/a	1
876.1690000000	n/a	876169	NovelVariableSOA	1766	n/a	n/a	1
877.9360000000	n/a	877936	FrequentVariableSOA	1750	n/a	n/a	1
879.6860000000	n/a	879686	FrequentVariableSOA	1750	n/a	n/a	1
881.4360000000	n/a	881436	FrequentVariableSOA	1700	n/a	n/a	1
883.1360000000	n/a	883136	GoVariableSOA	475	n/a	n/a	1
884.6360000000	n/a	884636	FrequentVariableSOA	1683	n/a	n/a	1
886.3190000000	n/a	886319	FrequentVariableSOA	1750	n/a	n/a	1
888.0690000000	n/a	888069	FrequentVariableSOA	1800	n/a	n/a	1
889.8690000000	n/a	889869	FrequentVariableSOA	1683	n/a	n/a	1
891.5530000000	n/a	891553	NovelVariableSOA	1533	n/a	n/a	1
893.0860000000	n/a	893086	FrequentVariableSOA	1500	n/a	n/a	1
894.5860000000	n/a	894586	FrequentVariableSOA	1783	n/a	n/a	1
896.3690000000	n/a	896369	NovelVariableSOA	1733	n/a	n/a	1
898.1030000000	n/a	898103	FrequentVariableSOA	1550	n/a	n/a	1
899.6530000000	n/a	899653	NovelVariableSOA	1666	n/a	n/a	1
901.3190000000	n/a	901319	FrequentVariableSOA	1600	n/a	n/a	1
902.9190000000	n/a	902919	FrequentVariableSOA	1716	n/a	n/a	1
904.6360000000	n/a	904636	FrequentVariableSOA	1683	n/a	n/a	1
906.3190000000	n/a	906319	FrequentVariableSOA	1616	n/a	n/a	1
907.9360000000	n/a	907936	FrequentVariableSOA	1733	n/a	n/a	1
909.6690000000	n/a	909669	FrequentVariableSOA	1750	n/a	n/a	1
911.4190000000	n/a	911419	FrequentVariableSOA	1516	n/a	n/a	1
912.9360000000	n/a	912936	GoVariableSOA	1650	n/a	n/a	0
914.5860000000	n/a	914586	FrequentVariableSOA	1783	n/a	n/a	1
916.3690000000	n/a	916369	GoVariableSOA	1716	n/a	n/a	0
918.0860000000	n/a	918086	FrequentVariableSOA	1550	n/a	n/a	1
919.6360000000	n/a	919636	FrequentVariableSOA	1750	n/a	n/a	1
921.3860000000	n/a	921386	NovelVariableSOA	1766	n/a	n/a	1
923.1530000000	n/a	923153	FrequentVariableSOA	1766	n/a	n/a	1
