onset	duration	sample	trial_type	response_time	stim_file	value	correct
9.1170000000	n/a	9117	ignore	n/a	n/a	n/a	n/a
12.2170000000	n/a	12217	ignore	n/a	n/a	n/a	n/a
15.2220000000	n/a	15222	ignore	n/a	n/a	n/a	n/a
32.8500000000	n/a	32850	ignore	n/a	n/a	n/a	n/a
35.9500000000	n/a	35950	ignore	n/a	n/a	n/a	n/a
38.9370000000	n/a	38937	ignore	n/a	n/a	n/a	n/a
55.3670000000	n/a	55367	PosStim	n/a	n/a	n/a	n/a
58.4000000000	n/a	58400	PosNonAlcStimWithoutStartle	n/a	n/a	n/a	n/a
73.7330000000	n/a	73733	NegStim	n/a	n/a	n/a	n/a
76.7670000000	n/a	76767	NegNonAlcStimWithoutStartle	n/a	n/a	n/a	n/a
92.2830000000	n/a	92283	NeuStim	n/a	n/a	n/a	n/a
95.3830000000	n/a	95383	NeuNonAlcP2000	n/a	n/a	n/a	n/a
99.3700000000	n/a	99370	NeuNonAlcP2000	n/a	n/a	n/a	n/a
109.9160000000	n/a	109916	NegStim	n/a	n/a	n/a	n/a
113.0160000000	n/a	113016	NegAlcP2000	n/a	n/a	n/a	n/a
117.0030000000	n/a	117003	NegAlcP2000	n/a	n/a	n/a	n/a
128.9830000000	n/a	128983	NeuStim	n/a	n/a	n/a	n/a
132.0160000000	n/a	132016	NeuAlcStimWithoutStartle	n/a	n/a	n/a	n/a
147.2160000000	n/a	147216	PosStim	n/a	n/a	n/a	n/a
150.3160000000	n/a	150316	PosAlcP1000	n/a	n/a	n/a	n/a
155.3030000000	n/a	155303	PosAlcP1000	n/a	n/a	n/a	n/a
166.4500000000	n/a	166450	NeuStim	n/a	n/a	n/a	n/a
169.5500000000	n/a	169550	NeuAlcP2000	n/a	n/a	n/a	n/a
173.5370000000	n/a	173537	NeuAlcP2000	n/a	n/a	n/a	n/a
184.7000000000	n/a	184700	NegStim	n/a	n/a	n/a	n/a
187.8000000000	n/a	187800	NegAlcP3000	n/a	n/a	n/a	n/a
190.7870000000	n/a	190787	NegAlcP3000	n/a	n/a	n/a	n/a
201.2830000000	n/a	201283	PosStim	n/a	n/a	n/a	n/a
204.3160000000	n/a	204316	PosNonAlcStimWithoutStartle	n/a	n/a	n/a	n/a
220.7160000000	n/a	220716	NeuStim	n/a	n/a	n/a	n/a
223.8160000000	n/a	223816	NeuAlcP1000	n/a	n/a	n/a	n/a
228.8030000000	n/a	228803	NeuAlcP1000	n/a	n/a	n/a	n/a
239.4500000000	n/a	239450	NegStim	n/a	n/a	n/a	n/a
242.5500000000	n/a	242550	NegNonAlcP3000	n/a	n/a	n/a	n/a
245.5370000000	n/a	245537	NegNonAlcP3000	n/a	n/a	n/a	n/a
257.2330000000	n/a	257233	PosStim	n/a	n/a	n/a	n/a
260.3330000000	n/a	260333	PosAlcP2000	n/a	n/a	n/a	n/a
264.3200000000	n/a	264320	PosAlcP2000	n/a	n/a	n/a	n/a
275.4500000000	n/a	275450	NegStim	n/a	n/a	n/a	n/a
278.4830000000	n/a	278483	NegNonAlcStimWithoutStartle	n/a	n/a	n/a	n/a
294.3490000000	n/a	294349	PosStim	n/a	n/a	n/a	n/a
297.3830000000	n/a	297383	PosAlcStimWithoutStartle	n/a	n/a	n/a	n/a
314.3160000000	n/a	314316	NeuStim	n/a	n/a	n/a	n/a
317.4160000000	n/a	317416	NeuNonAlcP3000	n/a	n/a	n/a	n/a
320.4030000000	n/a	320403	NeuNonAlcP3000	n/a	n/a	n/a	n/a
334.2330000000	n/a	334233	NegStim	n/a	n/a	n/a	n/a
337.3330000000	n/a	337333	NegAlcP1000	n/a	n/a	n/a	n/a
342.3200000000	n/a	342320	NegAlcP1000	n/a	n/a	n/a	n/a
351.7990000000	n/a	351799	NeuStim	n/a	n/a	n/a	n/a
354.8990000000	n/a	354899	NeuAlcP3000	n/a	n/a	n/a	n/a
357.8860000000	n/a	357886	NeuAlcP3000	n/a	n/a	n/a	n/a
371.7160000000	n/a	371716	PosStim	n/a	n/a	n/a	n/a
374.8160000000	n/a	374816	PosAlcP3000	n/a	n/a	n/a	n/a
377.8030000000	n/a	377803	PosAlcP3000	n/a	n/a	n/a	n/a
391.5990000000	n/a	391599	NeuStim	n/a	n/a	n/a	n/a
394.6330000000	n/a	394633	NeuAlcStimWithoutStartle	n/a	n/a	n/a	n/a
409.6490000000	n/a	409649	NegStim	n/a	n/a	n/a	n/a
412.7490000000	n/a	412749	NegAlcP1000	n/a	n/a	n/a	n/a
417.7360000000	n/a	417736	NegAlcP1000	n/a	n/a	n/a	n/a
426.9990000000	n/a	426999	NeuStim	n/a	n/a	n/a	n/a
430.0990000000	n/a	430099	NeuNonAlcP3000	n/a	n/a	n/a	n/a
433.0860000000	n/a	433086	NeuNonAlcP3000	n/a	n/a	n/a	n/a
445.4660000000	n/a	445466	NegStim	n/a	n/a	n/a	n/a
448.5660000000	n/a	448566	NegNonAlcP2000	n/a	n/a	n/a	n/a
452.5530000000	n/a	452553	NegNonAlcP2000	n/a	n/a	n/a	n/a
463.9990000000	n/a	463999	PosStim	n/a	n/a	n/a	n/a
467.0330000000	n/a	467033	PosNonAlcStimWithoutStartle	n/a	n/a	n/a	n/a
482.6660000000	n/a	482666	NeuStim	n/a	n/a	n/a	n/a
485.6990000000	n/a	485699	NeuNonAlcStimWithoutStartle	n/a	n/a	n/a	n/a
501.4990000000	n/a	501499	PosStim	n/a	n/a	n/a	n/a
504.5990000000	n/a	504599	PosNonAlcP1000	n/a	n/a	n/a	n/a
509.5860000000	n/a	509586	PosNonAlcP1000	n/a	n/a	n/a	n/a
521.4490000000	n/a	521449	NegStim	n/a	n/a	n/a	n/a
524.4820000000	n/a	524482	NegAlcStimWithoutStartle	n/a	n/a	n/a	n/a
539.7490000000	n/a	539749	NeuStim	n/a	n/a	n/a	n/a
542.8490000000	n/a	542849	NeuAlcP2000	n/a	n/a	n/a	n/a
546.8360000000	n/a	546836	NeuAlcP2000	n/a	n/a	n/a	n/a
557.8320000000	n/a	557832	PosStim	n/a	n/a	n/a	n/a
560.9320000000	n/a	560932	PosNonAlcP1000	n/a	n/a	n/a	n/a
565.9190000000	n/a	565919	PosNonAlcP1000	n/a	n/a	n/a	n/a
574.9320000000	n/a	574932	NeuStim	n/a	n/a	n/a	n/a
578.0320000000	n/a	578032	NeuNonAlcP1000	n/a	n/a	n/a	n/a
583.0190000000	n/a	583019	NeuNonAlcP1000	n/a	n/a	n/a	n/a
593.3990000000	n/a	593399	PosStim	n/a	n/a	n/a	n/a
596.4320000000	n/a	596432	PosNonAlcStimWithoutStartle	n/a	n/a	n/a	n/a
612.3320000000	n/a	612332	NegStim	n/a	n/a	n/a	n/a
615.4320000000	n/a	615432	NegAlcP2000	n/a	n/a	n/a	n/a
619.4190000000	n/a	619419	NegAlcP2000	n/a	n/a	n/a	n/a
629.7820000000	n/a	629782	NeuStim	n/a	n/a	n/a	n/a
632.8820000000	n/a	632882	NeuAlcP3000	n/a	n/a	n/a	n/a
635.8690000000	n/a	635869	NeuAlcP3000	n/a	n/a	n/a	n/a
647.4820000000	n/a	647482	NegStim	n/a	n/a	n/a	n/a
650.5160000000	n/a	650516	NegAlcStimWithoutStartle	n/a	n/a	n/a	n/a
664.5990000000	n/a	664599	NeuStim	n/a	n/a	n/a	n/a
667.6990000000	n/a	667699	NeuNonAlcP2000	n/a	n/a	n/a	n/a
671.6860000000	n/a	671686	NeuNonAlcP2000	n/a	n/a	n/a	n/a
683.8150000000	n/a	683815	PosStim	n/a	n/a	n/a	n/a
686.9150000000	n/a	686915	PosNonAlcP3000	n/a	n/a	n/a	n/a
689.9020000000	n/a	689902	PosNonAlcP3000	n/a	n/a	n/a	n/a
701.4820000000	n/a	701482	NegStim	n/a	n/a	n/a	n/a
704.5820000000	n/a	704582	NegAlcP3000	n/a	n/a	n/a	n/a
707.5690000000	n/a	707569	NegAlcP3000	n/a	n/a	n/a	n/a
718.0820000000	n/a	718082	PosStim	n/a	n/a	n/a	n/a
721.1150000000	n/a	721115	PosAlcStimWithoutStartle	n/a	n/a	n/a	n/a
737.4650000000	n/a	737465	NegStim	n/a	n/a	n/a	n/a
740.5650000000	n/a	740565	NegAlcP1000	n/a	n/a	n/a	n/a
745.5520000000	n/a	745552	NegAlcP1000	n/a	n/a	n/a	n/a
755.4650000000	n/a	755465	PosStim	n/a	n/a	n/a	n/a
758.4990000000	n/a	758499	PosAlcStimWithoutStartle	n/a	n/a	n/a	n/a
771.9820000000	n/a	771982	NegStim	n/a	n/a	n/a	n/a
775.0820000000	n/a	775082	NegNonAlcP2000	n/a	n/a	n/a	n/a
779.0690000000	n/a	779069	NegNonAlcP2000	n/a	n/a	n/a	n/a
789.6650000000	n/a	789665	PosStim	n/a	n/a	n/a	n/a
792.7650000000	n/a	792765	PosAlcP2000	n/a	n/a	n/a	n/a
796.7520000000	n/a	796752	PosAlcP2000	n/a	n/a	n/a	n/a
809.2990000000	n/a	809299	NeuStim	n/a	n/a	n/a	n/a
812.3320000000	n/a	812332	NeuNonAlcStimWithoutStartle	n/a	n/a	n/a	n/a
825.8990000000	n/a	825899	PosStim	n/a	n/a	n/a	n/a
828.9990000000	n/a	828999	PosNonAlcP2000	n/a	n/a	n/a	n/a
832.9860000000	n/a	832986	PosNonAlcP2000	n/a	n/a	n/a	n/a
845.2150000000	n/a	845215	NegStim	n/a	n/a	n/a	n/a
848.2490000000	n/a	848249	NegAlcStimWithoutStartle	n/a	n/a	n/a	n/a
861.6820000000	n/a	861682	PosStim	n/a	n/a	n/a	n/a
864.7820000000	n/a	864782	PosAlcP3000	n/a	n/a	n/a	n/a
867.7690000000	n/a	867769	PosAlcP3000	n/a	n/a	n/a	n/a
881.7320000000	n/a	881732	PosStim	n/a	n/a	n/a	n/a
884.8320000000	n/a	884832	PosNonAlcP3000	n/a	n/a	n/a	n/a
887.8190000000	n/a	887819	PosNonAlcP3000	n/a	n/a	n/a	n/a
899.9320000000	n/a	899932	NeuStim	n/a	n/a	n/a	n/a
902.9650000000	n/a	902965	NeuNonAlcStimWithoutStartle	n/a	n/a	n/a	n/a
916.5480000000	n/a	916548	NeuStim	n/a	n/a	n/a	n/a
919.6480000000	n/a	919648	NeuNonAlcP3000	n/a	n/a	n/a	n/a
922.6350000000	n/a	922635	NeuNonAlcP3000	n/a	n/a	n/a	n/a
936.0320000000	n/a	936032	PosStim	n/a	n/a	n/a	n/a
939.1320000000	n/a	939132	PosAlcP2000	n/a	n/a	n/a	n/a
943.1190000000	n/a	943119	PosAlcP2000	n/a	n/a	n/a	n/a
955.1650000000	n/a	955165	NegStim	n/a	n/a	n/a	n/a
958.2650000000	n/a	958265	NegAlcP1000	n/a	n/a	n/a	n/a
963.2520000000	n/a	963252	NegAlcP1000	n/a	n/a	n/a	n/a
972.9480000000	n/a	972948	PosStim	n/a	n/a	n/a	n/a
976.0480000000	n/a	976048	PosNonAlcP2000	n/a	n/a	n/a	n/a
980.0350000000	n/a	980035	PosNonAlcP2000	n/a	n/a	n/a	n/a
990.8820000000	n/a	990882	NeuStim	n/a	n/a	n/a	n/a
993.9150000000	n/a	993915	NeuNonAlcStimWithoutStartle	n/a	n/a	n/a	n/a
1007.2150000000	n/a	1007215	NegStim	n/a	n/a	n/a	n/a
1010.3150000000	n/a	1010315	NegAlcP2000	n/a	n/a	n/a	n/a
1014.3020000000	n/a	1014302	NegAlcP2000	n/a	n/a	n/a	n/a
1023.9320000000	n/a	1023932	PosStim	n/a	n/a	n/a	n/a
1027.0320000000	n/a	1027032	PosAlcP3000	n/a	n/a	n/a	n/a
1030.0190000000	n/a	1030019	PosAlcP3000	n/a	n/a	n/a	n/a
1041.0150000000	n/a	1041015	NeuStim	n/a	n/a	n/a	n/a
1044.0480000000	n/a	1044048	NeuAlcStimWithoutStartle	n/a	n/a	n/a	n/a
1057.4820000000	n/a	1057482	NegStim	n/a	n/a	n/a	n/a
1060.5820000000	n/a	1060582	NegNonAlcP3000	n/a	n/a	n/a	n/a
1063.5690000000	n/a	1063569	NegNonAlcP3000	n/a	n/a	n/a	n/a
