onset	duration	sample	trial_type	response_time	stim_file	value	correct
4.2200000000	n/a	4220	FreqFixedSOA	1633	n/a	n/a	1
5.8530000000	n/a	5853	FreqFixedSOA	1633	n/a	n/a	1
7.4870000000	n/a	7487	FreqFixedSOA	1633	n/a	n/a	1
9.1200000000	n/a	9120	FreqFixedSOA	1633	n/a	n/a	1
10.7530000000	n/a	10753	FreqFixedSOA	1633	n/a	n/a	1
12.3870000000	n/a	12387	FreqFixedSOA	1633	n/a	n/a	1
14.0200000000	n/a	14020	FreqFixedSOA	1633	n/a	n/a	1
15.6530000000	n/a	15653	FreqFixedSOA	1633	n/a	n/a	1
17.2870000000	n/a	17287	FreqFixedSOA	1633	n/a	n/a	1
18.9200000000	n/a	18920	FreqFixedSOA	1633	n/a	n/a	1
20.5530000000	n/a	20553	FreqFixedSOA	1633	n/a	n/a	1
22.1870000000	n/a	22187	FreqFixedSOA	1633	n/a	n/a	1
23.8200000000	n/a	23820	NovelFixedSOA	1633	n/a	n/a	1
25.4530000000	n/a	25453	FreqFixedSOA	1633	n/a	n/a	1
27.0870000000	n/a	27087	GoFixedSOA	531	n/a	n/a	1
28.7200000000	n/a	28720	FreqFixedSOA	1633	n/a	n/a	1
30.3530000000	n/a	30353	GoFixedSOA	433	n/a	n/a	1
31.9870000000	n/a	31987	FreqFixedSOA	1633	n/a	n/a	1
33.6200000000	n/a	33620	FreqFixedSOA	1633	n/a	n/a	1
35.2530000000	n/a	35253	FreqFixedSOA	1633	n/a	n/a	1
36.8870000000	n/a	36887	NovelFixedSOA	1633	n/a	n/a	1
38.5200000000	n/a	38520	FreqFixedSOA	1633	n/a	n/a	1
40.1530000000	n/a	40153	FreqFixedSOA	1633	n/a	n/a	1
41.7870000000	n/a	41787	FreqFixedSOA	1633	n/a	n/a	1
43.4200000000	n/a	43420	GoFixedSOA	432	n/a	n/a	1
45.0530000000	n/a	45053	FreqFixedSOA	1633	n/a	n/a	1
46.6870000000	n/a	46687	NovelFixedSOA	1633	n/a	n/a	1
48.3200000000	n/a	48320	FreqFixedSOA	1633	n/a	n/a	1
49.9530000000	n/a	49953	FreqFixedSOA	1633	n/a	n/a	1
51.5870000000	n/a	51587	FreqFixedSOA	1633	n/a	n/a	1
53.2200000000	n/a	53220	GoFixedSOA	638	n/a	n/a	1
54.8530000000	n/a	54853	FreqFixedSOA	1633	n/a	n/a	1
56.4870000000	n/a	56487	GoFixedSOA	539	n/a	n/a	1
58.1200000000	n/a	58120	FreqFixedSOA	1633	n/a	n/a	1
59.7530000000	n/a	59753	FreqFixedSOA	1633	n/a	n/a	1
61.3870000000	n/a	61387	GoFixedSOA	401	n/a	n/a	1
63.0200000000	n/a	63020	FreqFixedSOA	1633	n/a	n/a	1
64.6530000000	n/a	64653	FreqFixedSOA	1633	n/a	n/a	1
66.2870000000	n/a	66287	FreqFixedSOA	1633	n/a	n/a	1
67.9200000000	n/a	67920	FreqFixedSOA	1633	n/a	n/a	1
69.5530000000	n/a	69553	NovelFixedSOA	1633	n/a	n/a	1
71.1870000000	n/a	71187	FreqFixedSOA	1633	n/a	n/a	1
72.8200000000	n/a	72820	NovelFixedSOA	1633	n/a	n/a	1
74.4530000000	n/a	74453	FreqFixedSOA	1633	n/a	n/a	1
76.0870000000	n/a	76087	FreqFixedSOA	1633	n/a	n/a	1
77.7200000000	n/a	77720	GoFixedSOA	378	n/a	n/a	1
79.3530000000	n/a	79353	FreqFixedSOA	1633	n/a	n/a	1
80.9870000000	n/a	80987	FreqFixedSOA	1633	n/a	n/a	1
82.6200000000	n/a	82620	FreqFixedSOA	1633	n/a	n/a	1
84.2530000000	n/a	84253	FreqFixedSOA	1633	n/a	n/a	1
85.8870000000	n/a	85887	NovelFixedSOA	1633	n/a	n/a	1
87.5200000000	n/a	87520	FreqFixedSOA	1633	n/a	n/a	1
89.1530000000	n/a	89153	FreqFixedSOA	1633	n/a	n/a	1
90.7870000000	n/a	90787	FreqFixedSOA	1633	n/a	n/a	1
92.4200000000	n/a	92420	FreqFixedSOA	1633	n/a	n/a	1
94.0530000000	n/a	94053	GoFixedSOA	415	n/a	n/a	1
95.6870000000	n/a	95687	FreqFixedSOA	1633	n/a	n/a	1
97.3200000000	n/a	97320	FreqFixedSOA	1633	n/a	n/a	1
98.9530000000	n/a	98953	NovelFixedSOA	1633	n/a	n/a	1
100.5870000000	n/a	100587	FreqFixedSOA	1633	n/a	n/a	1
102.2200000000	n/a	102220	FreqFixedSOA	1633	n/a	n/a	1
103.8530000000	n/a	103853	GoFixedSOA	359	n/a	n/a	1
105.4870000000	n/a	105487	FreqFixedSOA	1633	n/a	n/a	1
107.1200000000	n/a	107120	FreqFixedSOA	1633	n/a	n/a	1
108.7530000000	n/a	108753	FreqFixedSOA	1633	n/a	n/a	1
110.3870000000	n/a	110387	FreqFixedSOA	1633	n/a	n/a	1
112.0200000000	n/a	112020	NovelFixedSOA	1633	n/a	n/a	1
113.6530000000	n/a	113653	FreqFixedSOA	1633	n/a	n/a	1
115.2870000000	n/a	115287	FreqFixedSOA	1633	n/a	n/a	1
116.9200000000	n/a	116920	GoFixedSOA	379	n/a	n/a	1
118.5530000000	n/a	118553	FreqFixedSOA	1633	n/a	n/a	1
120.1870000000	n/a	120187	FreqFixedSOA	1633	n/a	n/a	1
121.8200000000	n/a	121820	FreqFixedSOA	1633	n/a	n/a	1
123.4530000000	n/a	123453	GoFixedSOA	589	n/a	n/a	1
125.0870000000	n/a	125087	FreqFixedSOA	1633	n/a	n/a	1
126.7200000000	n/a	126720	FreqFixedSOA	1633	n/a	n/a	1
128.3530000000	n/a	128353	FreqFixedSOA	1633	n/a	n/a	1
129.9870000000	n/a	129987	GoFixedSOA	450	n/a	n/a	1
131.6200000000	n/a	131620	FreqFixedSOA	1633	n/a	n/a	1
133.2530000000	n/a	133253	FreqFixedSOA	1633	n/a	n/a	1
134.8870000000	n/a	134887	FreqFixedSOA	1633	n/a	n/a	1
136.5200000000	n/a	136520	NovelFixedSOA	1633	n/a	n/a	1
138.1530000000	n/a	138153	FreqFixedSOA	1633	n/a	n/a	1
139.7870000000	n/a	139787	NovelFixedSOA	1633	n/a	n/a	1
141.4200000000	n/a	141420	FreqFixedSOA	1633	n/a	n/a	1
143.0530000000	n/a	143053	FreqFixedSOA	1633	n/a	n/a	1
144.6870000000	n/a	144687	NovelFixedSOA	1633	n/a	n/a	1
146.3200000000	n/a	146320	FreqFixedSOA	1633	n/a	n/a	1
147.9530000000	n/a	147953	FreqFixedSOA	1633	n/a	n/a	1
149.5870000000	n/a	149587	FreqFixedSOA	1633	n/a	n/a	1
151.2200000000	n/a	151220	FreqFixedSOA	1633	n/a	n/a	1
152.8530000000	n/a	152853	FreqFixedSOA	1633	n/a	n/a	1
154.4870000000	n/a	154487	NovelFixedSOA	1633	n/a	n/a	1
156.1200000000	n/a	156120	FreqFixedSOA	1633	n/a	n/a	1
157.7530000000	n/a	157753	FreqFixedSOA	1633	n/a	n/a	1
159.3870000000	n/a	159387	FreqFixedSOA	1633	n/a	n/a	1
161.0200000000	n/a	161020	FreqFixedSOA	1633	n/a	n/a	1
162.6530000000	n/a	162653	FreqFixedSOA	1633	n/a	n/a	1
164.2870000000	n/a	164287	GoFixedSOA	369	n/a	n/a	1
165.9200000000	n/a	165920	FreqFixedSOA	1633	n/a	n/a	1
167.5530000000	n/a	167553	FreqFixedSOA	1633	n/a	n/a	1
169.1870000000	n/a	169187	GoFixedSOA	537	n/a	n/a	1
170.8200000000	n/a	170820	FreqFixedSOA	1633	n/a	n/a	1
172.4530000000	n/a	172453	NovelFixedSOA	1633	n/a	n/a	1
174.0870000000	n/a	174087	FreqFixedSOA	1633	n/a	n/a	1
175.7200000000	n/a	175720	GoFixedSOA	822	n/a	n/a	1
177.3530000000	n/a	177353	FreqFixedSOA	1633	n/a	n/a	1
178.9870000000	n/a	178987	GoFixedSOA	393	n/a	n/a	1
180.6200000000	n/a	180620	FreqFixedSOA	1633	n/a	n/a	1
182.2530000000	n/a	182253	FreqFixedSOA	1633	n/a	n/a	1
183.8870000000	n/a	183887	FreqFixedSOA	1633	n/a	n/a	1
185.5200000000	n/a	185520	FreqFixedSOA	1633	n/a	n/a	1
187.1530000000	n/a	187153	GoFixedSOA	414	n/a	n/a	1
188.7870000000	n/a	188787	FreqFixedSOA	1633	n/a	n/a	1
190.4200000000	n/a	190420	FreqFixedSOA	1633	n/a	n/a	1
192.0530000000	n/a	192053	FreqFixedSOA	1633	n/a	n/a	1
193.6870000000	n/a	193687	NovelFixedSOA	1633	n/a	n/a	1
195.3200000000	n/a	195320	FreqFixedSOA	1633	n/a	n/a	1
196.9530000000	n/a	196953	FreqFixedSOA	1633	n/a	n/a	1
198.5870000000	n/a	198587	FreqFixedSOA	1633	n/a	n/a	1
200.2200000000	n/a	200220	FreqFixedSOA	1633	n/a	n/a	1
201.8530000000	n/a	201853	NovelFixedSOA	1633	n/a	n/a	1
203.4870000000	n/a	203487	FreqFixedSOA	1633	n/a	n/a	1
205.1200000000	n/a	205120	FreqFixedSOA	1633	n/a	n/a	1
206.7530000000	n/a	206753	FreqFixedSOA	1633	n/a	n/a	1
208.3870000000	n/a	208387	FreqFixedSOA	1633	n/a	n/a	1
210.0200000000	n/a	210020	NovelFixedSOA	1633	n/a	n/a	1
211.6530000000	n/a	211653	FreqFixedSOA	1633	n/a	n/a	1
213.2870000000	n/a	213287	FreqFixedSOA	1633	n/a	n/a	1
214.9200000000	n/a	214920	GoFixedSOA	579	n/a	n/a	1
216.5530000000	n/a	216553	FreqFixedSOA	1633	n/a	n/a	1
218.1870000000	n/a	218187	FreqFixedSOA	1633	n/a	n/a	1
219.8200000000	n/a	219820	FreqFixedSOA	1633	n/a	n/a	1
221.4530000000	n/a	221453	FreqFixedSOA	1633	n/a	n/a	1
223.0860000000	n/a	223086	NovelFixedSOA	1633	n/a	n/a	1
224.7200000000	n/a	224720	FreqFixedSOA	1633	n/a	n/a	1
226.3530000000	n/a	226353	FreqFixedSOA	1633	n/a	n/a	1
227.9860000000	n/a	227986	FreqFixedSOA	1633	n/a	n/a	1
229.6200000000	n/a	229620	FreqFixedSOA	1633	n/a	n/a	1
231.2530000000	n/a	231253	FreqFixedSOA	1633	n/a	n/a	1
232.8860000000	n/a	232886	GoFixedSOA	339	n/a	n/a	1
234.5200000000	n/a	234520	FreqFixedSOA	1633	n/a	n/a	1
236.1530000000	n/a	236153	FreqFixedSOA	1633	n/a	n/a	1
237.7860000000	n/a	237786	FreqFixedSOA	1633	n/a	n/a	1
239.4200000000	n/a	239420	FreqFixedSOA	1633	n/a	n/a	1
241.0530000000	n/a	241053	FreqFixedSOA	1633	n/a	n/a	1
242.6860000000	n/a	242686	FreqFixedSOA	1633	n/a	n/a	1
244.3200000000	n/a	244320	NovelFixedSOA	1633	n/a	n/a	1
245.9530000000	n/a	245953	FreqFixedSOA	1633	n/a	n/a	1
247.5860000000	n/a	247586	FreqFixedSOA	1633	n/a	n/a	1
249.2200000000	n/a	249220	FreqFixedSOA	1633	n/a	n/a	1
250.8530000000	n/a	250853	NovelFixedSOA	1633	n/a	n/a	1
252.4860000000	n/a	252486	FreqFixedSOA	1633	n/a	n/a	1
254.1200000000	n/a	254120	GoFixedSOA	424	n/a	n/a	1
255.7530000000	n/a	255753	FreqFixedSOA	1633	n/a	n/a	1
257.3860000000	n/a	257386	FreqFixedSOA	1633	n/a	n/a	1
259.0200000000	n/a	259020	GoFixedSOA	521	n/a	n/a	1
260.6530000000	n/a	260653	FreqFixedSOA	1633	n/a	n/a	1
262.2860000000	n/a	262286	NovelFixedSOA	1633	n/a	n/a	1
263.9200000000	n/a	263920	FreqFixedSOA	1633	n/a	n/a	1
265.5530000000	n/a	265553	FreqFixedSOA	1633	n/a	n/a	1
267.1860000000	n/a	267186	FreqFixedSOA	1633	n/a	n/a	1
268.8200000000	n/a	268820	FreqFixedSOA	1633	n/a	n/a	1
270.4530000000	n/a	270453	FreqFixedSOA	1633	n/a	n/a	1
272.0860000000	n/a	272086	GoFixedSOA	318	n/a	n/a	1
273.7200000000	n/a	273720	FreqFixedSOA	1633	n/a	n/a	1
275.3530000000	n/a	275353	FreqFixedSOA	1633	n/a	n/a	1
276.9860000000	n/a	276986	NovelFixedSOA	1633	n/a	n/a	1
278.6200000000	n/a	278620	FreqFixedSOA	1633	n/a	n/a	1
280.2530000000	n/a	280253	FreqFixedSOA	1633	n/a	n/a	1
281.8860000000	n/a	281886	FreqFixedSOA	1633	n/a	n/a	1
283.5200000000	n/a	283520	FreqFixedSOA	1633	n/a	n/a	1
285.1530000000	n/a	285153	FreqFixedSOA	1633	n/a	n/a	1
286.7860000000	n/a	286786	NovelFixedSOA	1633	n/a	n/a	1
288.4200000000	n/a	288420	FreqFixedSOA	1633	n/a	n/a	1
290.0530000000	n/a	290053	FreqFixedSOA	1633	n/a	n/a	1
291.6860000000	n/a	291686	FreqFixedSOA	1633	n/a	n/a	1
293.3200000000	n/a	293320	FreqFixedSOA	1633	n/a	n/a	1
294.9530000000	n/a	294953	FreqFixedSOA	1633	n/a	n/a	1
296.5860000000	n/a	296586	FreqFixedSOA	1633	n/a	n/a	1
298.2200000000	n/a	298220	NovelFixedSOA	1633	n/a	n/a	1
299.8530000000	n/a	299853	FreqFixedSOA	1633	n/a	n/a	1
301.4860000000	n/a	301486	FreqFixedSOA	1633	n/a	n/a	1
303.1200000000	n/a	303120	NovelFixedSOA	1633	n/a	n/a	1
304.7530000000	n/a	304753	FreqFixedSOA	1633	n/a	n/a	1
306.3860000000	n/a	306386	FreqFixedSOA	1633	n/a	n/a	1
308.0200000000	n/a	308020	FreqFixedSOA	1633	n/a	n/a	1
309.6530000000	n/a	309653	FreqFixedSOA	1633	n/a	n/a	1
311.2860000000	n/a	311286	FreqFixedSOA	1633	n/a	n/a	1
312.9200000000	n/a	312920	GoFixedSOA	436	n/a	n/a	1
314.5530000000	n/a	314553	FreqFixedSOA	1633	n/a	n/a	1
316.1860000000	n/a	316186	FreqFixedSOA	1633	n/a	n/a	1
317.8200000000	n/a	317820	FreqFixedSOA	1633	n/a	n/a	1
319.4530000000	n/a	319453	FreqFixedSOA	1633	n/a	n/a	1
321.0860000000	n/a	321086	FreqFixedSOA	1633	n/a	n/a	1
322.7200000000	n/a	322720	NovelFixedSOA	1633	n/a	n/a	1
324.3530000000	n/a	324353	FreqFixedSOA	1633	n/a	n/a	1
325.9860000000	n/a	325986	GoFixedSOA	1633	n/a	n/a	0
327.6200000000	n/a	327620	FreqFixedSOA	1633	n/a	n/a	1
329.2530000000	n/a	329253	FreqFixedSOA	1633	n/a	n/a	1
330.8860000000	n/a	330886	FreqFixedSOA	1633	n/a	n/a	1
332.5200000000	n/a	332520	FreqFixedSOA	1633	n/a	n/a	1
334.1530000000	n/a	334153	FreqFixedSOA	1633	n/a	n/a	1
335.7860000000	n/a	335786	FreqFixedSOA	1633	n/a	n/a	1
337.4200000000	n/a	337420	FreqFixedSOA	1633	n/a	n/a	1
339.0530000000	n/a	339053	FreqFixedSOA	1633	n/a	n/a	1
340.6860000000	n/a	340686	NovelFixedSOA	1633	n/a	n/a	1
342.3200000000	n/a	342320	FreqFixedSOA	1633	n/a	n/a	1
343.9530000000	n/a	343953	FreqFixedSOA	1633	n/a	n/a	1
345.5860000000	n/a	345586	GoFixedSOA	477	n/a	n/a	1
347.2200000000	n/a	347220	FreqFixedSOA	1633	n/a	n/a	1
348.8530000000	n/a	348853	FreqFixedSOA	1633	n/a	n/a	1
350.4860000000	n/a	350486	FreqFixedSOA	1633	n/a	n/a	1
352.1200000000	n/a	352120	GoFixedSOA	383	n/a	n/a	1
353.7530000000	n/a	353753	FreqFixedSOA	1633	n/a	n/a	1
355.3860000000	n/a	355386	FreqFixedSOA	1633	n/a	n/a	1
357.0200000000	n/a	357020	FreqFixedSOA	1633	n/a	n/a	1
358.6530000000	n/a	358653	GoFixedSOA	367	n/a	n/a	1
360.2860000000	n/a	360286	FreqFixedSOA	1633	n/a	n/a	1
361.9200000000	n/a	361920	FreqFixedSOA	1633	n/a	n/a	1
363.5530000000	n/a	363553	FreqFixedSOA	1633	n/a	n/a	1
365.1860000000	n/a	365186	NovelFixedSOA	1633	n/a	n/a	1
366.8200000000	n/a	366820	FreqFixedSOA	1633	n/a	n/a	1
368.4530000000	n/a	368453	FreqFixedSOA	1633	n/a	n/a	1
370.0860000000	n/a	370086	GoFixedSOA	453	n/a	n/a	1
371.7200000000	n/a	371720	FreqFixedSOA	1633	n/a	n/a	1
373.3530000000	n/a	373353	FreqFixedSOA	1633	n/a	n/a	1
374.9860000000	n/a	374986	FreqFixedSOA	1633	n/a	n/a	1
376.6200000000	n/a	376620	NovelFixedSOA	1633	n/a	n/a	1
378.2530000000	n/a	378253	FreqFixedSOA	1633	n/a	n/a	1
379.8860000000	n/a	379886	NovelFixedSOA	1633	n/a	n/a	1
381.5200000000	n/a	381520	FreqFixedSOA	1633	n/a	n/a	1
383.1530000000	n/a	383153	FreqFixedSOA	1633	n/a	n/a	1
384.7860000000	n/a	384786	FreqFixedSOA	1633	n/a	n/a	1
386.4200000000	n/a	386420	GoFixedSOA	368	n/a	n/a	1
388.0530000000	n/a	388053	FreqFixedSOA	1633	n/a	n/a	1
389.6860000000	n/a	389686	FreqFixedSOA	1633	n/a	n/a	1
391.3200000000	n/a	391320	FreqFixedSOA	1633	n/a	n/a	1
392.9530000000	n/a	392953	GoFixedSOA	394	n/a	n/a	1
394.5860000000	n/a	394586	FreqFixedSOA	1633	n/a	n/a	1
396.2200000000	n/a	396220	GoFixedSOA	426	n/a	n/a	1
397.8530000000	n/a	397853	FreqFixedSOA	1633	n/a	n/a	1
399.4860000000	n/a	399486	NovelFixedSOA	1633	n/a	n/a	1
401.1200000000	n/a	401120	FreqFixedSOA	1633	n/a	n/a	1
402.7530000000	n/a	402753	GoFixedSOA	358	n/a	n/a	1
404.3860000000	n/a	404386	FreqFixedSOA	1633	n/a	n/a	1
406.0200000000	n/a	406020	FreqFixedSOA	1633	n/a	n/a	1
407.6530000000	n/a	407653	FreqFixedSOA	1633	n/a	n/a	1
409.2860000000	n/a	409286	FreqFixedSOA	1633	n/a	n/a	1
410.9200000000	n/a	410920	FreqFixedSOA	1633	n/a	n/a	1
412.5530000000	n/a	412553	FreqFixedSOA	1633	n/a	n/a	1
414.1860000000	n/a	414186	NovelFixedSOA	1633	n/a	n/a	1
415.8200000000	n/a	415820	FreqFixedSOA	1633	n/a	n/a	1
417.4530000000	n/a	417453	FreqFixedSOA	1633	n/a	n/a	1
419.0860000000	n/a	419086	FreqFixedSOA	1633	n/a	n/a	1
420.7200000000	n/a	420720	GoFixedSOA	567	n/a	n/a	1
422.3530000000	n/a	422353	FreqFixedSOA	1633	n/a	n/a	1
423.9860000000	n/a	423986	FreqFixedSOA	1633	n/a	n/a	1
425.6200000000	n/a	425620	FreqFixedSOA	1633	n/a	n/a	1
427.2530000000	n/a	427253	FreqFixedSOA	1633	n/a	n/a	1
428.8860000000	n/a	428886	NovelFixedSOA	1633	n/a	n/a	1
430.5200000000	n/a	430520	FreqFixedSOA	1633	n/a	n/a	1
432.1530000000	n/a	432153	FreqFixedSOA	1633	n/a	n/a	1
433.7860000000	n/a	433786	NovelFixedSOA	1633	n/a	n/a	1
435.4200000000	n/a	435420	FreqFixedSOA	1633	n/a	n/a	1
437.0530000000	n/a	437053	NovelFixedSOA	1633	n/a	n/a	1
438.6860000000	n/a	438686	FreqFixedSOA	1633	n/a	n/a	1
440.3200000000	n/a	440320	FreqFixedSOA	1633	n/a	n/a	1
441.9530000000	n/a	441953	FreqFixedSOA	1633	n/a	n/a	1
443.5860000000	n/a	443586	FreqFixedSOA	1633	n/a	n/a	1
445.2200000000	n/a	445220	FreqFixedSOA	1633	n/a	n/a	1
446.8530000000	n/a	446853	FreqFixedSOA	1633	n/a	n/a	1
448.4860000000	n/a	448486	FreqFixedSOA	1633	n/a	n/a	1
450.1200000000	n/a	450120	GoFixedSOA	424	n/a	n/a	1
451.7530000000	n/a	451753	FreqFixedSOA	1633	n/a	n/a	1
453.3860000000	n/a	453386	GoFixedSOA	406	n/a	n/a	1
455.0200000000	n/a	455020	FreqFixedSOA	1633	n/a	n/a	1
456.6530000000	n/a	456653	FreqFixedSOA	1633	n/a	n/a	1
458.2860000000	n/a	458286	NovelFixedSOA	1633	n/a	n/a	1
459.9200000000	n/a	459920	FreqFixedSOA	1633	n/a	n/a	1
