onset	duration	sample	trial_type	response_time	stim_file	value	correct
9.6640000000	n/a	9664	ignore	3625	n/a	n/a	1
14.3640000000	n/a	14364	ignore	1000	n/a	n/a	1
16.3640000000	n/a	16364	ignore	1700	n/a	n/a	1
18.0640000000	n/a	18064	ignore	2371	n/a	n/a	1
21.4970000000	n/a	21497	ignore	1000	n/a	n/a	1
23.4970000000	n/a	23497	ignore	1700	n/a	n/a	1
25.1970000000	n/a	25197	ignore	2700	n/a	n/a	1
28.9640000000	n/a	28964	ignore	1000	n/a	n/a	1
30.9640000000	n/a	30964	ignore	1700	n/a	n/a	1
32.6640000000	n/a	32664	ignore	2288	n/a	n/a	1
36.0140000000	n/a	36014	ignore	1000	n/a	n/a	1
38.0140000000	n/a	38014	ignore	1700	n/a	n/a	1
39.7140000000	n/a	39714	ignore	1192	n/a	n/a	1
41.9800000000	n/a	41980	ignore	1000	n/a	n/a	1
43.9800000000	n/a	43980	ignore	1700	n/a	n/a	1
45.6800000000	n/a	45680	ignore	1333	n/a	n/a	1
48.0800000000	n/a	48080	ignore	1000	n/a	n/a	1
50.0800000000	n/a	50080	STATUS	1700	n/a	n/a	1
51.7800000000	n/a	51780	ignore	1324	n/a	n/a	1
54.1800000000	n/a	54180	ignore	1000	n/a	n/a	1
56.1800000000	n/a	56180	STATUS	1700	n/a	n/a	1
57.8800000000	n/a	57880	ignore	2226	n/a	n/a	1
61.1800000000	n/a	61180	ignore	1000	n/a	n/a	1
63.1800000000	n/a	63180	STATUS	1700	n/a	n/a	1
64.8800000000	n/a	64880	ignore	7580	n/a	n/a	1
72.5300000000	n/a	72530	ignore 	2000	n/a	n/a	1
80.1140000000	n/a	80114	ignore	1000	n/a	n/a	1
82.1140000000	n/a	82114	STATUS	1700	n/a	n/a	1
83.8140000000	n/a	83814	ignore	1072	n/a	n/a	1
85.9640000000	n/a	85964	ignore	1000	n/a	n/a	1
87.9640000000	n/a	87964	STATUS	1700	n/a	n/a	1
89.6630000000	n/a	89663	ignore	486	n/a	n/a	0
91.2130000000	n/a	91213	ignore	1000	n/a	n/a	1
93.2140000000	n/a	93214	STATUS	1700	n/a	n/a	1
94.9130000000	n/a	94913	ignore	326	n/a	n/a	1
96.3130000000	n/a	96313	ignore	1000	n/a	n/a	1
98.3140000000	n/a	98314	ignore	1700	n/a	n/a	1
100.0130000000	n/a	100013	ignore	382	n/a	n/a	1
101.4630000000	n/a	101463	ignore	1000	n/a	n/a	1
103.4640000000	n/a	103464	ignore	1700	n/a	n/a	1
105.1630000000	n/a	105163	ignore	566	n/a	n/a	1
106.7970000000	n/a	106797	ignore	1000	n/a	n/a	1
108.7970000000	n/a	108797	ignore	1700	n/a	n/a	1
110.4970000000	n/a	110497	ignore	538	n/a	n/a	1
112.1130000000	n/a	112113	ignore	1000	n/a	n/a	1
114.1140000000	n/a	114114	ignore	1700	n/a	n/a	1
115.8130000000	n/a	115813	ignore	633	n/a	n/a	1
117.5130000000	n/a	117513	ignore	1000	n/a	n/a	1
119.5140000000	n/a	119514	ignore	1700	n/a	n/a	1
121.2130000000	n/a	121213	ignore	539	n/a	n/a	0
121.8300000000	n/a	121830	STATUS	2000	n/a	n/a	1
144.7800000000	n/a	144780	PenaltyB1	4124	n/a	n/a	0
149.9800000000	n/a	149980	PunIncorrB1	1000	n/a	n/a	1
151.9800000000	n/a	151980	ignore	1700	n/a	n/a	1
153.6800000000	n/a	153680	PenaltyB1	1637	n/a	n/a	0
156.3800000000	n/a	156380	PunIncorrB1	1000	n/a	n/a	1
158.3800000000	n/a	158380	STATUS	1700	n/a	n/a	1
160.0800000000	n/a	160080	PenaltyB1	1153	n/a	n/a	1
162.2970000000	n/a	162297	NeuCorrB1	1000	n/a	n/a	1
164.2970000000	n/a	164297	STATUS	1700	n/a	n/a	1
165.9970000000	n/a	165997	RewardB1	2467	n/a	n/a	0
169.5300000000	n/a	169530	NeuIncorrB1	1000	n/a	n/a	1
171.5300000000	n/a	171530	STATUS	1700	n/a	n/a	1
173.2300000000	n/a	173230	RewardB1	2389	n/a	n/a	0
176.6970000000	n/a	176697	NeuIncorrB1	1000	n/a	n/a	1
178.6970000000	n/a	178697	STATUS	1700	n/a	n/a	1
180.3970000000	n/a	180397	PenaltyB1	2390	n/a	n/a	0
183.8630000000	n/a	183863	PunIncorrB1	1000	n/a	n/a	1
185.8630000000	n/a	185863	STATUS	1700	n/a	n/a	1
187.5630000000	n/a	187563	PenaltyB1	1318	n/a	n/a	0
189.9470000000	n/a	189947	PunIncorrB1	1000	n/a	n/a	1
191.9470000000	n/a	191947	STATUS	1700	n/a	n/a	1
193.6470000000	n/a	193647	PenaltyB1	695	n/a	n/a	1
195.4130000000	n/a	195413	NeuCorrB1	1000	n/a	n/a	1
197.4130000000	n/a	197413	STATUS	1700	n/a	n/a	1
199.1130000000	n/a	199113	PenaltyB1	1798	n/a	n/a	0
201.9800000000	n/a	201980	NeuIncorrB1	1000	n/a	n/a	1
203.9800000000	n/a	203980	STATUS	1700	n/a	n/a	1
205.6800000000	n/a	205680	RewardB1	2106	n/a	n/a	1
208.8630000000	n/a	208863	RewardCorrB1	1000	n/a	n/a	1
210.8630000000	n/a	210863	STATUS	1700	n/a	n/a	1
212.5630000000	n/a	212563	PenaltyB1	1293	n/a	n/a	1
214.9300000000	n/a	214930	NeuCorrB1	1000	n/a	n/a	1
216.9300000000	n/a	216930	STATUS	1700	n/a	n/a	1
218.6300000000	n/a	218630	RewardB1	2631	n/a	n/a	1
222.3300000000	n/a	222330	NeuCorrB1	1000	n/a	n/a	1
224.3300000000	n/a	224330	STATUS	1700	n/a	n/a	1
226.0300000000	n/a	226030	PenaltyB1	1566	n/a	n/a	0
228.6630000000	n/a	228663	PunIncorrB1	1000	n/a	n/a	1
230.6630000000	n/a	230663	STATUS	1700	n/a	n/a	1
232.3630000000	n/a	232363	RewardB1	1712	n/a	n/a	0
235.1470000000	n/a	235147	NeuIncorrB1	1000	n/a	n/a	1
237.1470000000	n/a	237147	STATUS	1700	n/a	n/a	1
238.8470000000	n/a	238847	PenaltyB1	887	n/a	n/a	1
240.7970000000	n/a	240797	NeuCorrB1	1000	n/a	n/a	1
242.7970000000	n/a	242797	STATUS	1700	n/a	n/a	1
244.4970000000	n/a	244497	PenaltyB1	837	n/a	n/a	1
246.3970000000	n/a	246397	NeuCorrB1	1000	n/a	n/a	1
248.3970000000	n/a	248397	STATUS	1700	n/a	n/a	1
250.0970000000	n/a	250097	RewardB1	2650	n/a	n/a	1
253.8130000000	n/a	253813	NeuCorrB1	1000	n/a	n/a	1
255.8130000000	n/a	255813	STATUS	1700	n/a	n/a	1
257.5130000000	n/a	257513	PenaltyB1	4841	n/a	n/a	1
263.4300000000	n/a	263430	NeuCorrB1	1000	n/a	n/a	1
265.4300000000	n/a	265430	STATUS	1700	n/a	n/a	1
267.1300000000	n/a	267130	RewardB1	1330	n/a	n/a	1
269.5300000000	n/a	269530	RewardCorrB1	1000	n/a	n/a	1
271.5300000000	n/a	271530	STATUS	1700	n/a	n/a	1
273.2300000000	n/a	273230	RewardB1	1951	n/a	n/a	1
276.2470000000	n/a	276247	RewardCorrB1	1000	n/a	n/a	1
278.2470000000	n/a	278247	STATUS	1700	n/a	n/a	1
279.9470000000	n/a	279947	RewardB1	1523	n/a	n/a	1
282.5470000000	n/a	282547	NeuCorrB1	1000	n/a	n/a	1
284.5470000000	n/a	284547	STATUS	1700	n/a	n/a	1
286.2470000000	n/a	286247	RewardB1	912	n/a	n/a	1
288.2300000000	n/a	288230	RewardCorrB1	1000	n/a	n/a	1
290.2300000000	n/a	290230	ignore	1700	n/a	n/a	1
291.9300000000	n/a	291930	RewardB1	1060	n/a	n/a	1
294.0630000000	n/a	294063	RewardCorrB1	1000	n/a	n/a	1
296.0630000000	n/a	296063	ignore	1700	n/a	n/a	1
297.7630000000	n/a	297763	PenaltyB1	3184	n/a	n/a	0
302.0130000000	n/a	302013	PunIncorrB1	1000	n/a	n/a	1
304.0130000000	n/a	304013	ignore	1700	n/a	n/a	1
305.7130000000	n/a	305713	RewardB1	3723	n/a	n/a	1
310.5130000000	n/a	310513	RewardCorrB1	1000	n/a	n/a	1
312.5130000000	n/a	312513	ignore	1700	n/a	n/a	1
314.2130000000	n/a	314213	PenaltyB1	1893	n/a	n/a	1
317.1800000000	n/a	317180	PunCorrB1	1000	n/a	n/a	1
319.1800000000	n/a	319180	ignore	1700	n/a	n/a	1
320.8800000000	n/a	320880	RewardB1	1832	n/a	n/a	1
323.7800000000	n/a	323780	RewardCorrB1	1000	n/a	n/a	1
325.7800000000	n/a	325780	ignore	1700	n/a	n/a	1
327.4800000000	n/a	327480	RewardB1	976	n/a	n/a	1
329.5300000000	n/a	329530	RewardCorrB1	1000	n/a	n/a	1
331.5300000000	n/a	331530	ignore	1700	n/a	n/a	1
333.2300000000	n/a	333230	RewardB1	2023	n/a	n/a	1
336.3300000000	n/a	336330	RewardCorrB1	1000	n/a	n/a	1
338.3300000000	n/a	338330	ignore	1700	n/a	n/a	1
340.0300000000	n/a	340030	PenaltyB1	1898	n/a	n/a	1
342.9960000000	n/a	342996	NeuCorrB1	1000	n/a	n/a	1
344.9960000000	n/a	344996	ignore	1700	n/a	n/a	1
346.6960000000	n/a	346696	RewardB1	1208	n/a	n/a	1
348.9800000000	n/a	348980	NeuCorrB1	1000	n/a	n/a	1
350.9800000000	n/a	350980	ignore	1700	n/a	n/a	1
352.6800000000	n/a	352680	PenaltyB1	1497	n/a	n/a	1
355.2460000000	n/a	355246	NeuCorrB1	1000	n/a	n/a	1
357.2460000000	n/a	357246	ignore	1700	n/a	n/a	1
358.9460000000	n/a	358946	RewardB1	1175	n/a	n/a	1
361.1960000000	n/a	361196	RewardCorrB1	1000	n/a	n/a	1
363.1960000000	n/a	363196	ignore	1700	n/a	n/a	1
364.8960000000	n/a	364896	PenaltyB1	1723	n/a	n/a	0
367.6960000000	n/a	367696	NeuIncorrB1	1000	n/a	n/a	1
369.6960000000	n/a	369696	ignore	1700	n/a	n/a	1
371.3960000000	n/a	371396	RewardB1	1145	n/a	n/a	1
373.6130000000	n/a	373613	RewardCorrB1	1000	n/a	n/a	1
375.6130000000	n/a	375613	ignore	1700	n/a	n/a	1
377.3130000000	n/a	377313	PenaltyB1	1682	n/a	n/a	0
380.0630000000	n/a	380063	PunIncorrB1	1000	n/a	n/a	1
382.0630000000	n/a	382063	ignore	1700	n/a	n/a	1
383.7630000000	n/a	383763	PenaltyB1	944	n/a	n/a	1
385.7800000000	n/a	385780	NeuCorrB1	1000	n/a	n/a	1
387.7800000000	n/a	387780	ignore	1700	n/a	n/a	1
389.4800000000	n/a	389480	RewardB1	913	n/a	n/a	1
391.4630000000	n/a	391463	RewardCorrB1	1000	n/a	n/a	1
393.4630000000	n/a	393463	ignore	1700	n/a	n/a	1
395.1630000000	n/a	395163	PenaltyB1	1523	n/a	n/a	1
397.7630000000	n/a	397763	PunCorrB1	1000	n/a	n/a	1
399.7630000000	n/a	399763	ignore	1700	n/a	n/a	1
401.4630000000	n/a	401463	RewardB1	877	n/a	n/a	1
403.4130000000	n/a	403413	RewardCorrB1	1000	n/a	n/a	1
405.4130000000	n/a	405413	ignore	1700	n/a	n/a	1
409.7960000000	n/a	409796	RewardB2	2246	n/a	n/a	1
413.1130000000	n/a	413113	RewardCorrB2	1000	n/a	n/a	1
415.1130000000	n/a	415113	ignore	1700	n/a	n/a	1
416.8130000000	n/a	416813	PenaltyB2	3207	n/a	n/a	1
421.0960000000	n/a	421096	NeuCorrB2	1000	n/a	n/a	1
423.0960000000	n/a	423096	ignore	1700	n/a	n/a	1
424.7960000000	n/a	424796	RewardB2	1937	n/a	n/a	1
427.7960000000	n/a	427796	RewardCorrB2	1000	n/a	n/a	1
429.7960000000	n/a	429796	ignore	1700	n/a	n/a	1
431.4960000000	n/a	431496	RewardB2	610	n/a	n/a	1
433.1800000000	n/a	433180	NeuCorrB2	1000	n/a	n/a	1
435.1800000000	n/a	435180	ignore	1700	n/a	n/a	1
436.8800000000	n/a	436880	PenaltyB2	2046	n/a	n/a	1
439.9960000000	n/a	439996	NeuCorrB2	1000	n/a	n/a	1
441.9960000000	n/a	441996	ignore	1700	n/a	n/a	1
443.6960000000	n/a	443696	RewardB2	1649	n/a	n/a	1
446.4130000000	n/a	446413	RewardCorrB2	1000	n/a	n/a	1
448.4130000000	n/a	448413	ignore	1700	n/a	n/a	1
450.1130000000	n/a	450113	PenaltyB2	1364	n/a	n/a	0
452.5460000000	n/a	452546	PunIncorrB2	1000	n/a	n/a	1
454.5460000000	n/a	454546	ignore	1700	n/a	n/a	1
456.2460000000	n/a	456246	RewardB2	1687	n/a	n/a	1
458.9960000000	n/a	458996	RewardCorrB2	1000	n/a	n/a	1
460.9960000000	n/a	460996	ignore	1700	n/a	n/a	1
462.6960000000	n/a	462696	PenaltyB2	1711	n/a	n/a	1
465.4800000000	n/a	465480	NeuCorrB2	1000	n/a	n/a	1
467.4800000000	n/a	467480	ignore	1700	n/a	n/a	1
469.1800000000	n/a	469180	RewardB2	1104	n/a	n/a	1
471.3460000000	n/a	471346	RewardCorrB2	1000	n/a	n/a	1
473.3460000000	n/a	473346	STATUS	1700	n/a	n/a	1
475.0460000000	n/a	475046	PenaltyB2	1842	n/a	n/a	1
477.9630000000	n/a	477963	PunCorrB2	1000	n/a	n/a	1
479.9630000000	n/a	479963	ignore	1700	n/a	n/a	1
481.6630000000	n/a	481663	RewardB2	4558	n/a	n/a	1
487.2960000000	n/a	487296	RewardCorrB2	1000	n/a	n/a	1
489.2960000000	n/a	489296	STATUS	1700	n/a	n/a	1
490.9960000000	n/a	490996	PenaltyB2	2480	n/a	n/a	0
494.5460000000	n/a	494546	PunIncorrB2	1000	n/a	n/a	1
496.5460000000	n/a	496546	ignore	1700	n/a	n/a	1
498.2460000000	n/a	498246	RewardB2	890	n/a	n/a	1
500.2130000000	n/a	500213	RewardCorrB2	1000	n/a	n/a	1
502.2130000000	n/a	502213	STATUS	1700	n/a	n/a	1
503.9130000000	n/a	503913	PenaltyB2	1948	n/a	n/a	1
506.9290000000	n/a	506929	NeuCorrB2	1000	n/a	n/a	1
508.9300000000	n/a	508930	STATUS	1700	n/a	n/a	1
510.6290000000	n/a	510629	RewardB2	772	n/a	n/a	1
512.4790000000	n/a	512479	NeuCorrB2	1000	n/a	n/a	1
514.4800000000	n/a	514480	STATUS	1700	n/a	n/a	1
516.1790000000	n/a	516179	PenaltyB2	3561	n/a	n/a	1
520.8130000000	n/a	520813	NeuCorrB2	1000	n/a	n/a	1
522.8130000000	n/a	522813	STATUS	1700	n/a	n/a	1
524.5130000000	n/a	524513	RewardB2	1268	n/a	n/a	1
526.8460000000	n/a	526846	RewardCorrB2	1000	n/a	n/a	1
528.8460000000	n/a	528846	STATUS	1700	n/a	n/a	1
530.5460000000	n/a	530546	PenaltyB2	5646	n/a	n/a	0
537.2630000000	n/a	537263	PunIncorrB2	1000	n/a	n/a	1
539.2630000000	n/a	539263	STATUS	1700	n/a	n/a	1
540.9630000000	n/a	540963	RewardB2	1204	n/a	n/a	1
543.2290000000	n/a	543229	RewardCorrB2	1000	n/a	n/a	1
545.2290000000	n/a	545229	STATUS	1700	n/a	n/a	1
546.9290000000	n/a	546929	PenaltyB2	2961	n/a	n/a	1
550.9630000000	n/a	550963	PunCorrB2	1000	n/a	n/a	1
552.9630000000	n/a	552963	STATUS	1700	n/a	n/a	1
554.6630000000	n/a	554663	PenaltyB2	1571	n/a	n/a	1
557.2960000000	n/a	557296	NeuCorrB2	1000	n/a	n/a	1
559.2960000000	n/a	559296	STATUS	1700	n/a	n/a	1
560.9960000000	n/a	560996	PenaltyB2	3408	n/a	n/a	0
565.4790000000	n/a	565479	PunIncorrB2	1000	n/a	n/a	1
567.4790000000	n/a	567479	ignore	1700	n/a	n/a	1
569.1790000000	n/a	569179	RewardB2	1316	n/a	n/a	1
571.5630000000	n/a	571563	RewardCorrB2	1000	n/a	n/a	1
573.5630000000	n/a	573563	STATUS	1700	n/a	n/a	1
575.2630000000	n/a	575263	RewardB2	721	n/a	n/a	1
577.0460000000	n/a	577046	NeuCorrB2	1000	n/a	n/a	1
579.0460000000	n/a	579046	STATUS	1700	n/a	n/a	1
580.7460000000	n/a	580746	RewardB2	1002	n/a	n/a	1
582.8130000000	n/a	582813	RewardCorrB2	1000	n/a	n/a	1
584.8130000000	n/a	584813	STATUS	1700	n/a	n/a	1
586.5130000000	n/a	586513	PenaltyB2	3013	n/a	n/a	1
590.5960000000	n/a	590596	NeuCorrB2	1000	n/a	n/a	1
592.5960000000	n/a	592596	STATUS	1700	n/a	n/a	1
594.2960000000	n/a	594296	PenaltyB2	1045	n/a	n/a	1
596.4130000000	n/a	596413	NeuCorrB2	1000	n/a	n/a	1
598.4130000000	n/a	598413	STATUS	1700	n/a	n/a	1
600.1130000000	n/a	600113	RewardB2	1517	n/a	n/a	1
602.6960000000	n/a	602696	RewardCorrB2	1000	n/a	n/a	1
604.6960000000	n/a	604696	STATUS	1700	n/a	n/a	1
606.3960000000	n/a	606396	PenaltyB2	790	n/a	n/a	1
608.2630000000	n/a	608263	NeuCorrB2	1000	n/a	n/a	1
610.2630000000	n/a	610263	STATUS	1700	n/a	n/a	1
611.9630000000	n/a	611963	RewardB2	2780	n/a	n/a	1
615.8130000000	n/a	615813	NeuCorrB2	1000	n/a	n/a	1
617.8130000000	n/a	617813	STATUS	1700	n/a	n/a	1
619.5130000000	n/a	619513	PenaltyB2	4281	n/a	n/a	1
624.8630000000	n/a	624863	NeuCorrB2	1000	n/a	n/a	1
626.8630000000	n/a	626863	STATUS	1700	n/a	n/a	1
628.5630000000	n/a	628563	RewardB2	1037	n/a	n/a	1
630.6630000000	n/a	630663	RewardCorrB2	1000	n/a	n/a	1
632.6630000000	n/a	632663	STATUS	1700	n/a	n/a	1
634.3630000000	n/a	634363	PenaltyB2	2652	n/a	n/a	1
638.0790000000	n/a	638079	NeuCorrB2	1000	n/a	n/a	1
640.0790000000	n/a	640079	STATUS	1700	n/a	n/a	1
641.7790000000	n/a	641779	PenaltyB2	1050	n/a	n/a	1
643.8960000000	n/a	643896	PunCorrB2	1000	n/a	n/a	1
645.8960000000	n/a	645896	STATUS	1700	n/a	n/a	1
647.5960000000	n/a	647596	RewardB2	1145	n/a	n/a	1
649.8130000000	n/a	649813	RewardCorrB2	1000	n/a	n/a	1
651.8130000000	n/a	651813	STATUS	1700	n/a	n/a	1
653.5130000000	n/a	653513	PenaltyB2	2278	n/a	n/a	1
656.8630000000	n/a	656863	NeuCorrB2	1000	n/a	n/a	1
658.8630000000	n/a	658863	STATUS	1700	n/a	n/a	1
660.5630000000	n/a	660563	RewardB2	1197	n/a	n/a	0
662.8290000000	n/a	662829	NeuIncorrB2	1000	n/a	n/a	1
664.8290000000	n/a	664829	STATUS	1700	n/a	n/a	1
666.5290000000	n/a	666529	PenaltyB2	1213	n/a	n/a	1
668.8130000000	n/a	668813	PunCorrB2	1000	n/a	n/a	1
670.8130000000	n/a	670813	STATUS	1700	n/a	n/a	1
672.5130000000	n/a	672513	RewardB2	1781	n/a	n/a	1
675.3630000000	n/a	675363	RewardCorrB2	1000	n/a	n/a	1
677.3630000000	n/a	677363	STATUS	1700	n/a	n/a	1
681.3290000000	n/a	681329	RewardB3	1705	n/a	n/a	1
684.0960000000	n/a	684096	RewardCorrB3	1000	n/a	n/a	1
686.0960000000	n/a	686096	STATUS	1700	n/a	n/a	1
687.7960000000	n/a	687796	PenaltyB3	2601	n/a	n/a	1
691.4620000000	n/a	691462	PunCorrB3	1000	n/a	n/a	1
693.4630000000	n/a	693463	STATUS	1700	n/a	n/a	1
695.1620000000	n/a	695162	RewardB3	1032	n/a	n/a	1
697.2620000000	n/a	697262	RewardCorrB3	1000	n/a	n/a	1
699.2630000000	n/a	699263	STATUS	1700	n/a	n/a	1
700.9620000000	n/a	700962	PenaltyB3	1415	n/a	n/a	0
703.4460000000	n/a	703446	PunIncorrB3	1000	n/a	n/a	1
705.4460000000	n/a	705446	STATUS	1700	n/a	n/a	1
707.1460000000	n/a	707146	PenaltyB3	1971	n/a	n/a	0
710.1790000000	n/a	710179	PunIncorrB3	1000	n/a	n/a	1
712.1790000000	n/a	712179	STATUS	1700	n/a	n/a	1
713.8790000000	n/a	713879	RewardB3	1026	n/a	n/a	1
715.9790000000	n/a	715979	RewardCorrB3	1000	n/a	n/a	1
717.9790000000	n/a	717979	STATUS	1700	n/a	n/a	1
719.6790000000	n/a	719679	PenaltyB3	2329	n/a	n/a	1
723.0790000000	n/a	723079	PunCorrB3	1000	n/a	n/a	1
725.0790000000	n/a	725079	STATUS	1700	n/a	n/a	1
726.7790000000	n/a	726779	RewardB3	1637	n/a	n/a	1
729.4790000000	n/a	729479	RewardCorrB3	1000	n/a	n/a	1
731.4790000000	n/a	731479	STATUS	1700	n/a	n/a	1
733.1790000000	n/a	733179	PenaltyB3	1875	n/a	n/a	1
736.1290000000	n/a	736129	NeuCorrB3	1000	n/a	n/a	1
738.1290000000	n/a	738129	STATUS	1700	n/a	n/a	1
739.8290000000	n/a	739829	RewardB3	4448	n/a	n/a	1
745.3460000000	n/a	745346	NeuCorrB3	1000	n/a	n/a	1
747.3460000000	n/a	747346	STATUS	1700	n/a	n/a	1
749.0460000000	n/a	749046	PenaltyB3	2807	n/a	n/a	0
752.9290000000	n/a	752929	PunIncorrB3	1000	n/a	n/a	1
754.9290000000	n/a	754929	STATUS	1700	n/a	n/a	1
756.6290000000	n/a	756629	RewardB3	833	n/a	n/a	1
758.5290000000	n/a	758529	RewardCorrB3	1000	n/a	n/a	1
760.5290000000	n/a	760529	STATUS	1700	n/a	n/a	1
762.2290000000	n/a	762229	RewardB3	801	n/a	n/a	1
764.0960000000	n/a	764096	RewardCorrB3	1000	n/a	n/a	1
766.0960000000	n/a	766096	STATUS	1700	n/a	n/a	1
767.7960000000	n/a	767796	RewardB3	819	n/a	n/a	1
769.6790000000	n/a	769679	RewardCorrB3	1000	n/a	n/a	1
771.6790000000	n/a	771679	STATUS	1700	n/a	n/a	1
773.3790000000	n/a	773379	PenaltyB3	1339	n/a	n/a	1
775.7960000000	n/a	775796	PunCorrB3	1000	n/a	n/a	1
777.7960000000	n/a	777796	STATUS	1700	n/a	n/a	1
779.4960000000	n/a	779496	RewardB3	1178	n/a	n/a	1
781.7460000000	n/a	781746	RewardCorrB3	1000	n/a	n/a	1
783.7460000000	n/a	783746	STATUS	1700	n/a	n/a	1
785.4460000000	n/a	785446	PenaltyB3	2267	n/a	n/a	0
788.7790000000	n/a	788779	PunIncorrB3	1000	n/a	n/a	1
790.7790000000	n/a	790779	STATUS	1700	n/a	n/a	1
792.4790000000	n/a	792479	RewardB3	1145	n/a	n/a	1
794.6960000000	n/a	794696	RewardCorrB3	1000	n/a	n/a	1
796.6960000000	n/a	796696	STATUS	1700	n/a	n/a	1
798.3960000000	n/a	798396	RewardB3	860	n/a	n/a	1
800.3290000000	n/a	800329	RewardCorrB3	1000	n/a	n/a	1
802.3290000000	n/a	802329	STATUS	1700	n/a	n/a	1
804.0290000000	n/a	804029	RewardB3	980	n/a	n/a	1
806.0790000000	n/a	806079	NeuCorrB3	1000	n/a	n/a	1
808.0790000000	n/a	808079	STATUS	1700	n/a	n/a	1
809.7790000000	n/a	809779	RewardB3	786	n/a	n/a	1
811.6290000000	n/a	811629	RewardCorrB3	1000	n/a	n/a	1
813.6290000000	n/a	813629	STATUS	1700	n/a	n/a	1
815.3290000000	n/a	815329	RewardB3	855	n/a	n/a	1
817.2460000000	n/a	817246	RewardCorrB3	1000	n/a	n/a	1
819.2460000000	n/a	819246	STATUS	1700	n/a	n/a	1
820.9460000000	n/a	820946	PenaltyB3	1348	n/a	n/a	0
823.3620000000	n/a	823362	PunIncorrB3	1000	n/a	n/a	1
825.3620000000	n/a	825362	STATUS	1700	n/a	n/a	1
827.0620000000	n/a	827062	RewardB3	1024	n/a	n/a	1
829.1620000000	n/a	829162	NeuCorrB3	1000	n/a	n/a	1
831.1620000000	n/a	831162	STATUS	1700	n/a	n/a	1
832.8620000000	n/a	832862	PenaltyB3	1584	n/a	n/a	0
835.5120000000	n/a	835512	PunIncorrB3	1000	n/a	n/a	1
837.5120000000	n/a	837512	STATUS	1700	n/a	n/a	1
839.2120000000	n/a	839212	PenaltyB3	1100	n/a	n/a	1
841.3790000000	n/a	841379	NeuCorrB3	1000	n/a	n/a	1
843.3790000000	n/a	843379	STATUS	1700	n/a	n/a	1
845.0790000000	n/a	845079	RewardB3	745	n/a	n/a	1
846.8960000000	n/a	846896	RewardCorrB3	1000	n/a	n/a	1
848.8960000000	n/a	848896	STATUS	1700	n/a	n/a	1
850.5960000000	n/a	850596	PenaltyB3	2422	n/a	n/a	1
854.0960000000	n/a	854096	NeuCorrB3	1000	n/a	n/a	1
856.0960000000	n/a	856096	STATUS	1700	n/a	n/a	1
857.7960000000	n/a	857796	RewardB3	641	n/a	n/a	1
859.5120000000	n/a	859512	NeuCorrB3	1000	n/a	n/a	1
861.5120000000	n/a	861512	STATUS	1700	n/a	n/a	1
863.2120000000	n/a	863212	PenaltyB3	1416	n/a	n/a	0
865.6960000000	n/a	865696	PunIncorrB3	1000	n/a	n/a	1
867.6960000000	n/a	867696	STATUS	1700	n/a	n/a	1
869.3960000000	n/a	869396	RewardB3	1093	n/a	n/a	1
871.5620000000	n/a	871562	RewardCorrB3	1000	n/a	n/a	1
873.5620000000	n/a	873562	STATUS	1700	n/a	n/a	1
875.2620000000	n/a	875262	PenaltyB3	3003	n/a	n/a	1
879.3290000000	n/a	879329	PunCorrB3	1000	n/a	n/a	1
881.3290000000	n/a	881329	STATUS	1700	n/a	n/a	1
883.0290000000	n/a	883029	PenaltyB3	2060	n/a	n/a	1
886.1620000000	n/a	886162	NeuCorrB3	1000	n/a	n/a	1
888.1620000000	n/a	888162	STATUS	1700	n/a	n/a	1
889.8620000000	n/a	889862	PenaltyB3	595	n/a	n/a	1
891.5290000000	n/a	891529	NeuCorrB3	1000	n/a	n/a	1
893.5290000000	n/a	893529	STATUS	1700	n/a	n/a	1
895.2290000000	n/a	895229	PenaltyB3	1474	n/a	n/a	1
897.7790000000	n/a	897779	NeuCorrB3	1000	n/a	n/a	1
899.7790000000	n/a	899779	STATUS	1700	n/a	n/a	1
901.4790000000	n/a	901479	RewardB3	998	n/a	n/a	1
903.5450000000	n/a	903545	RewardCorrB3	1000	n/a	n/a	1
905.5460000000	n/a	905546	STATUS	1700	n/a	n/a	1
907.2450000000	n/a	907245	RewardB3	620	n/a	n/a	1
908.9290000000	n/a	908929	RewardCorrB3	1000	n/a	n/a	1
910.9290000000	n/a	910929	STATUS	1700	n/a	n/a	1
912.6290000000	n/a	912629	PenaltyB3	1326	n/a	n/a	1
915.0290000000	n/a	915029	NeuCorrB3	1000	n/a	n/a	1
917.0290000000	n/a	917029	STATUS	1700	n/a	n/a	1
918.7290000000	n/a	918729	PenaltyB3	527	n/a	n/a	1
920.3290000000	n/a	920329	NeuCorrB3	1000	n/a	n/a	1
922.3290000000	n/a	922329	STATUS	1700	n/a	n/a	1
924.0290000000	n/a	924029	PenaltyB3	1813	n/a	n/a	1
926.9120000000	n/a	926912	NeuCorrB3	1000	n/a	n/a	1
928.9120000000	n/a	928912	STATUS	1700	n/a	n/a	1
932.0620000000	n/a	932062	RewardB4	1251	n/a	n/a	1
934.3790000000	n/a	934379	RewardCorrB4	1000	n/a	n/a	1
936.3790000000	n/a	936379	STATUS	1700	n/a	n/a	1
938.0790000000	n/a	938079	PenaltyB4	3410	n/a	n/a	1
942.5620000000	n/a	942562	PunCorrB4	1000	n/a	n/a	1
944.5620000000	n/a	944562	STATUS	1700	n/a	n/a	1
946.2620000000	n/a	946262	RewardB4	999	n/a	n/a	1
948.3290000000	n/a	948329	RewardCorrB4	1000	n/a	n/a	1
950.3290000000	n/a	950329	STATUS	1700	n/a	n/a	1
952.0290000000	n/a	952029	PenaltyB4	1568	n/a	n/a	0
954.6620000000	n/a	954662	PunIncorrB4	1000	n/a	n/a	1
956.6620000000	n/a	956662	STATUS	1700	n/a	n/a	1
958.3620000000	n/a	958362	RewardB4	1666	n/a	n/a	1
961.0950000000	n/a	961095	RewardCorrB4	1000	n/a	n/a	1
963.0950000000	n/a	963095	STATUS	1700	n/a	n/a	1
964.7950000000	n/a	964795	PenaltyB4	1039	n/a	n/a	1
966.9120000000	n/a	966912	PunCorrB4	1000	n/a	n/a	1
968.9120000000	n/a	968912	STATUS	1700	n/a	n/a	1
970.6120000000	n/a	970612	PenaltyB4	1331	n/a	n/a	0
973.0120000000	n/a	973012	PunIncorrB4	1000	n/a	n/a	1
975.0120000000	n/a	975012	STATUS	1700	n/a	n/a	1
976.7120000000	n/a	976712	RewardB4	1015	n/a	n/a	1
978.7950000000	n/a	978795	RewardCorrB4	1000	n/a	n/a	1
980.7950000000	n/a	980795	STATUS	1700	n/a	n/a	1
982.4950000000	n/a	982495	PenaltyB4	1522	n/a	n/a	0
985.0950000000	n/a	985095	PunIncorrB4	1000	n/a	n/a	1
987.0950000000	n/a	987095	STATUS	1700	n/a	n/a	1
988.7950000000	n/a	988795	RewardB4	894	n/a	n/a	1
990.7620000000	n/a	990762	NeuCorrB4	1000	n/a	n/a	1
992.7620000000	n/a	992762	STATUS	1700	n/a	n/a	1
994.4620000000	n/a	994462	PenaltyB4	2373	n/a	n/a	1
997.9120000000	n/a	997912	NeuCorrB4	1000	n/a	n/a	1
999.9120000000	n/a	999912	STATUS	1700	n/a	n/a	1
1001.6120000000	n/a	1001612	RewardB4	1001	n/a	n/a	1
1003.6790000000	n/a	1003679	RewardCorrB4	1000	n/a	n/a	1
1005.6790000000	n/a	1005679	STATUS	1700	n/a	n/a	1
1007.3790000000	n/a	1007379	PenaltyB4	1289	n/a	n/a	1
1009.7450000000	n/a	1009745	NeuCorrB4	1000	n/a	n/a	1
1011.7450000000	n/a	1011745	STATUS	1700	n/a	n/a	1
1013.4450000000	n/a	1013445	PenaltyB4	1721	n/a	n/a	1
1016.2290000000	n/a	1016229	NeuCorrB4	1000	n/a	n/a	1
1018.2290000000	n/a	1018229	STATUS	1700	n/a	n/a	1
1019.9290000000	n/a	1019929	RewardB4	870	n/a	n/a	1
1021.8620000000	n/a	1021862	RewardCorrB4	1000	n/a	n/a	1
1023.8620000000	n/a	1023862	STATUS	1700	n/a	n/a	1
1025.5620000000	n/a	1025562	RewardB4	734	n/a	n/a	1
1027.3620000000	n/a	1027362	NeuCorrB4	1000	n/a	n/a	1
1029.3620000000	n/a	1029362	STATUS	1700	n/a	n/a	1
1031.0620000000	n/a	1031062	RewardB4	804	n/a	n/a	1
1032.9290000000	n/a	1032929	RewardCorrB4	1000	n/a	n/a	1
1034.9290000000	n/a	1034929	STATUS	1700	n/a	n/a	1
1036.6290000000	n/a	1036629	PenaltyB4	2120	n/a	n/a	0
1039.8120000000	n/a	1039812	PunIncorrB4	1000	n/a	n/a	1
1041.8120000000	n/a	1041812	STATUS	1700	n/a	n/a	1
1043.5120000000	n/a	1043512	PenaltyB4	1279	n/a	n/a	1
1045.8620000000	n/a	1045862	NeuCorrB4	1000	n/a	n/a	1
1047.8620000000	n/a	1047862	STATUS	1700	n/a	n/a	1
1049.5620000000	n/a	1049562	PenaltyB4	615	n/a	n/a	1
1051.2450000000	n/a	1051245	PunCorrB4	1000	n/a	n/a	1
1053.2450000000	n/a	1053245	STATUS	1700	n/a	n/a	1
1054.9450000000	n/a	1054945	RewardB4	1362	n/a	n/a	1
1057.3790000000	n/a	1057379	RewardCorrB4	1000	n/a	n/a	1
1059.3790000000	n/a	1059379	STATUS	1700	n/a	n/a	1
1061.0790000000	n/a	1061079	PenaltyB4	1603	n/a	n/a	1
1063.7450000000	n/a	1063745	NeuCorrB4	1000	n/a	n/a	1
1065.7450000000	n/a	1065745	STATUS	1700	n/a	n/a	1
1067.4450000000	n/a	1067445	RewardB4	802	n/a	n/a	1
1069.3120000000	n/a	1069312	RewardCorrB4	1000	n/a	n/a	1
1071.3120000000	n/a	1071312	STATUS	1700	n/a	n/a	1
1073.0120000000	n/a	1073012	PenaltyB4	1301	n/a	n/a	1
1075.3790000000	n/a	1075379	NeuCorrB4	1000	n/a	n/a	1
1077.3790000000	n/a	1077379	STATUS	1700	n/a	n/a	1
1079.0790000000	n/a	1079079	RewardB4	1208	n/a	n/a	1
1081.3620000000	n/a	1081362	NeuCorrB4	1000	n/a	n/a	1
1083.3620000000	n/a	1083362	STATUS	1700	n/a	n/a	1
1085.0620000000	n/a	1085062	PenaltyB4	1285	n/a	n/a	1
1087.4120000000	n/a	1087412	NeuCorrB4	1000	n/a	n/a	1
1089.4120000000	n/a	1089412	STATUS	1700	n/a	n/a	1
1091.1120000000	n/a	1091112	RewardB4	742	n/a	n/a	1
1092.9280000000	n/a	1092928	RewardCorrB4	1000	n/a	n/a	1
1094.9290000000	n/a	1094929	STATUS	1700	n/a	n/a	1
1096.6280000000	n/a	1096628	PenaltyB4	1516	n/a	n/a	1
1099.2120000000	n/a	1099212	NeuCorrB4	1000	n/a	n/a	1
1101.2120000000	n/a	1101212	STATUS	1700	n/a	n/a	1
1102.9120000000	n/a	1102912	RewardB4	735	n/a	n/a	1
1104.7120000000	n/a	1104712	RewardCorrB4	1000	n/a	n/a	1
1106.7120000000	n/a	1106712	STATUS	1700	n/a	n/a	1
1108.4120000000	n/a	1108412	PenaltyB4	955	n/a	n/a	1
1110.4450000000	n/a	1110445	PunCorrB4	1000	n/a	n/a	1
1112.4450000000	n/a	1112445	STATUS	1700	n/a	n/a	1
1114.1450000000	n/a	1114145	RewardB4	3627	n/a	n/a	1
1118.8450000000	n/a	1118845	RewardCorrB4	1000	n/a	n/a	1
1120.8450000000	n/a	1120845	STATUS	1700	n/a	n/a	1
1122.5450000000	n/a	1122545	PenaltyB4	611	n/a	n/a	0
1124.2280000000	n/a	1124228	PunIncorrB4	1000	n/a	n/a	1
1126.2290000000	n/a	1126229	STATUS	1700	n/a	n/a	1
1127.9280000000	n/a	1127928	RewardB4	773	n/a	n/a	1
1129.7780000000	n/a	1129778	RewardCorrB4	1000	n/a	n/a	1
1131.7780000000	n/a	1131778	STATUS	1700	n/a	n/a	1
1133.4780000000	n/a	1133478	PenaltyB4	1273	n/a	n/a	1
1135.8280000000	n/a	1135828	NeuCorrB4	1000	n/a	n/a	1
1137.8280000000	n/a	1137828	STATUS	1700	n/a	n/a	1
1139.5280000000	n/a	1139528	RewardB4	837	n/a	n/a	1
1141.4280000000	n/a	1141428	RewardCorrB4	1000	n/a	n/a	1
1143.4280000000	n/a	1143428	STATUS	1700	n/a	n/a	1
1145.1280000000	n/a	1145128	PenaltyB4	1183	n/a	n/a	1
1147.3780000000	n/a	1147378	NeuCorrB4	1000	n/a	n/a	1
1149.3780000000	n/a	1149378	STATUS	1700	n/a	n/a	1
1151.0780000000	n/a	1151078	RewardB4	1100	n/a	n/a	1
1153.2450000000	n/a	1153245	NeuCorrB4	1000	n/a	n/a	1
1155.2450000000	n/a	1155245	STATUS	1700	n/a	n/a	1
1156.9450000000	n/a	1156945	RewardB4	892	n/a	n/a	1
1158.9120000000	n/a	1158912	RewardCorrB4	1000	n/a	n/a	1
1160.9120000000	n/a	1160912	STATUS	1700	n/a	n/a	1
1162.6120000000	n/a	1162612	PenaltyB4	1532	n/a	n/a	1
1165.2120000000	n/a	1165212	NeuCorrB4	1000	n/a	n/a	1
1167.2120000000	n/a	1167212	STATUS	1700	n/a	n/a	1
1168.9120000000	n/a	1168912	RewardB4	727	n/a	n/a	1
1170.7120000000	n/a	1170712	RewardCorrB4	1000	n/a	n/a	1
1172.7120000000	n/a	1172712	STATUS	1700	n/a	n/a	1
