onset	duration	sample	trial_type	response_time	stim_file	value	correct
6.5990000000	n/a	6599	ignore	n/a	n/a	n/a	n/a
9.6990000000	n/a	9699	ignore	n/a	n/a	n/a	n/a
12.7030000000	n/a	12703	ignore	n/a	n/a	n/a	n/a
28.3650000000	n/a	28365	ignore	n/a	n/a	n/a	n/a
31.4650000000	n/a	31465	ignore	n/a	n/a	n/a	n/a
34.4520000000	n/a	34452	ignore	n/a	n/a	n/a	n/a
49.9990000000	n/a	49999	PosStim	n/a	n/a	n/a	n/a
53.0320000000	n/a	53032	PosNonAlcStimWithoutStartle	n/a	n/a	n/a	n/a
67.2150000000	n/a	67215	NegStim	n/a	n/a	n/a	n/a
70.2490000000	n/a	70249	NegNonAlcStimWithoutStartle	n/a	n/a	n/a	n/a
85.3490000000	n/a	85349	NeuStim	n/a	n/a	n/a	n/a
88.4490000000	n/a	88449	NeuNonAlcP2000	n/a	n/a	n/a	n/a
92.4360000000	n/a	92436	NeuNonAlcP2000	n/a	n/a	n/a	n/a
103.9150000000	n/a	103915	NegStim	n/a	n/a	n/a	n/a
107.0150000000	n/a	107015	NegAlcP2000	n/a	n/a	n/a	n/a
111.0020000000	n/a	111002	NegAlcP2000	n/a	n/a	n/a	n/a
122.8820000000	n/a	122882	NeuStim	n/a	n/a	n/a	n/a
125.9150000000	n/a	125915	NeuAlcStimWithoutStartle	n/a	n/a	n/a	n/a
142.0820000000	n/a	142082	PosStim	n/a	n/a	n/a	n/a
145.1820000000	n/a	145182	PosAlcP1000	n/a	n/a	n/a	n/a
150.1690000000	n/a	150169	PosAlcP1000	n/a	n/a	n/a	n/a
160.0320000000	n/a	160032	NeuStim	n/a	n/a	n/a	n/a
163.1320000000	n/a	163132	NeuAlcP2000	n/a	n/a	n/a	n/a
167.1190000000	n/a	167119	NeuAlcP2000	n/a	n/a	n/a	n/a
176.4150000000	n/a	176415	NegStim	n/a	n/a	n/a	n/a
179.5150000000	n/a	179515	NegAlcP3000	n/a	n/a	n/a	n/a
182.5020000000	n/a	182502	NegAlcP3000	n/a	n/a	n/a	n/a
196.3490000000	n/a	196349	PosStim	n/a	n/a	n/a	n/a
199.3820000000	n/a	199382	PosNonAlcStimWithoutStartle	n/a	n/a	n/a	n/a
212.5820000000	n/a	212582	NeuStim	n/a	n/a	n/a	n/a
215.6820000000	n/a	215682	NeuAlcP1000	n/a	n/a	n/a	n/a
220.6690000000	n/a	220669	NeuAlcP1000	n/a	n/a	n/a	n/a
230.1480000000	n/a	230148	NegStim	n/a	n/a	n/a	n/a
233.2480000000	n/a	233248	NegNonAlcP3000	n/a	n/a	n/a	n/a
236.2350000000	n/a	236235	NegNonAlcP3000	n/a	n/a	n/a	n/a
248.3480000000	n/a	248348	PosStim	n/a	n/a	n/a	n/a
251.4480000000	n/a	251448	PosAlcP2000	n/a	n/a	n/a	n/a
255.4350000000	n/a	255435	PosAlcP2000	n/a	n/a	n/a	n/a
266.5980000000	n/a	266598	NegStim	n/a	n/a	n/a	n/a
269.6320000000	n/a	269632	NegNonAlcStimWithoutStartle	n/a	n/a	n/a	n/a
283.4320000000	n/a	283432	PosStim	n/a	n/a	n/a	n/a
286.4650000000	n/a	286465	PosAlcStimWithoutStartle	n/a	n/a	n/a	n/a
299.9980000000	n/a	299998	NeuStim	n/a	n/a	n/a	n/a
303.0980000000	n/a	303098	NeuNonAlcP3000	n/a	n/a	n/a	n/a
306.0850000000	n/a	306085	NeuNonAlcP3000	n/a	n/a	n/a	n/a
319.6820000000	n/a	319682	NegStim	n/a	n/a	n/a	n/a
322.7820000000	n/a	322782	NegAlcP1000	n/a	n/a	n/a	n/a
327.7690000000	n/a	327769	NegAlcP1000	n/a	n/a	n/a	n/a
337.1320000000	n/a	337132	NeuStim	n/a	n/a	n/a	n/a
340.2320000000	n/a	340232	NeuAlcP3000	n/a	n/a	n/a	n/a
343.2190000000	n/a	343219	NeuAlcP3000	n/a	n/a	n/a	n/a
353.9650000000	n/a	353965	PosStim	n/a	n/a	n/a	n/a
357.0650000000	n/a	357065	PosAlcP3000	n/a	n/a	n/a	n/a
360.0520000000	n/a	360052	PosAlcP3000	n/a	n/a	n/a	n/a
373.0150000000	n/a	373015	NeuStim	n/a	n/a	n/a	n/a
376.0480000000	n/a	376048	NeuAlcStimWithoutStartle	n/a	n/a	n/a	n/a
390.9820000000	n/a	390982	NegStim	n/a	n/a	n/a	n/a
394.0820000000	n/a	394082	NegAlcP1000	n/a	n/a	n/a	n/a
399.0690000000	n/a	399069	NegAlcP1000	n/a	n/a	n/a	n/a
408.5480000000	n/a	408548	NeuStim	n/a	n/a	n/a	n/a
411.6480000000	n/a	411648	NeuNonAlcP3000	n/a	n/a	n/a	n/a
414.6350000000	n/a	414635	NeuNonAlcP3000	n/a	n/a	n/a	n/a
427.3150000000	n/a	427315	NegStim	n/a	n/a	n/a	n/a
430.4150000000	n/a	430415	NegNonAlcP2000	n/a	n/a	n/a	n/a
434.4020000000	n/a	434402	NegNonAlcP2000	n/a	n/a	n/a	n/a
445.4650000000	n/a	445465	PosStim	n/a	n/a	n/a	n/a
448.4980000000	n/a	448498	PosNonAlcStimWithoutStartle	n/a	n/a	n/a	n/a
464.0980000000	n/a	464098	NeuStim	n/a	n/a	n/a	n/a
467.1310000000	n/a	467131	NeuNonAlcStimWithoutStartle	n/a	n/a	n/a	n/a
483.8650000000	n/a	483865	PosStim	n/a	n/a	n/a	n/a
486.9650000000	n/a	486965	PosNonAlcP1000	n/a	n/a	n/a	n/a
491.9520000000	n/a	491952	PosNonAlcP1000	n/a	n/a	n/a	n/a
500.7480000000	n/a	500748	NegStim	n/a	n/a	n/a	n/a
503.7810000000	n/a	503781	NegAlcStimWithoutStartle	n/a	n/a	n/a	n/a
520.4650000000	n/a	520465	NeuStim	n/a	n/a	n/a	n/a
523.5650000000	n/a	523565	NeuAlcP2000	n/a	n/a	n/a	n/a
527.5520000000	n/a	527552	NeuAlcP2000	n/a	n/a	n/a	n/a
537.3650000000	n/a	537365	PosStim	n/a	n/a	n/a	n/a
540.4650000000	n/a	540465	PosNonAlcP1000	n/a	n/a	n/a	n/a
545.4520000000	n/a	545452	PosNonAlcP1000	n/a	n/a	n/a	n/a
555.4150000000	n/a	555415	NeuStim	n/a	n/a	n/a	n/a
558.5150000000	n/a	558515	NeuNonAlcP1000	n/a	n/a	n/a	n/a
563.5020000000	n/a	563502	NeuNonAlcP1000	n/a	n/a	n/a	n/a
572.7150000000	n/a	572715	PosStim	n/a	n/a	n/a	n/a
575.7480000000	n/a	575748	PosNonAlcStimWithoutStartle	n/a	n/a	n/a	n/a
590.1650000000	n/a	590165	NegStim	n/a	n/a	n/a	n/a
593.2650000000	n/a	593265	NegAlcP2000	n/a	n/a	n/a	n/a
597.2520000000	n/a	597252	NegAlcP2000	n/a	n/a	n/a	n/a
608.8650000000	n/a	608865	NeuStim	n/a	n/a	n/a	n/a
611.9650000000	n/a	611965	NeuAlcP3000	n/a	n/a	n/a	n/a
614.9520000000	n/a	614952	NeuAlcP3000	n/a	n/a	n/a	n/a
629.0150000000	n/a	629015	NegStim	n/a	n/a	n/a	n/a
632.0480000000	n/a	632048	NegAlcStimWithoutStartle	n/a	n/a	n/a	n/a
648.4310000000	n/a	648431	NeuStim	n/a	n/a	n/a	n/a
651.5310000000	n/a	651531	NeuNonAlcP2000	n/a	n/a	n/a	n/a
655.5180000000	n/a	655518	NeuNonAlcP2000	n/a	n/a	n/a	n/a
664.9810000000	n/a	664981	PosStim	n/a	n/a	n/a	n/a
668.0810000000	n/a	668081	PosNonAlcP3000	n/a	n/a	n/a	n/a
671.0680000000	n/a	671068	PosNonAlcP3000	n/a	n/a	n/a	n/a
684.2480000000	n/a	684248	NegStim	n/a	n/a	n/a	n/a
687.3480000000	n/a	687348	NegAlcP3000	n/a	n/a	n/a	n/a
690.3350000000	n/a	690335	NegAlcP3000	n/a	n/a	n/a	n/a
702.2140000000	n/a	702214	PosStim	n/a	n/a	n/a	n/a
705.2480000000	n/a	705248	PosAlcStimWithoutStartle	n/a	n/a	n/a	n/a
720.1310000000	n/a	720131	NegStim	n/a	n/a	n/a	n/a
723.2310000000	n/a	723231	NegAlcP1000	n/a	n/a	n/a	n/a
728.2180000000	n/a	728218	NegAlcP1000	n/a	n/a	n/a	n/a
737.5480000000	n/a	737548	PosStim	n/a	n/a	n/a	n/a
740.5810000000	n/a	740581	PosAlcStimWithoutStartle	n/a	n/a	n/a	n/a
756.1310000000	n/a	756131	NegStim	n/a	n/a	n/a	n/a
759.2310000000	n/a	759231	NegNonAlcP2000	n/a	n/a	n/a	n/a
763.2180000000	n/a	763218	NegNonAlcP2000	n/a	n/a	n/a	n/a
772.4810000000	n/a	772481	PosStim	n/a	n/a	n/a	n/a
775.5810000000	n/a	775581	PosAlcP2000	n/a	n/a	n/a	n/a
779.5680000000	n/a	779568	PosAlcP2000	n/a	n/a	n/a	n/a
789.7810000000	n/a	789781	NeuStim	n/a	n/a	n/a	n/a
792.8140000000	n/a	792814	NeuNonAlcStimWithoutStartle	n/a	n/a	n/a	n/a
809.3640000000	n/a	809364	PosStim	n/a	n/a	n/a	n/a
812.4640000000	n/a	812464	PosNonAlcP2000	n/a	n/a	n/a	n/a
816.4510000000	n/a	816451	PosNonAlcP2000	n/a	n/a	n/a	n/a
826.5810000000	n/a	826581	NegStim	n/a	n/a	n/a	n/a
829.6140000000	n/a	829614	NegAlcStimWithoutStartle	n/a	n/a	n/a	n/a
846.0140000000	n/a	846014	PosStim	n/a	n/a	n/a	n/a
849.1140000000	n/a	849114	PosAlcP3000	n/a	n/a	n/a	n/a
852.1010000000	n/a	852101	PosAlcP3000	n/a	n/a	n/a	n/a
865.2140000000	n/a	865214	PosStim	n/a	n/a	n/a	n/a
868.3140000000	n/a	868314	PosNonAlcP3000	n/a	n/a	n/a	n/a
871.3010000000	n/a	871301	PosNonAlcP3000	n/a	n/a	n/a	n/a
881.5470000000	n/a	881547	NeuStim	n/a	n/a	n/a	n/a
884.5810000000	n/a	884581	NeuNonAlcStimWithoutStartle	n/a	n/a	n/a	n/a
900.0140000000	n/a	900014	NeuStim	n/a	n/a	n/a	n/a
903.1140000000	n/a	903114	NeuNonAlcP3000	n/a	n/a	n/a	n/a
906.1010000000	n/a	906101	NeuNonAlcP3000	n/a	n/a	n/a	n/a
918.3470000000	n/a	918347	PosStim	n/a	n/a	n/a	n/a
921.4470000000	n/a	921447	PosAlcP2000	n/a	n/a	n/a	n/a
925.4340000000	n/a	925434	PosAlcP2000	n/a	n/a	n/a	n/a
938.0310000000	n/a	938031	NegStim	n/a	n/a	n/a	n/a
941.1310000000	n/a	941131	NegAlcP1000	n/a	n/a	n/a	n/a
946.1180000000	n/a	946118	NegAlcP1000	n/a	n/a	n/a	n/a
957.7970000000	n/a	957797	PosStim	n/a	n/a	n/a	n/a
960.8970000000	n/a	960897	PosNonAlcP2000	n/a	n/a	n/a	n/a
964.8840000000	n/a	964884	PosNonAlcP2000	n/a	n/a	n/a	n/a
976.4470000000	n/a	976447	NeuStim	n/a	n/a	n/a	n/a
979.4810000000	n/a	979481	NeuNonAlcStimWithoutStartle	n/a	n/a	n/a	n/a
996.2810000000	n/a	996281	NegStim	n/a	n/a	n/a	n/a
999.3810000000	n/a	999381	NegAlcP2000	n/a	n/a	n/a	n/a
1003.3680000000	n/a	1003368	NegAlcP2000	n/a	n/a	n/a	n/a
1014.7640000000	n/a	1014764	PosStim	n/a	n/a	n/a	n/a
1017.8640000000	n/a	1017864	PosAlcP3000	n/a	n/a	n/a	n/a
1020.8510000000	n/a	1020851	PosAlcP3000	n/a	n/a	n/a	n/a
1032.2640000000	n/a	1032264	NeuStim	n/a	n/a	n/a	n/a
1035.2970000000	n/a	1035297	NeuAlcStimWithoutStartle	n/a	n/a	n/a	n/a
1048.8310000000	n/a	1048831	NegStim	n/a	n/a	n/a	n/a
1051.9310000000	n/a	1051931	NegNonAlcP3000	n/a	n/a	n/a	n/a
1054.9180000000	n/a	1054918	NegNonAlcP3000	n/a	n/a	n/a	n/a
