onset	duration	sample	trial_type	response_time	stim_file	value	correct
12.9270000000	n/a	12927	ignore	2178	n/a	n/a	1
16.1770000000	n/a	16177	ignore	1000	n/a	n/a	1
18.1770000000	n/a	18177	ignore	1700	n/a	n/a	1
19.8770000000	n/a	19877	ignore	9785	n/a	n/a	0
30.7270000000	n/a	30727	ignore	1000	n/a	n/a	1
32.7270000000	n/a	32727	ignore	1700	n/a	n/a	1
34.4270000000	n/a	34427	ignore	9190	n/a	n/a	0
44.6930000000	n/a	44693	ignore	1000	n/a	n/a	1
46.6930000000	n/a	46693	ignore	1700	n/a	n/a	1
48.3930000000	n/a	48393	ignore	8038	n/a	n/a	0
57.4930000000	n/a	57493	ignore	1000	n/a	n/a	1
59.4930000000	n/a	59493	ignore	1700	n/a	n/a	1
61.1930000000	n/a	61193	ignore	5320	n/a	n/a	0
67.5770000000	n/a	67577	ignore	1000	n/a	n/a	1
69.5770000000	n/a	69577	ignore	1700	n/a	n/a	1
71.2770000000	n/a	71277	ignore	6030	n/a	n/a	0
78.3770000000	n/a	78377	ignore	1000	n/a	n/a	1
80.3770000000	n/a	80377	ignore	1700	n/a	n/a	1
82.0770000000	n/a	82077	ignore	4663	n/a	n/a	1
87.8100000000	n/a	87810	ignore	1000	n/a	n/a	1
89.8100000000	n/a	89810	ignore	1700	n/a	n/a	1
91.5100000000	n/a	91510	ignore	4868	n/a	n/a	0
97.4430000000	n/a	97443	ignore	1000	n/a	n/a	1
99.4430000000	n/a	99443	ignore	1700	n/a	n/a	1
101.1430000000	n/a	101143	ignore	6311	n/a	n/a	0
107.5270000000	n/a	107527	STATUS	2000	n/a	n/a	1
124.4430000000	n/a	124443	ignore	1000	n/a	n/a	1
126.4430000000	n/a	126443	ignore	1700	n/a	n/a	1
128.1430000000	n/a	128143	ignore	1848	n/a	n/a	1
131.0600000000	n/a	131060	ignore	1000	n/a	n/a	1
133.0600000000	n/a	133060	ignore	1700	n/a	n/a	1
134.7600000000	n/a	134760	ignore	1086	n/a	n/a	1
136.9100000000	n/a	136910	ignore	1000	n/a	n/a	1
138.9100000000	n/a	138910	ignore	1700	n/a	n/a	1
140.6100000000	n/a	140610	ignore	942	n/a	n/a	1
142.6260000000	n/a	142626	ignore	1000	n/a	n/a	1
144.6270000000	n/a	144627	ignore	1700	n/a	n/a	1
146.3260000000	n/a	146326	ignore	967	n/a	n/a	1
148.3600000000	n/a	148360	ignore	1000	n/a	n/a	1
150.3600000000	n/a	150360	ignore	1700	n/a	n/a	1
152.0600000000	n/a	152060	ignore	1887	n/a	n/a	1
155.0100000000	n/a	155010	ignore	1000	n/a	n/a	1
157.0100000000	n/a	157010	ignore	1700	n/a	n/a	1
158.7100000000	n/a	158710	ignore	3240	n/a	n/a	1
163.0260000000	n/a	163026	ignore	1000	n/a	n/a	1
165.0270000000	n/a	165027	ignore	1700	n/a	n/a	1
166.7260000000	n/a	166726	ignore	1945	n/a	n/a	1
169.7430000000	n/a	169743	ignore	1000	n/a	n/a	1
171.7430000000	n/a	171743	ignore	1700	n/a	n/a	1
173.4430000000	n/a	173443	ignore	2323	n/a	n/a	0
175.8430000000	n/a	175843	STATUS	2000	n/a	n/a	1
306.2100000000	n/a	306210	PenaltyB1	2986	n/a	n/a	1
310.2600000000	n/a	310260	NeuCorrB1	1000	n/a	n/a	1
312.2600000000	n/a	312260	ignore	1700	n/a	n/a	1
313.9600000000	n/a	313960	PenaltyB1	1102	n/a	n/a	1
316.1260000000	n/a	316126	NeuCorrB1	1000	n/a	n/a	1
318.1260000000	n/a	318126	ignore	1700	n/a	n/a	1
319.8260000000	n/a	319826	PenaltyB1	3445	n/a	n/a	1
324.3430000000	n/a	324343	NeuCorrB1	1000	n/a	n/a	1
326.3430000000	n/a	326343	ignore	1700	n/a	n/a	1
328.0430000000	n/a	328043	RewardB1	1501	n/a	n/a	1
330.6100000000	n/a	330610	RewardCorrB1	1000	n/a	n/a	1
332.6100000000	n/a	332610	ignore	1700	n/a	n/a	1
334.3100000000	n/a	334310	RewardB1	3183	n/a	n/a	1
338.5600000000	n/a	338560	RewardCorrB1	1000	n/a	n/a	1
340.5600000000	n/a	340560	ignore	1700	n/a	n/a	1
342.2600000000	n/a	342260	PenaltyB1	3179	n/a	n/a	1
346.5100000000	n/a	346510	NeuCorrB1	1000	n/a	n/a	1
348.5100000000	n/a	348510	ignore	1700	n/a	n/a	1
350.2100000000	n/a	350210	PenaltyB1	915	n/a	n/a	1
352.1930000000	n/a	352193	NeuCorrB1	1000	n/a	n/a	1
354.1930000000	n/a	354193	ignore	1700	n/a	n/a	1
355.8930000000	n/a	355893	PenaltyB1	1146	n/a	n/a	1
358.1100000000	n/a	358110	NeuCorrB1	1000	n/a	n/a	1
360.1100000000	n/a	360110	ignore	1700	n/a	n/a	1
361.8100000000	n/a	361810	PenaltyB1	854	n/a	n/a	1
363.7260000000	n/a	363726	PunCorrB1	1000	n/a	n/a	1
365.7260000000	n/a	365726	ignore	1700	n/a	n/a	1
367.4260000000	n/a	367426	RewardB1	1021	n/a	n/a	0
369.5090000000	n/a	369509	NeuIncorrB1	1000	n/a	n/a	1
371.5100000000	n/a	371510	ignore	1700	n/a	n/a	1
373.2090000000	n/a	373209	PenaltyB1	1280	n/a	n/a	1
375.5590000000	n/a	375559	NeuCorrB1	1000	n/a	n/a	1
377.5600000000	n/a	377560	ignore	1700	n/a	n/a	1
379.2590000000	n/a	379259	RewardB1	2096	n/a	n/a	0
382.4260000000	n/a	382426	RewIncorrB1	1000	n/a	n/a	1
384.4260000000	n/a	384426	ignore	1700	n/a	n/a	1
386.1260000000	n/a	386126	PenaltyB1	1406	n/a	n/a	1
388.6090000000	n/a	388609	NeuCorrB1	1000	n/a	n/a	1
390.6100000000	n/a	390610	ignore	1700	n/a	n/a	1
392.3090000000	n/a	392309	RewardB1	1140	n/a	n/a	1
394.5260000000	n/a	394526	RewardCorrB1	1000	n/a	n/a	1
396.5260000000	n/a	396526	ignore	1700	n/a	n/a	1
398.2260000000	n/a	398226	PenaltyB1	745	n/a	n/a	1
400.0430000000	n/a	400043	NeuCorrB1	1000	n/a	n/a	1
402.0430000000	n/a	402043	ignore	1700	n/a	n/a	1
403.7430000000	n/a	403743	PenaltyB1	1216	n/a	n/a	1
406.0260000000	n/a	406026	NeuCorrB1	1000	n/a	n/a	1
408.0260000000	n/a	408026	ignore	1700	n/a	n/a	1
409.7260000000	n/a	409726	RewardB1	685	n/a	n/a	1
411.4760000000	n/a	411476	NeuCorrB1	1000	n/a	n/a	1
413.4760000000	n/a	413476	ignore	1700	n/a	n/a	1
415.1760000000	n/a	415176	PenaltyB1	1187	n/a	n/a	1
417.4260000000	n/a	417426	NeuCorrB1	1000	n/a	n/a	1
419.4260000000	n/a	419426	ignore	1700	n/a	n/a	1
421.1260000000	n/a	421126	RewardB1	991	n/a	n/a	1
423.1930000000	n/a	423193	RewardCorrB1	1000	n/a	n/a	1
425.1930000000	n/a	425193	ignore	1700	n/a	n/a	1
426.8930000000	n/a	426893	RewardB1	1286	n/a	n/a	1
429.2430000000	n/a	429243	RewardCorrB1	1000	n/a	n/a	1
431.2430000000	n/a	431243	ignore	1700	n/a	n/a	1
432.9430000000	n/a	432943	RewardB1	1528	n/a	n/a	1
435.5430000000	n/a	435543	NeuCorrB1	1000	n/a	n/a	1
437.5430000000	n/a	437543	ignore	1700	n/a	n/a	1
439.2430000000	n/a	439243	RewardB1	1152	n/a	n/a	1
441.4590000000	n/a	441459	RewardCorrB1	1000	n/a	n/a	1
443.4590000000	n/a	443459	ignore	1700	n/a	n/a	1
445.1590000000	n/a	445159	RewardB1	1121	n/a	n/a	1
447.3590000000	n/a	447359	RewardCorrB1	1000	n/a	n/a	1
449.3590000000	n/a	449359	ignore	1700	n/a	n/a	1
451.0590000000	n/a	451059	PenaltyB1	570	n/a	n/a	1
452.6930000000	n/a	452693	NeuCorrB1	1000	n/a	n/a	1
454.6930000000	n/a	454693	ignore	1700	n/a	n/a	1
456.3930000000	n/a	456393	RewardB1	852	n/a	n/a	0
458.3090000000	n/a	458309	NeuIncorrB1	1000	n/a	n/a	1
460.3090000000	n/a	460309	ignore	1700	n/a	n/a	1
462.0090000000	n/a	462009	PenaltyB1	1065	n/a	n/a	1
464.1430000000	n/a	464143	PunCorrB1	1000	n/a	n/a	1
466.1430000000	n/a	466143	ignore	1700	n/a	n/a	1
467.8430000000	n/a	467843	RewardB1	1913	n/a	n/a	1
470.8260000000	n/a	470826	RewardCorrB1	1000	n/a	n/a	1
472.8260000000	n/a	472826	ignore	1700	n/a	n/a	1
474.5260000000	n/a	474526	RewardB1	723	n/a	n/a	1
476.3260000000	n/a	476326	RewardCorrB1	1000	n/a	n/a	1
478.3260000000	n/a	478326	STATUS	1700	n/a	n/a	1
480.0260000000	n/a	480026	RewardB1	991	n/a	n/a	0
482.0930000000	n/a	482093	NeuIncorrB1	1000	n/a	n/a	1
484.0930000000	n/a	484093	STATUS	1700	n/a	n/a	1
485.7930000000	n/a	485793	PenaltyB1	1689	n/a	n/a	1
488.5590000000	n/a	488559	NeuCorrB1	1000	n/a	n/a	1
490.5590000000	n/a	490559	STATUS	1700	n/a	n/a	1
492.2590000000	n/a	492259	RewardB1	1028	n/a	n/a	1
494.3590000000	n/a	494359	NeuCorrB1	1000	n/a	n/a	1
496.3590000000	n/a	496359	STATUS	1700	n/a	n/a	1
498.0590000000	n/a	498059	PenaltyB1	727	n/a	n/a	1
499.8590000000	n/a	499859	NeuCorrB1	1000	n/a	n/a	1
501.8590000000	n/a	501859	STATUS	1700	n/a	n/a	1
503.5590000000	n/a	503559	RewardB1	748	n/a	n/a	1
505.3760000000	n/a	505376	RewardCorrB1	1000	n/a	n/a	1
507.3760000000	n/a	507376	STATUS	1700	n/a	n/a	1
509.0760000000	n/a	509076	PenaltyB1	954	n/a	n/a	1
511.0930000000	n/a	511093	PunCorrB1	1000	n/a	n/a	1
513.0930000000	n/a	513093	STATUS	1700	n/a	n/a	1
514.7930000000	n/a	514793	RewardB1	891	n/a	n/a	1
516.7590000000	n/a	516759	RewardCorrB1	1000	n/a	n/a	1
518.7590000000	n/a	518759	STATUS	1700	n/a	n/a	1
520.4590000000	n/a	520459	PenaltyB1	924	n/a	n/a	1
522.4590000000	n/a	522459	NeuCorrB1	1000	n/a	n/a	1
524.4590000000	n/a	524459	STATUS	1700	n/a	n/a	1
526.1590000000	n/a	526159	PenaltyB1	666	n/a	n/a	1
527.8930000000	n/a	527893	NeuCorrB1	1000	n/a	n/a	1
529.8930000000	n/a	529893	STATUS	1700	n/a	n/a	1
531.5930000000	n/a	531593	RewardB1	814	n/a	n/a	1
533.4760000000	n/a	533476	RewardCorrB1	1000	n/a	n/a	1
535.4760000000	n/a	535476	STATUS	1700	n/a	n/a	1
537.1760000000	n/a	537176	PenaltyB1	1433	n/a	n/a	1
539.6760000000	n/a	539676	PunCorrB1	1000	n/a	n/a	1
541.6760000000	n/a	541676	STATUS	1700	n/a	n/a	1
543.3760000000	n/a	543376	RewardB1	942	n/a	n/a	1
545.3930000000	n/a	545393	RewardCorrB1	1000	n/a	n/a	1
547.3930000000	n/a	547393	STATUS	1700	n/a	n/a	1
557.0260000000	n/a	557026	RewardB2	1644	n/a	n/a	1
559.7430000000	n/a	559743	RewardCorrB2	1000	n/a	n/a	1
561.7430000000	n/a	561743	STATUS	1700	n/a	n/a	1
563.4430000000	n/a	563443	PenaltyB2	858	n/a	n/a	1
565.3760000000	n/a	565376	NeuCorrB2	1000	n/a	n/a	1
567.3760000000	n/a	567376	STATUS	1700	n/a	n/a	1
569.0760000000	n/a	569076	RewardB2	732	n/a	n/a	1
570.8760000000	n/a	570876	RewardCorrB2	1000	n/a	n/a	1
572.8760000000	n/a	572876	STATUS	1700	n/a	n/a	1
574.5760000000	n/a	574576	RewardB2	1767	n/a	n/a	1
577.4090000000	n/a	577409	NeuCorrB2	1000	n/a	n/a	1
579.4090000000	n/a	579409	STATUS	1700	n/a	n/a	1
581.1090000000	n/a	581109	PenaltyB2	874	n/a	n/a	1
583.0590000000	n/a	583059	NeuCorrB2	1000	n/a	n/a	1
585.0590000000	n/a	585059	STATUS	1700	n/a	n/a	1
586.7590000000	n/a	586759	RewardB2	822	n/a	n/a	1
588.6590000000	n/a	588659	RewardCorrB2	1000	n/a	n/a	1
590.6590000000	n/a	590659	STATUS	1700	n/a	n/a	1
592.3590000000	n/a	592359	PenaltyB2	1534	n/a	n/a	1
594.9590000000	n/a	594959	NeuCorrB2	1000	n/a	n/a	1
596.9590000000	n/a	596959	STATUS	1700	n/a	n/a	1
598.6590000000	n/a	598659	RewardB2	1072	n/a	n/a	1
600.8090000000	n/a	600809	RewardCorrB2	1000	n/a	n/a	1
602.8090000000	n/a	602809	STATUS	1700	n/a	n/a	1
604.5090000000	n/a	604509	PenaltyB2	749	n/a	n/a	1
606.3260000000	n/a	606326	NeuCorrB2	1000	n/a	n/a	1
608.3260000000	n/a	608326	STATUS	1700	n/a	n/a	1
610.0260000000	n/a	610026	RewardB2	772	n/a	n/a	1
611.8760000000	n/a	611876	RewardCorrB2	1000	n/a	n/a	1
613.8760000000	n/a	613876	STATUS	1700	n/a	n/a	1
615.5760000000	n/a	615576	PenaltyB2	785	n/a	n/a	1
617.4260000000	n/a	617426	PunCorrB2	1000	n/a	n/a	1
619.4260000000	n/a	619426	STATUS	1700	n/a	n/a	1
621.1260000000	n/a	621126	RewardB2	764	n/a	n/a	1
622.9590000000	n/a	622959	RewardCorrB2	1000	n/a	n/a	1
624.9590000000	n/a	624959	STATUS	1700	n/a	n/a	1
626.6590000000	n/a	626659	PenaltyB2	1321	n/a	n/a	1
629.0420000000	n/a	629042	NeuCorrB2	1000	n/a	n/a	1
631.0430000000	n/a	631043	STATUS	1700	n/a	n/a	1
632.7420000000	n/a	632742	RewardB2	731	n/a	n/a	1
634.5420000000	n/a	634542	RewardCorrB2	1000	n/a	n/a	1
636.5430000000	n/a	636543	STATUS	1700	n/a	n/a	1
638.2420000000	n/a	638242	PenaltyB2	764	n/a	n/a	1
640.0760000000	n/a	640076	NeuCorrB2	1000	n/a	n/a	1
642.0760000000	n/a	642076	STATUS	1700	n/a	n/a	1
643.7760000000	n/a	643776	RewardB2	881	n/a	n/a	0
645.7260000000	n/a	645726	RewIncorrB2	1000	n/a	n/a	1
647.7260000000	n/a	647726	STATUS	1700	n/a	n/a	1
649.4260000000	n/a	649426	PenaltyB2	827	n/a	n/a	1
651.3260000000	n/a	651326	NeuCorrB2	1000	n/a	n/a	1
653.3260000000	n/a	653326	STATUS	1700	n/a	n/a	1
655.0260000000	n/a	655026	RewardB2	921	n/a	n/a	1
657.0090000000	n/a	657009	RewardCorrB2	1000	n/a	n/a	1
659.0090000000	n/a	659009	STATUS	1700	n/a	n/a	1
660.7090000000	n/a	660709	PenaltyB2	3443	n/a	n/a	1
665.2260000000	n/a	665226	NeuCorrB2	1000	n/a	n/a	1
667.2260000000	n/a	667226	STATUS	1700	n/a	n/a	1
668.9260000000	n/a	668926	RewardB2	695	n/a	n/a	1
670.6920000000	n/a	670692	RewardCorrB2	1000	n/a	n/a	1
672.6920000000	n/a	672692	STATUS	1700	n/a	n/a	1
674.3920000000	n/a	674392	PenaltyB2	809	n/a	n/a	1
676.2760000000	n/a	676276	PunCorrB2	1000	n/a	n/a	1
678.2760000000	n/a	678276	STATUS	1700	n/a	n/a	1
679.9760000000	n/a	679976	PenaltyB2	810	n/a	n/a	1
681.8590000000	n/a	681859	NeuCorrB2	1000	n/a	n/a	1
683.8590000000	n/a	683859	STATUS	1700	n/a	n/a	1
685.5590000000	n/a	685559	PenaltyB2	1624	n/a	n/a	1
688.2590000000	n/a	688259	NeuCorrB2	1000	n/a	n/a	1
690.2590000000	n/a	690259	STATUS	1700	n/a	n/a	1
691.9590000000	n/a	691959	RewardB2	1454	n/a	n/a	1
694.4760000000	n/a	694476	RewardCorrB2	1000	n/a	n/a	1
696.4760000000	n/a	696476	STATUS	1700	n/a	n/a	1
698.1760000000	n/a	698176	RewardB2	897	n/a	n/a	1
700.1420000000	n/a	700142	NeuCorrB2	1000	n/a	n/a	1
702.1420000000	n/a	702142	STATUS	1700	n/a	n/a	1
703.8420000000	n/a	703842	RewardB2	950	n/a	n/a	1
705.8590000000	n/a	705859	RewardCorrB2	1000	n/a	n/a	1
707.8590000000	n/a	707859	STATUS	1700	n/a	n/a	1
709.5590000000	n/a	709559	PenaltyB2	737	n/a	n/a	1
711.3590000000	n/a	711359	NeuCorrB2	1000	n/a	n/a	1
713.3590000000	n/a	713359	STATUS	1700	n/a	n/a	1
715.0590000000	n/a	715059	PenaltyB2	13522	n/a	n/a	1
729.6590000000	n/a	729659	NeuCorrB2	1000	n/a	n/a	1
731.6590000000	n/a	731659	STATUS	1700	n/a	n/a	1
733.3590000000	n/a	733359	RewardB2	1050	n/a	n/a	1
735.4760000000	n/a	735476	RewardCorrB2	1000	n/a	n/a	1
737.4760000000	n/a	737476	STATUS	1700	n/a	n/a	1
739.1760000000	n/a	739176	PenaltyB2	588	n/a	n/a	1
740.8260000000	n/a	740826	NeuCorrB2	1000	n/a	n/a	1
742.8260000000	n/a	742826	STATUS	1700	n/a	n/a	1
744.5260000000	n/a	744526	RewardB2	1011	n/a	n/a	1
746.6090000000	n/a	746609	NeuCorrB2	1000	n/a	n/a	1
748.6090000000	n/a	748609	STATUS	1700	n/a	n/a	1
750.3090000000	n/a	750309	PenaltyB2	624	n/a	n/a	1
752.0090000000	n/a	752009	NeuCorrB2	1000	n/a	n/a	1
754.0090000000	n/a	754009	STATUS	1700	n/a	n/a	1
755.7090000000	n/a	755709	RewardB2	731	n/a	n/a	1
757.5090000000	n/a	757509	RewardCorrB2	1000	n/a	n/a	1
759.5090000000	n/a	759509	STATUS	1700	n/a	n/a	1
761.2090000000	n/a	761209	PenaltyB2	683	n/a	n/a	1
762.9590000000	n/a	762959	NeuCorrB2	1000	n/a	n/a	1
764.9590000000	n/a	764959	STATUS	1700	n/a	n/a	1
766.6590000000	n/a	766659	PenaltyB2	7989	n/a	n/a	1
775.7260000000	n/a	775726	PunCorrB2	1000	n/a	n/a	1
777.7260000000	n/a	777726	STATUS	1700	n/a	n/a	1
779.4260000000	n/a	779426	RewardB2	739	n/a	n/a	1
781.2420000000	n/a	781242	RewardCorrB2	1000	n/a	n/a	1
783.2420000000	n/a	783242	STATUS	1700	n/a	n/a	1
784.9420000000	n/a	784942	PenaltyB2	910	n/a	n/a	1
786.9260000000	n/a	786926	NeuCorrB2	1000	n/a	n/a	1
788.9260000000	n/a	788926	STATUS	1700	n/a	n/a	1
790.6260000000	n/a	790626	RewardB2	737	n/a	n/a	1
792.4260000000	n/a	792426	RewardCorrB2	1000	n/a	n/a	1
794.4260000000	n/a	794426	STATUS	1700	n/a	n/a	1
796.1260000000	n/a	796126	PenaltyB2	937	n/a	n/a	1
798.1260000000	n/a	798126	PunCorrB2	1000	n/a	n/a	1
800.1260000000	n/a	800126	STATUS	1700	n/a	n/a	1
801.8260000000	n/a	801826	RewardB2	721	n/a	n/a	1
803.6090000000	n/a	803609	RewardCorrB2	1000	n/a	n/a	1
805.6090000000	n/a	805609	STATUS	1700	n/a	n/a	1
826.7590000000	n/a	826759	RewardB3	2392	n/a	n/a	1
830.2260000000	n/a	830226	RewardCorrB3	1000	n/a	n/a	1
832.2260000000	n/a	832226	STATUS	1700	n/a	n/a	1
833.9260000000	n/a	833926	PenaltyB3	749	n/a	n/a	1
835.7420000000	n/a	835742	PunCorrB3	1000	n/a	n/a	1
837.7420000000	n/a	837742	STATUS	1700	n/a	n/a	1
839.4420000000	n/a	839442	RewardB3	1144	n/a	n/a	1
841.6590000000	n/a	841659	RewardCorrB3	1000	n/a	n/a	1
843.6590000000	n/a	843659	STATUS	1700	n/a	n/a	1
845.3590000000	n/a	845359	PenaltyB3	666	n/a	n/a	1
847.0920000000	n/a	847092	NeuCorrB3	1000	n/a	n/a	1
849.0920000000	n/a	849092	STATUS	1700	n/a	n/a	1
850.7920000000	n/a	850792	PenaltyB3	674	n/a	n/a	1
852.5420000000	n/a	852542	NeuCorrB3	1000	n/a	n/a	1
854.5420000000	n/a	854542	STATUS	1700	n/a	n/a	1
856.2420000000	n/a	856242	RewardB3	1235	n/a	n/a	1
858.5420000000	n/a	858542	RewardCorrB3	1000	n/a	n/a	1
860.5420000000	n/a	860542	STATUS	1700	n/a	n/a	1
862.2420000000	n/a	862242	PenaltyB3	699	n/a	n/a	1
864.0090000000	n/a	864009	PunCorrB3	1000	n/a	n/a	1
866.0090000000	n/a	866009	STATUS	1700	n/a	n/a	1
867.7090000000	n/a	867709	RewardB3	603	n/a	n/a	1
869.3750000000	n/a	869375	RewardCorrB3	1000	n/a	n/a	1
871.3760000000	n/a	871376	STATUS	1700	n/a	n/a	1
873.0750000000	n/a	873075	PenaltyB3	1257	n/a	n/a	1
875.4090000000	n/a	875409	NeuCorrB3	1000	n/a	n/a	1
877.4090000000	n/a	877409	STATUS	1700	n/a	n/a	1
879.1090000000	n/a	879109	RewardB3	3487	n/a	n/a	1
883.6590000000	n/a	883659	NeuCorrB3	1000	n/a	n/a	1
885.6590000000	n/a	885659	STATUS	1700	n/a	n/a	1
887.3590000000	n/a	887359	PenaltyB3	754	n/a	n/a	1
889.1750000000	n/a	889175	NeuCorrB3	1000	n/a	n/a	1
891.1760000000	n/a	891176	STATUS	1700	n/a	n/a	1
892.8750000000	n/a	892875	RewardB3	793	n/a	n/a	1
894.7420000000	n/a	894742	RewardCorrB3	1000	n/a	n/a	1
896.7420000000	n/a	896742	STATUS	1700	n/a	n/a	1
898.4420000000	n/a	898442	RewardB3	685	n/a	n/a	1
900.1920000000	n/a	900192	RewardCorrB3	1000	n/a	n/a	1
902.1920000000	n/a	902192	STATUS	1700	n/a	n/a	1
903.8920000000	n/a	903892	RewardB3	901	n/a	n/a	1
905.8590000000	n/a	905859	RewardCorrB3	1000	n/a	n/a	1
907.8590000000	n/a	907859	STATUS	1700	n/a	n/a	1
909.5590000000	n/a	909559	PenaltyB3	955	n/a	n/a	1
911.5920000000	n/a	911592	PunCorrB3	1000	n/a	n/a	1
913.5920000000	n/a	913592	STATUS	1700	n/a	n/a	1
915.2920000000	n/a	915292	RewardB3	719	n/a	n/a	1
917.0750000000	n/a	917075	RewardCorrB3	1000	n/a	n/a	1
919.0750000000	n/a	919075	STATUS	1700	n/a	n/a	1
920.7750000000	n/a	920775	PenaltyB3	1278	n/a	n/a	1
923.1250000000	n/a	923125	NeuCorrB3	1000	n/a	n/a	1
925.1250000000	n/a	925125	STATUS	1700	n/a	n/a	1
926.8250000000	n/a	926825	RewardB3	702	n/a	n/a	1
928.5920000000	n/a	928592	RewardCorrB3	1000	n/a	n/a	1
930.5920000000	n/a	930592	STATUS	1700	n/a	n/a	1
932.2920000000	n/a	932292	RewardB3	1483	n/a	n/a	1
934.8420000000	n/a	934842	RewardCorrB3	1000	n/a	n/a	1
936.8420000000	n/a	936842	STATUS	1700	n/a	n/a	1
938.5420000000	n/a	938542	RewardB3	721	n/a	n/a	1
940.3250000000	n/a	940325	NeuCorrB3	1000	n/a	n/a	1
942.3250000000	n/a	942325	STATUS	1700	n/a	n/a	1
944.0250000000	n/a	944025	RewardB3	678	n/a	n/a	1
945.7750000000	n/a	945775	RewardCorrB3	1000	n/a	n/a	1
947.7750000000	n/a	947775	STATUS	1700	n/a	n/a	1
949.4750000000	n/a	949475	RewardB3	4921	n/a	n/a	1
955.4590000000	n/a	955459	RewardCorrB3	1000	n/a	n/a	1
957.4590000000	n/a	957459	STATUS	1700	n/a	n/a	1
959.1590000000	n/a	959159	PenaltyB3	667	n/a	n/a	1
960.8920000000	n/a	960892	NeuCorrB3	1000	n/a	n/a	1
962.8920000000	n/a	962892	STATUS	1700	n/a	n/a	1
964.5920000000	n/a	964592	RewardB3	689	n/a	n/a	1
966.3590000000	n/a	966359	NeuCorrB3	1000	n/a	n/a	1
968.3590000000	n/a	968359	STATUS	1700	n/a	n/a	1
970.0590000000	n/a	970059	PenaltyB3	7090	n/a	n/a	1
978.2250000000	n/a	978225	NeuCorrB3	1000	n/a	n/a	1
980.2250000000	n/a	980225	STATUS	1700	n/a	n/a	1
981.9250000000	n/a	981925	PenaltyB3	712	n/a	n/a	1
983.7090000000	n/a	983709	NeuCorrB3	1000	n/a	n/a	1
985.7090000000	n/a	985709	STATUS	1700	n/a	n/a	1
987.4090000000	n/a	987409	RewardB3	512	n/a	n/a	1
988.9920000000	n/a	988992	RewardCorrB3	1000	n/a	n/a	1
990.9920000000	n/a	990992	STATUS	1700	n/a	n/a	1
992.6920000000	n/a	992692	PenaltyB3	1195	n/a	n/a	1
994.9590000000	n/a	994959	NeuCorrB3	1000	n/a	n/a	1
996.9590000000	n/a	996959	STATUS	1700	n/a	n/a	1
998.6590000000	n/a	998659	RewardB3	1339	n/a	n/a	1
1001.0750000000	n/a	1001075	NeuCorrB3	1000	n/a	n/a	1
1003.0750000000	n/a	1003075	STATUS	1700	n/a	n/a	1
1004.7750000000	n/a	1004775	PenaltyB3	637	n/a	n/a	1
1006.4750000000	n/a	1006475	NeuCorrB3	1000	n/a	n/a	1
1008.4750000000	n/a	1008475	STATUS	1700	n/a	n/a	1
1010.1750000000	n/a	1010175	RewardB3	704	n/a	n/a	1
1011.9420000000	n/a	1011942	RewardCorrB3	1000	n/a	n/a	1
1013.9420000000	n/a	1013942	STATUS	1700	n/a	n/a	1
1015.6420000000	n/a	1015642	PenaltyB3	776	n/a	n/a	1
1017.4920000000	n/a	1017492	PunCorrB3	1000	n/a	n/a	1
1019.4920000000	n/a	1019492	STATUS	1700	n/a	n/a	1
1021.1920000000	n/a	1021192	PenaltyB3	664	n/a	n/a	1
1022.9250000000	n/a	1022925	NeuCorrB3	1000	n/a	n/a	1
1024.9250000000	n/a	1024925	STATUS	1700	n/a	n/a	1
1026.6250000000	n/a	1026625	PenaltyB3	560	n/a	n/a	1
1028.2590000000	n/a	1028259	NeuCorrB3	1000	n/a	n/a	1
1030.2590000000	n/a	1030259	STATUS	1700	n/a	n/a	1
1031.9590000000	n/a	1031959	PenaltyB3	680	n/a	n/a	1
1033.7090000000	n/a	1033709	NeuCorrB3	1000	n/a	n/a	1
1035.7090000000	n/a	1035709	STATUS	1700	n/a	n/a	1
1037.4090000000	n/a	1037409	RewardB3	981	n/a	n/a	1
1039.4590000000	n/a	1039459	RewardCorrB3	1000	n/a	n/a	1
1041.4590000000	n/a	1041459	STATUS	1700	n/a	n/a	1
1043.1590000000	n/a	1043159	RewardB3	1230	n/a	n/a	1
1045.4590000000	n/a	1045459	RewardCorrB3	1000	n/a	n/a	1
1047.4590000000	n/a	1047459	STATUS	1700	n/a	n/a	1
1049.1590000000	n/a	1049159	PenaltyB3	1974	n/a	n/a	1
1052.2090000000	n/a	1052209	NeuCorrB3	1000	n/a	n/a	1
1054.2090000000	n/a	1054209	STATUS	1700	n/a	n/a	1
1055.9090000000	n/a	1055909	PenaltyB3	887	n/a	n/a	1
1057.8590000000	n/a	1057859	NeuCorrB3	1000	n/a	n/a	1
1059.8590000000	n/a	1059859	STATUS	1700	n/a	n/a	1
1061.5590000000	n/a	1061559	PenaltyB3	7824	n/a	n/a	1
1070.4590000000	n/a	1070459	NeuCorrB3	1000	n/a	n/a	1
1072.4590000000	n/a	1072459	STATUS	1700	n/a	n/a	1
1077.6750000000	n/a	1077675	RewardB4	596	n/a	n/a	1
1079.3420000000	n/a	1079342	RewardCorrB4	1000	n/a	n/a	1
1081.3420000000	n/a	1081342	STATUS	1700	n/a	n/a	1
1083.0420000000	n/a	1083042	PenaltyB4	734	n/a	n/a	1
1084.8420000000	n/a	1084842	PunCorrB4	1000	n/a	n/a	1
1086.8420000000	n/a	1086842	STATUS	1700	n/a	n/a	1
1088.5420000000	n/a	1088542	RewardB4	555	n/a	n/a	1
1090.1750000000	n/a	1090175	RewardCorrB4	1000	n/a	n/a	1
1092.1750000000	n/a	1092175	STATUS	1700	n/a	n/a	1
1093.8750000000	n/a	1093875	PenaltyB4	688	n/a	n/a	1
1095.6420000000	n/a	1095642	NeuCorrB4	1000	n/a	n/a	1
1097.6420000000	n/a	1097642	STATUS	1700	n/a	n/a	1
1099.3420000000	n/a	1099342	RewardB4	675	n/a	n/a	1
1101.0920000000	n/a	1101092	RewardCorrB4	1000	n/a	n/a	1
1103.0920000000	n/a	1103092	STATUS	1700	n/a	n/a	1
1104.7920000000	n/a	1104792	PenaltyB4	5624	n/a	n/a	1
1111.4920000000	n/a	1111492	PunCorrB4	1000	n/a	n/a	1
1113.4920000000	n/a	1113492	STATUS	1700	n/a	n/a	1
1115.1920000000	n/a	1115192	PenaltyB4	672	n/a	n/a	1
1116.9420000000	n/a	1116942	NeuCorrB4	1000	n/a	n/a	1
1118.9420000000	n/a	1118942	STATUS	1700	n/a	n/a	1
1120.6420000000	n/a	1120642	RewardB4	816	n/a	n/a	1
1122.5250000000	n/a	1122525	RewardCorrB4	1000	n/a	n/a	1
1124.5250000000	n/a	1124525	STATUS	1700	n/a	n/a	1
1126.2250000000	n/a	1126225	PenaltyB4	875	n/a	n/a	1
1128.1750000000	n/a	1128175	NeuCorrB4	1000	n/a	n/a	1
1130.1750000000	n/a	1130175	STATUS	1700	n/a	n/a	1
1131.8750000000	n/a	1131875	RewardB4	1373	n/a	n/a	1
1134.3250000000	n/a	1134325	NeuCorrB4	1000	n/a	n/a	1
1136.3250000000	n/a	1136325	STATUS	1700	n/a	n/a	1
1138.0250000000	n/a	1138025	PenaltyB4	523	n/a	n/a	1
1139.6250000000	n/a	1139625	NeuCorrB4	1000	n/a	n/a	1
1141.6250000000	n/a	1141625	STATUS	1700	n/a	n/a	1
1143.3250000000	n/a	1143325	RewardB4	627	n/a	n/a	1
1145.0250000000	n/a	1145025	RewardCorrB4	1000	n/a	n/a	1
1147.0250000000	n/a	1147025	STATUS	1700	n/a	n/a	1
1148.7250000000	n/a	1148725	PenaltyB4	606	n/a	n/a	1
1150.4080000000	n/a	1150408	NeuCorrB4	1000	n/a	n/a	1
1152.4080000000	n/a	1152408	STATUS	1700	n/a	n/a	1
1154.1080000000	n/a	1154108	PenaltyB4	5081	n/a	n/a	1
1160.2580000000	n/a	1160258	NeuCorrB4	1000	n/a	n/a	1
1162.2580000000	n/a	1162258	STATUS	1700	n/a	n/a	1
1163.9580000000	n/a	1163958	RewardB4	585	n/a	n/a	1
1165.6080000000	n/a	1165608	RewardCorrB4	1000	n/a	n/a	1
1167.6080000000	n/a	1167608	STATUS	1700	n/a	n/a	1
1169.3080000000	n/a	1169308	RewardB4	3134	n/a	n/a	1
1173.5080000000	n/a	1173508	NeuCorrB4	1000	n/a	n/a	1
1175.5080000000	n/a	1175508	STATUS	1700	n/a	n/a	1
1177.2080000000	n/a	1177208	RewardB4	592	n/a	n/a	1
1178.8750000000	n/a	1178875	RewardCorrB4	1000	n/a	n/a	1
1180.8750000000	n/a	1180875	STATUS	1700	n/a	n/a	1
1182.5750000000	n/a	1182575	PenaltyB4	669	n/a	n/a	1
1184.3080000000	n/a	1184308	NeuCorrB4	1000	n/a	n/a	1
1186.3080000000	n/a	1186308	STATUS	1700	n/a	n/a	1
1188.0080000000	n/a	1188008	PenaltyB4	659	n/a	n/a	1
1189.7420000000	n/a	1189742	NeuCorrB4	1000	n/a	n/a	1
1191.7420000000	n/a	1191742	STATUS	1700	n/a	n/a	1
1193.4420000000	n/a	1193442	PenaltyB4	906	n/a	n/a	1
1195.4250000000	n/a	1195425	PunCorrB4	1000	n/a	n/a	1
1197.4250000000	n/a	1197425	STATUS	1700	n/a	n/a	1
1199.1250000000	n/a	1199125	RewardB4	670	n/a	n/a	1
1200.8580000000	n/a	1200858	RewardCorrB4	1000	n/a	n/a	1
1202.8580000000	n/a	1202858	STATUS	1700	n/a	n/a	1
1204.5580000000	n/a	1204558	PenaltyB4	914	n/a	n/a	1
1206.5420000000	n/a	1206542	NeuCorrB4	1000	n/a	n/a	1
1208.5420000000	n/a	1208542	STATUS	1700	n/a	n/a	1
1210.2420000000	n/a	1210242	RewardB4	5140	n/a	n/a	1
1216.4580000000	n/a	1216458	RewardCorrB4	1000	n/a	n/a	1
1218.4580000000	n/a	1218458	STATUS	1700	n/a	n/a	1
1220.1580000000	n/a	1220158	PenaltyB4	677	n/a	n/a	1
1221.9080000000	n/a	1221908	NeuCorrB4	1000	n/a	n/a	1
1223.9080000000	n/a	1223908	STATUS	1700	n/a	n/a	1
1225.6080000000	n/a	1225608	RewardB4	2113	n/a	n/a	1
1228.7920000000	n/a	1228792	NeuCorrB4	1000	n/a	n/a	1
1230.7920000000	n/a	1230792	STATUS	1700	n/a	n/a	1
1232.4920000000	n/a	1232492	PenaltyB4	1151	n/a	n/a	1
1234.7080000000	n/a	1234708	NeuCorrB4	1000	n/a	n/a	1
1236.7080000000	n/a	1236708	STATUS	1700	n/a	n/a	1
1238.4080000000	n/a	1238408	RewardB4	6428	n/a	n/a	1
1245.9080000000	n/a	1245908	RewardCorrB4	1000	n/a	n/a	1
1247.9080000000	n/a	1247908	STATUS	1700	n/a	n/a	1
1249.6080000000	n/a	1249608	PenaltyB4	1331	n/a	n/a	1
1252.0080000000	n/a	1252008	NeuCorrB4	1000	n/a	n/a	1
1254.0080000000	n/a	1254008	STATUS	1700	n/a	n/a	1
1255.7080000000	n/a	1255708	RewardB4	644	n/a	n/a	1
1257.4250000000	n/a	1257425	RewardCorrB4	1000	n/a	n/a	1
1259.4250000000	n/a	1259425	STATUS	1700	n/a	n/a	1
1261.1250000000	n/a	1261125	PenaltyB4	4206	n/a	n/a	1
1266.4080000000	n/a	1266408	PunCorrB4	1000	n/a	n/a	1
1268.4080000000	n/a	1268408	STATUS	1700	n/a	n/a	1
1270.1080000000	n/a	1270108	RewardB4	646	n/a	n/a	1
1271.8250000000	n/a	1271825	RewardCorrB4	1000	n/a	n/a	1
1273.8250000000	n/a	1273825	STATUS	1700	n/a	n/a	1
1275.5250000000	n/a	1275525	PenaltyB4	1422	n/a	n/a	1
1278.0250000000	n/a	1278025	NeuCorrB4	1000	n/a	n/a	1
1280.0250000000	n/a	1280025	STATUS	1700	n/a	n/a	1
1281.7250000000	n/a	1281725	RewardB4	6860	n/a	n/a	1
1289.6580000000	n/a	1289658	RewardCorrB4	1000	n/a	n/a	1
1291.6580000000	n/a	1291658	STATUS	1700	n/a	n/a	1
1293.3580000000	n/a	1293358	PenaltyB4	768	n/a	n/a	1
1295.1920000000	n/a	1295192	NeuCorrB4	1000	n/a	n/a	1
1297.1920000000	n/a	1297192	STATUS	1700	n/a	n/a	1
1298.8920000000	n/a	1298892	RewardB4	544	n/a	n/a	1
1300.5080000000	n/a	1300508	RewardCorrB4	1000	n/a	n/a	1
1302.5080000000	n/a	1302508	STATUS	1700	n/a	n/a	1
1304.2080000000	n/a	1304208	PenaltyB4	634	n/a	n/a	1
1305.9080000000	n/a	1305908	NeuCorrB4	1000	n/a	n/a	1
1307.9080000000	n/a	1307908	STATUS	1700	n/a	n/a	1
1309.6080000000	n/a	1309608	RewardB4	604	n/a	n/a	1
1311.2750000000	n/a	1311275	NeuCorrB4	1000	n/a	n/a	1
1313.2750000000	n/a	1313275	STATUS	1700	n/a	n/a	1
1314.9750000000	n/a	1314975	RewardB4	584	n/a	n/a	1
1316.6250000000	n/a	1316625	RewardCorrB4	1000	n/a	n/a	1
1318.6250000000	n/a	1318625	STATUS	1700	n/a	n/a	1
1320.3250000000	n/a	1320325	PenaltyB4	669	n/a	n/a	1
1322.0580000000	n/a	1322058	NeuCorrB4	1000	n/a	n/a	1
1324.0580000000	n/a	1324058	STATUS	1700	n/a	n/a	1
1325.7580000000	n/a	1325758	RewardB4	1784	n/a	n/a	1
1328.6080000000	n/a	1328608	RewardCorrB4	1000	n/a	n/a	1
1330.6080000000	n/a	1330608	STATUS	1700	n/a	n/a	1
1335.4750000000	n/a	1335475	STATUS	1700	n/a	n/a	1
