onset	duration	sample	trial_type	response_time	stim_file	value	correct
3.4000000000	n/a	3400	FrequentFixedSOA	1633	n/a	n/a	1
5.0330000000	n/a	5033	FrequentFixedSOA	1633	n/a	n/a	1
6.6660000000	n/a	6666	FrequentFixedSOA	1633	n/a	n/a	1
8.2990000000	n/a	8299	FrequentFixedSOA	1633	n/a	n/a	1
9.9330000000	n/a	9933	FrequentFixedSOA	1633	n/a	n/a	1
11.5660000000	n/a	11566	FrequentFixedSOA	1633	n/a	n/a	1
13.1990000000	n/a	13199	FrequentFixedSOA	1633	n/a	n/a	1
14.8330000000	n/a	14833	FrequentFixedSOA	1633	n/a	n/a	1
16.4660000000	n/a	16466	FrequentFixedSOA	1633	n/a	n/a	1
18.0990000000	n/a	18099	FrequentFixedSOA	1633	n/a	n/a	1
19.7330000000	n/a	19733	NovelFixedSOA	317	n/a	n/a	0
21.3660000000	n/a	21366	FrequentFixedSOA	1633	n/a	n/a	1
22.9990000000	n/a	22999	GoFixedSOA	449	n/a	n/a	1
24.6330000000	n/a	24633	FrequentFixedSOA	1633	n/a	n/a	1
26.2660000000	n/a	26266	FrequentFixedSOA	1633	n/a	n/a	1
27.8990000000	n/a	27899	FrequentFixedSOA	1633	n/a	n/a	1
29.5330000000	n/a	29533	GoFixedSOA	390	n/a	n/a	1
31.1660000000	n/a	31166	FrequentFixedSOA	1633	n/a	n/a	1
32.7990000000	n/a	32799	FrequentFixedSOA	1633	n/a	n/a	1
34.4330000000	n/a	34433	FrequentFixedSOA	1633	n/a	n/a	1
36.0660000000	n/a	36066	NovelFixedSOA	1633	n/a	n/a	1
37.6990000000	n/a	37699	FrequentFixedSOA	1633	n/a	n/a	1
39.3330000000	n/a	39333	FrequentFixedSOA	1633	n/a	n/a	1
40.9660000000	n/a	40966	FrequentFixedSOA	1633	n/a	n/a	1
42.5990000000	n/a	42599	GoFixedSOA	387	n/a	n/a	1
44.2330000000	n/a	44233	FrequentFixedSOA	1633	n/a	n/a	1
45.8660000000	n/a	45866	NovelFixedSOA	1633	n/a	n/a	1
47.4990000000	n/a	47499	FrequentFixedSOA	1633	n/a	n/a	1
49.1330000000	n/a	49133	FrequentFixedSOA	1633	n/a	n/a	1
50.7660000000	n/a	50766	FrequentFixedSOA	1633	n/a	n/a	1
52.3990000000	n/a	52399	GoFixedSOA	337	n/a	n/a	1
54.0330000000	n/a	54033	FrequentFixedSOA	1633	n/a	n/a	1
55.6660000000	n/a	55666	GoFixedSOA	382	n/a	n/a	1
57.2990000000	n/a	57299	FrequentFixedSOA	1633	n/a	n/a	1
58.9330000000	n/a	58933	FrequentFixedSOA	1633	n/a	n/a	1
60.5660000000	n/a	60566	GoFixedSOA	364	n/a	n/a	1
62.1990000000	n/a	62199	FrequentFixedSOA	1633	n/a	n/a	1
63.8330000000	n/a	63833	FrequentFixedSOA	1633	n/a	n/a	1
65.4660000000	n/a	65466	FrequentFixedSOA	1633	n/a	n/a	1
67.0990000000	n/a	67099	FrequentFixedSOA	1633	n/a	n/a	1
68.7330000000	n/a	68733	NovelFixedSOA	1633	n/a	n/a	1
70.3660000000	n/a	70366	FrequentFixedSOA	1633	n/a	n/a	1
71.9990000000	n/a	71999	NovelFixedSOA	1633	n/a	n/a	1
73.6330000000	n/a	73633	FrequentFixedSOA	1633	n/a	n/a	1
75.2660000000	n/a	75266	FrequentFixedSOA	1633	n/a	n/a	1
76.8990000000	n/a	76899	GoFixedSOA	389	n/a	n/a	1
78.5330000000	n/a	78533	FrequentFixedSOA	1633	n/a	n/a	1
80.1660000000	n/a	80166	FrequentFixedSOA	1633	n/a	n/a	1
81.7990000000	n/a	81799	FrequentFixedSOA	1633	n/a	n/a	1
83.4330000000	n/a	83433	FrequentFixedSOA	1633	n/a	n/a	1
85.0660000000	n/a	85066	NovelFixedSOA	1633	n/a	n/a	1
86.6990000000	n/a	86699	FrequentFixedSOA	1633	n/a	n/a	1
88.3330000000	n/a	88333	FrequentFixedSOA	1633	n/a	n/a	1
89.9660000000	n/a	89966	FrequentFixedSOA	1633	n/a	n/a	1
91.5990000000	n/a	91599	FrequentFixedSOA	1633	n/a	n/a	1
93.2330000000	n/a	93233	GoFixedSOA	419	n/a	n/a	1
94.8660000000	n/a	94866	FrequentFixedSOA	1633	n/a	n/a	1
96.4990000000	n/a	96499	FrequentFixedSOA	1633	n/a	n/a	1
98.1330000000	n/a	98133	NovelFixedSOA	1633	n/a	n/a	1
99.7660000000	n/a	99766	FrequentFixedSOA	1633	n/a	n/a	1
101.3990000000	n/a	101399	FrequentFixedSOA	1633	n/a	n/a	1
103.0330000000	n/a	103033	GoFixedSOA	369	n/a	n/a	1
104.6660000000	n/a	104666	FrequentFixedSOA	1633	n/a	n/a	1
106.2990000000	n/a	106299	FrequentFixedSOA	1633	n/a	n/a	1
107.9330000000	n/a	107933	FrequentFixedSOA	1633	n/a	n/a	1
109.5660000000	n/a	109566	FrequentFixedSOA	1633	n/a	n/a	1
111.1990000000	n/a	111199	NovelFixedSOA	1633	n/a	n/a	1
112.8330000000	n/a	112833	FrequentFixedSOA	1633	n/a	n/a	1
114.4660000000	n/a	114466	FrequentFixedSOA	1633	n/a	n/a	1
116.0990000000	n/a	116099	GoFixedSOA	369	n/a	n/a	1
117.7330000000	n/a	117733	FrequentVariableSOA	1516	n/a	n/a	1
119.2490000000	n/a	119249	FrequentVariableSOA	1616	n/a	n/a	1
120.8660000000	n/a	120866	FrequentVariableSOA	1700	n/a	n/a	1
122.5660000000	n/a	122566	FrequentVariableSOA	1633	n/a	n/a	1
124.1990000000	n/a	124199	FrequentVariableSOA	1500	n/a	n/a	1
125.6990000000	n/a	125699	FrequentVariableSOA	1766	n/a	n/a	1
127.4660000000	n/a	127466	FrequentVariableSOA	1650	n/a	n/a	1
129.1160000000	n/a	129116	FrequentVariableSOA	1516	n/a	n/a	1
130.6330000000	n/a	130633	FrequentVariableSOA	1500	n/a	n/a	1
132.1330000000	n/a	132133	FrequentVariableSOA	1550	n/a	n/a	1
133.6830000000	n/a	133683	NovelVariableSOA	1716	n/a	n/a	1
135.3990000000	n/a	135399	FrequentVariableSOA	1600	n/a	n/a	1
136.9990000000	n/a	136999	GoVariableSOA	428	n/a	n/a	1
138.7490000000	n/a	138749	FrequentVariableSOA	1566	n/a	n/a	1
140.3160000000	n/a	140316	FrequentVariableSOA	1700	n/a	n/a	1
142.0160000000	n/a	142016	FrequentVariableSOA	1583	n/a	n/a	1
143.5990000000	n/a	143599	GoVariableSOA	418	n/a	n/a	1
145.3330000000	n/a	145333	FrequentVariableSOA	1683	n/a	n/a	1
147.0160000000	n/a	147016	FrequentVariableSOA	1666	n/a	n/a	1
148.6830000000	n/a	148683	FrequentVariableSOA	1566	n/a	n/a	1
150.2490000000	n/a	150249	NovelVariableSOA	1800	n/a	n/a	1
152.0490000000	n/a	152049	FrequentVariableSOA	1583	n/a	n/a	1
153.6330000000	n/a	153633	FrequentVariableSOA	1766	n/a	n/a	1
155.3990000000	n/a	155399	FrequentVariableSOA	1733	n/a	n/a	1
157.1330000000	n/a	157133	GoVariableSOA	459	n/a	n/a	1
158.8330000000	n/a	158833	FrequentVariableSOA	1683	n/a	n/a	1
160.5160000000	n/a	160516	NovelVariableSOA	1750	n/a	n/a	1
162.2660000000	n/a	162266	FrequentVariableSOA	1616	n/a	n/a	1
163.8820000000	n/a	163882	FrequentVariableSOA	1716	n/a	n/a	1
165.5990000000	n/a	165599	FrequentVariableSOA	1583	n/a	n/a	1
167.1820000000	n/a	167182	GoVariableSOA	459	n/a	n/a	1
168.7990000000	n/a	168799	FrequentVariableSOA	1766	n/a	n/a	1
170.5660000000	n/a	170566	GoVariableSOA	436	n/a	n/a	1
172.3320000000	n/a	172332	FrequentVariableSOA	1733	n/a	n/a	1
174.0660000000	n/a	174066	FrequentVariableSOA	1616	n/a	n/a	1
175.6820000000	n/a	175682	GoVariableSOA	349	n/a	n/a	1
177.4160000000	n/a	177416	FrequentVariableSOA	1716	n/a	n/a	1
179.1320000000	n/a	179132	FrequentVariableSOA	1583	n/a	n/a	1
180.7160000000	n/a	180716	FrequentVariableSOA	1666	n/a	n/a	1
182.3820000000	n/a	182382	FrequentVariableSOA	1600	n/a	n/a	1
183.9820000000	n/a	183982	NovelVariableSOA	1566	n/a	n/a	1
185.5490000000	n/a	185549	FrequentVariableSOA	1783	n/a	n/a	1
187.3320000000	n/a	187332	NovelVariableSOA	1583	n/a	n/a	1
188.9160000000	n/a	188916	FrequentVariableSOA	1783	n/a	n/a	1
190.6990000000	n/a	190699	FrequentVariableSOA	1650	n/a	n/a	1
192.3490000000	n/a	192349	GoVariableSOA	357	n/a	n/a	1
194.0990000000	n/a	194099	FrequentVariableSOA	1550	n/a	n/a	1
195.6490000000	n/a	195649	FrequentVariableSOA	1750	n/a	n/a	1
197.3990000000	n/a	197399	FrequentVariableSOA	1516	n/a	n/a	1
198.9160000000	n/a	198916	FrequentVariableSOA	1516	n/a	n/a	1
200.4320000000	n/a	200432	NovelVariableSOA	1716	n/a	n/a	1
202.1490000000	n/a	202149	FrequentVariableSOA	1650	n/a	n/a	1
203.7990000000	n/a	203799	FrequentVariableSOA	1566	n/a	n/a	1
205.3660000000	n/a	205366	FrequentVariableSOA	1533	n/a	n/a	1
206.8990000000	n/a	206899	FrequentVariableSOA	1700	n/a	n/a	1
208.5990000000	n/a	208599	GoVariableSOA	367	n/a	n/a	1
210.1990000000	n/a	210199	FrequentVariableSOA	1733	n/a	n/a	1
211.9320000000	n/a	211932	FrequentVariableSOA	1700	n/a	n/a	1
213.6320000000	n/a	213632	NovelVariableSOA	1783	n/a	n/a	1
215.4160000000	n/a	215416	FrequentVariableSOA	1550	n/a	n/a	1
216.9660000000	n/a	216966	FrequentVariableSOA	1533	n/a	n/a	1
218.4990000000	n/a	218499	GoVariableSOA	727	n/a	n/a	1
220.2160000000	n/a	220216	FrequentVariableSOA	1666	n/a	n/a	1
221.8820000000	n/a	221882	FrequentVariableSOA	1500	n/a	n/a	1
223.3820000000	n/a	223382	FrequentVariableSOA	1700	n/a	n/a	1
225.0820000000	n/a	225082	FrequentVariableSOA	1550	n/a	n/a	1
226.6320000000	n/a	226632	NovelVariableSOA	1766	n/a	n/a	1
228.3990000000	n/a	228399	FrequentVariableSOA	1683	n/a	n/a	1
230.0820000000	n/a	230082	FrequentVariableSOA	1633	n/a	n/a	1
231.7160000000	n/a	231716	GoVariableSOA	634	n/a	n/a	1
233.3660000000	n/a	233366	FrequentFixedSOA	1633	n/a	n/a	1
234.9990000000	n/a	234999	FrequentFixedSOA	1633	n/a	n/a	1
236.6320000000	n/a	236632	FrequentFixedSOA	1633	n/a	n/a	1
238.2660000000	n/a	238266	GoFixedSOA	467	n/a	n/a	1
239.8990000000	n/a	239899	FrequentFixedSOA	1633	n/a	n/a	1
241.5320000000	n/a	241532	FrequentFixedSOA	1633	n/a	n/a	1
243.1660000000	n/a	243166	FrequentFixedSOA	1633	n/a	n/a	1
244.7990000000	n/a	244799	GoFixedSOA	363	n/a	n/a	1
246.4320000000	n/a	246432	FrequentFixedSOA	1633	n/a	n/a	1
248.0660000000	n/a	248066	FrequentFixedSOA	1633	n/a	n/a	1
249.6990000000	n/a	249699	FrequentFixedSOA	1633	n/a	n/a	1
251.3320000000	n/a	251332	NovelFixedSOA	1633	n/a	n/a	1
252.9660000000	n/a	252966	FrequentFixedSOA	1633	n/a	n/a	1
254.5990000000	n/a	254599	NovelFixedSOA	1633	n/a	n/a	1
256.2320000000	n/a	256232	FrequentFixedSOA	1633	n/a	n/a	1
257.8660000000	n/a	257866	FrequentFixedSOA	1633	n/a	n/a	1
259.4990000000	n/a	259499	NovelFixedSOA	1633	n/a	n/a	1
261.1320000000	n/a	261132	FrequentFixedSOA	1633	n/a	n/a	1
262.7660000000	n/a	262766	FrequentFixedSOA	1633	n/a	n/a	1
264.3990000000	n/a	264399	FrequentFixedSOA	1633	n/a	n/a	1
266.0320000000	n/a	266032	FrequentFixedSOA	1633	n/a	n/a	1
267.6660000000	n/a	267666	FrequentFixedSOA	1633	n/a	n/a	1
269.2990000000	n/a	269299	NovelFixedSOA	1633	n/a	n/a	1
270.9320000000	n/a	270932	FrequentFixedSOA	1633	n/a	n/a	1
272.5660000000	n/a	272566	FrequentFixedSOA	1633	n/a	n/a	1
274.1990000000	n/a	274199	FrequentFixedSOA	1633	n/a	n/a	1
275.8320000000	n/a	275832	FrequentFixedSOA	1633	n/a	n/a	1
277.4660000000	n/a	277466	FrequentFixedSOA	1633	n/a	n/a	1
279.0990000000	n/a	279099	GoFixedSOA	336	n/a	n/a	1
280.7320000000	n/a	280732	FrequentFixedSOA	1633	n/a	n/a	1
282.3660000000	n/a	282366	FrequentFixedSOA	1633	n/a	n/a	1
283.9990000000	n/a	283999	GoFixedSOA	382	n/a	n/a	1
285.6320000000	n/a	285632	FrequentFixedSOA	1633	n/a	n/a	1
287.2660000000	n/a	287266	NovelFixedSOA	1633	n/a	n/a	1
288.8990000000	n/a	288899	FrequentFixedSOA	1633	n/a	n/a	1
290.5320000000	n/a	290532	GoFixedSOA	371	n/a	n/a	1
292.1660000000	n/a	292166	FrequentFixedSOA	1633	n/a	n/a	1
293.7990000000	n/a	293799	GoFixedSOA	432	n/a	n/a	1
295.4320000000	n/a	295432	FrequentFixedSOA	1633	n/a	n/a	1
297.0660000000	n/a	297066	FrequentFixedSOA	1633	n/a	n/a	1
298.6990000000	n/a	298699	FrequentFixedSOA	1633	n/a	n/a	1
300.3320000000	n/a	300332	FrequentFixedSOA	1633	n/a	n/a	1
301.9660000000	n/a	301966	GoFixedSOA	362	n/a	n/a	1
303.5990000000	n/a	303599	FrequentFixedSOA	1633	n/a	n/a	1
305.2320000000	n/a	305232	FrequentFixedSOA	1633	n/a	n/a	1
306.8660000000	n/a	306866	FrequentFixedSOA	1633	n/a	n/a	1
308.4990000000	n/a	308499	NovelFixedSOA	1633	n/a	n/a	1
310.1320000000	n/a	310132	FrequentFixedSOA	1633	n/a	n/a	1
311.7660000000	n/a	311766	FrequentFixedSOA	1633	n/a	n/a	1
313.3990000000	n/a	313399	FrequentFixedSOA	1633	n/a	n/a	1
315.0320000000	n/a	315032	FrequentFixedSOA	1633	n/a	n/a	1
316.6660000000	n/a	316666	NovelFixedSOA	1633	n/a	n/a	1
318.2990000000	n/a	318299	FrequentFixedSOA	1633	n/a	n/a	1
319.9320000000	n/a	319932	FrequentFixedSOA	1633	n/a	n/a	1
321.5660000000	n/a	321566	FrequentFixedSOA	1633	n/a	n/a	1
323.1990000000	n/a	323199	FrequentFixedSOA	1633	n/a	n/a	1
324.8320000000	n/a	324832	NovelFixedSOA	1633	n/a	n/a	1
326.4660000000	n/a	326466	FrequentFixedSOA	1633	n/a	n/a	1
328.0990000000	n/a	328099	FrequentFixedSOA	1633	n/a	n/a	1
329.7320000000	n/a	329732	GoFixedSOA	441	n/a	n/a	1
331.3660000000	n/a	331366	FrequentFixedSOA	1633	n/a	n/a	1
332.9990000000	n/a	332999	FrequentFixedSOA	1633	n/a	n/a	1
334.6320000000	n/a	334632	FrequentFixedSOA	1633	n/a	n/a	1
336.2660000000	n/a	336266	FrequentFixedSOA	1633	n/a	n/a	1
337.8990000000	n/a	337899	NovelFixedSOA	1633	n/a	n/a	1
339.5320000000	n/a	339532	FrequentFixedSOA	1633	n/a	n/a	1
341.1660000000	n/a	341166	FrequentFixedSOA	1633	n/a	n/a	1
342.7990000000	n/a	342799	FrequentFixedSOA	1633	n/a	n/a	1
344.4320000000	n/a	344432	FrequentFixedSOA	1633	n/a	n/a	1
346.0660000000	n/a	346066	FrequentFixedSOA	1633	n/a	n/a	1
347.6990000000	n/a	347699	FrequentVariableSOA	1683	n/a	n/a	1
349.3820000000	n/a	349382	FrequentVariableSOA	1716	n/a	n/a	1
351.0990000000	n/a	351099	FrequentVariableSOA	1700	n/a	n/a	1
352.7990000000	n/a	352799	GoVariableSOA	466	n/a	n/a	1
354.4990000000	n/a	354499	FrequentVariableSOA	1616	n/a	n/a	1
356.1160000000	n/a	356116	FrequentVariableSOA	1700	n/a	n/a	1
357.8160000000	n/a	357816	FrequentVariableSOA	1650	n/a	n/a	1
359.4660000000	n/a	359466	GoVariableSOA	407	n/a	n/a	1
361.0650000000	n/a	361065	FrequentVariableSOA	1766	n/a	n/a	1
362.8320000000	n/a	362832	FrequentVariableSOA	1550	n/a	n/a	1
364.3820000000	n/a	364382	FrequentVariableSOA	1683	n/a	n/a	1
366.0650000000	n/a	366065	NovelVariableSOA	1583	n/a	n/a	1
367.6490000000	n/a	367649	FrequentVariableSOA	1650	n/a	n/a	1
369.2990000000	n/a	369299	NovelVariableSOA	1583	n/a	n/a	1
370.8820000000	n/a	370882	FrequentVariableSOA	1666	n/a	n/a	1
372.5490000000	n/a	372549	FrequentVariableSOA	1550	n/a	n/a	1
374.0990000000	n/a	374099	NovelVariableSOA	1533	n/a	n/a	1
375.6320000000	n/a	375632	FrequentVariableSOA	1716	n/a	n/a	1
377.3490000000	n/a	377349	FrequentVariableSOA	1500	n/a	n/a	1
378.8490000000	n/a	378849	FrequentVariableSOA	1616	n/a	n/a	1
380.4650000000	n/a	380465	FrequentVariableSOA	1633	n/a	n/a	1
382.0990000000	n/a	382099	FrequentVariableSOA	1600	n/a	n/a	1
383.6990000000	n/a	383699	NovelVariableSOA	1600	n/a	n/a	1
385.2990000000	n/a	385299	FrequentVariableSOA	1533	n/a	n/a	1
386.8320000000	n/a	386832	FrequentVariableSOA	1750	n/a	n/a	1
388.5820000000	n/a	388582	FrequentVariableSOA	1766	n/a	n/a	1
390.3490000000	n/a	390349	FrequentVariableSOA	1750	n/a	n/a	1
392.0990000000	n/a	392099	FrequentVariableSOA	1566	n/a	n/a	1
393.6650000000	n/a	393665	GoVariableSOA	474	n/a	n/a	1
395.2650000000	n/a	395265	FrequentVariableSOA	1666	n/a	n/a	1
396.9320000000	n/a	396932	FrequentVariableSOA	1766	n/a	n/a	1
398.6990000000	n/a	398699	GoVariableSOA	413	n/a	n/a	1
400.4150000000	n/a	400415	FrequentVariableSOA	1533	n/a	n/a	1
401.9490000000	n/a	401949	NovelVariableSOA	1566	n/a	n/a	1
403.5150000000	n/a	403515	FrequentVariableSOA	1616	n/a	n/a	1
405.1320000000	n/a	405132	GoVariableSOA	535	n/a	n/a	1
406.6820000000	n/a	406682	FrequentVariableSOA	1666	n/a	n/a	1
408.3490000000	n/a	408349	GoVariableSOA	936	n/a	n/a	1
410.0490000000	n/a	410049	FrequentVariableSOA	1683	n/a	n/a	1
411.7320000000	n/a	411732	FrequentVariableSOA	1616	n/a	n/a	1
413.3490000000	n/a	413349	FrequentVariableSOA	1800	n/a	n/a	1
415.1490000000	n/a	415149	FrequentVariableSOA	1500	n/a	n/a	1
416.6490000000	n/a	416649	GoVariableSOA	1566	n/a	n/a	0
418.2150000000	n/a	418215	FrequentVariableSOA	1716	n/a	n/a	1
419.9320000000	n/a	419932	FrequentVariableSOA	1700	n/a	n/a	1
421.6320000000	n/a	421632	FrequentVariableSOA	1700	n/a	n/a	1
423.3320000000	n/a	423332	NovelVariableSOA	1583	n/a	n/a	1
424.9150000000	n/a	424915	FrequentVariableSOA	1750	n/a	n/a	1
426.6650000000	n/a	426665	FrequentVariableSOA	1616	n/a	n/a	1
428.2820000000	n/a	428282	FrequentVariableSOA	1700	n/a	n/a	1
429.9820000000	n/a	429982	FrequentVariableSOA	1616	n/a	n/a	1
431.5990000000	n/a	431599	NovelVariableSOA	1516	n/a	n/a	1
433.1150000000	n/a	433115	FrequentVariableSOA	1733	n/a	n/a	1
434.8490000000	n/a	434849	FrequentVariableSOA	1783	n/a	n/a	1
436.6320000000	n/a	436632	FrequentVariableSOA	1583	n/a	n/a	1
438.2150000000	n/a	438215	FrequentVariableSOA	1716	n/a	n/a	1
439.9320000000	n/a	439932	NovelVariableSOA	1700	n/a	n/a	1
441.6320000000	n/a	441632	FrequentVariableSOA	1650	n/a	n/a	1
443.2820000000	n/a	443282	FrequentVariableSOA	1733	n/a	n/a	1
445.0150000000	n/a	445015	GoVariableSOA	429	n/a	n/a	1
446.6150000000	n/a	446615	FrequentVariableSOA	1516	n/a	n/a	1
448.1320000000	n/a	448132	FrequentVariableSOA	1516	n/a	n/a	1
449.6490000000	n/a	449649	FrequentVariableSOA	1800	n/a	n/a	1
451.4490000000	n/a	451449	FrequentVariableSOA	1616	n/a	n/a	1
453.0650000000	n/a	453065	NovelVariableSOA	1500	n/a	n/a	1
454.5650000000	n/a	454565	FrequentVariableSOA	1600	n/a	n/a	1
456.1650000000	n/a	456165	FrequentVariableSOA	1600	n/a	n/a	1
457.7650000000	n/a	457765	FrequentVariableSOA	1550	n/a	n/a	1
459.3150000000	n/a	459315	FrequentVariableSOA	1550	n/a	n/a	1
460.8650000000	n/a	460865	FrequentVariableSOA	1516	n/a	n/a	1
462.3820000000	n/a	462382	GoFixedSOA	486	n/a	n/a	1
464.0150000000	n/a	464015	FrequentFixedSOA	1633	n/a	n/a	1
465.6490000000	n/a	465649	FrequentFixedSOA	1633	n/a	n/a	1
467.2820000000	n/a	467282	FrequentFixedSOA	1633	n/a	n/a	1
468.9150000000	n/a	468915	FrequentFixedSOA	1633	n/a	n/a	1
470.5490000000	n/a	470549	FrequentFixedSOA	1633	n/a	n/a	1
472.1820000000	n/a	472182	FrequentFixedSOA	1633	n/a	n/a	1
473.8150000000	n/a	473815	NovelFixedSOA	1633	n/a	n/a	1
475.4490000000	n/a	475449	FrequentFixedSOA	1633	n/a	n/a	1
477.0820000000	n/a	477082	FrequentFixedSOA	1633	n/a	n/a	1
478.7150000000	n/a	478715	FrequentFixedSOA	1633	n/a	n/a	1
480.3490000000	n/a	480349	NovelFixedSOA	1633	n/a	n/a	1
481.9820000000	n/a	481982	FrequentFixedSOA	1633	n/a	n/a	1
483.6150000000	n/a	483615	GoFixedSOA	456	n/a	n/a	1
485.2490000000	n/a	485249	FrequentFixedSOA	1633	n/a	n/a	1
486.8820000000	n/a	486882	FrequentFixedSOA	1633	n/a	n/a	1
488.5150000000	n/a	488515	GoFixedSOA	369	n/a	n/a	1
490.1490000000	n/a	490149	FrequentFixedSOA	1633	n/a	n/a	1
491.7820000000	n/a	491782	NovelFixedSOA	1633	n/a	n/a	1
493.4150000000	n/a	493415	FrequentFixedSOA	1633	n/a	n/a	1
495.0490000000	n/a	495049	FrequentFixedSOA	1633	n/a	n/a	1
496.6820000000	n/a	496682	FrequentFixedSOA	1633	n/a	n/a	1
498.3150000000	n/a	498315	FrequentFixedSOA	1633	n/a	n/a	1
499.9490000000	n/a	499949	FrequentFixedSOA	1633	n/a	n/a	1
501.5820000000	n/a	501582	GoFixedSOA	491	n/a	n/a	1
503.2150000000	n/a	503215	FrequentFixedSOA	1633	n/a	n/a	1
504.8490000000	n/a	504849	FrequentFixedSOA	1633	n/a	n/a	1
506.4820000000	n/a	506482	NovelFixedSOA	1633	n/a	n/a	1
508.1150000000	n/a	508115	FrequentFixedSOA	1633	n/a	n/a	1
509.7490000000	n/a	509749	FrequentFixedSOA	1633	n/a	n/a	1
511.3820000000	n/a	511382	FrequentFixedSOA	1633	n/a	n/a	1
513.0150000000	n/a	513015	FrequentFixedSOA	1633	n/a	n/a	1
514.6490000000	n/a	514649	FrequentFixedSOA	1633	n/a	n/a	1
516.2820000000	n/a	516282	NovelFixedSOA	1633	n/a	n/a	1
517.9150000000	n/a	517915	FrequentFixedSOA	1633	n/a	n/a	1
519.5490000000	n/a	519549	FrequentFixedSOA	1633	n/a	n/a	1
521.1820000000	n/a	521182	FrequentFixedSOA	1633	n/a	n/a	1
522.8150000000	n/a	522815	FrequentFixedSOA	1633	n/a	n/a	1
524.4490000000	n/a	524449	GoFixedSOA	466	n/a	n/a	1
526.0820000000	n/a	526082	FrequentFixedSOA	1633	n/a	n/a	1
527.7150000000	n/a	527715	FrequentFixedSOA	1633	n/a	n/a	1
529.3490000000	n/a	529349	NovelFixedSOA	1633	n/a	n/a	1
530.9820000000	n/a	530982	FrequentFixedSOA	1633	n/a	n/a	1
532.6150000000	n/a	532615	FrequentFixedSOA	1633	n/a	n/a	1
534.2490000000	n/a	534249	NovelFixedSOA	1633	n/a	n/a	1
535.8820000000	n/a	535882	FrequentFixedSOA	1633	n/a	n/a	1
537.5150000000	n/a	537515	FrequentFixedSOA	1633	n/a	n/a	1
539.1490000000	n/a	539149	FrequentFixedSOA	1633	n/a	n/a	1
540.7820000000	n/a	540782	FrequentFixedSOA	1633	n/a	n/a	1
542.4150000000	n/a	542415	FrequentFixedSOA	1633	n/a	n/a	1
544.0490000000	n/a	544049	GoFixedSOA	1633	n/a	n/a	0
545.6820000000	n/a	545682	FrequentFixedSOA	1633	n/a	n/a	1
547.3150000000	n/a	547315	FrequentFixedSOA	1633	n/a	n/a	1
548.9490000000	n/a	548949	FrequentFixedSOA	1633	n/a	n/a	1
550.5820000000	n/a	550582	FrequentFixedSOA	1633	n/a	n/a	1
552.2150000000	n/a	552215	FrequentFixedSOA	1633	n/a	n/a	1
553.8490000000	n/a	553849	NovelFixedSOA	1633	n/a	n/a	1
555.4820000000	n/a	555482	FrequentFixedSOA	1633	n/a	n/a	1
557.1150000000	n/a	557115	GoFixedSOA	460	n/a	n/a	1
558.7490000000	n/a	558749	FrequentFixedSOA	1633	n/a	n/a	1
560.3820000000	n/a	560382	FrequentFixedSOA	1633	n/a	n/a	1
562.0150000000	n/a	562015	FrequentFixedSOA	1633	n/a	n/a	1
563.6480000000	n/a	563648	FrequentFixedSOA	1633	n/a	n/a	1
565.2820000000	n/a	565282	FrequentFixedSOA	1633	n/a	n/a	1
566.9150000000	n/a	566915	FrequentFixedSOA	1633	n/a	n/a	1
568.5480000000	n/a	568548	FrequentFixedSOA	1633	n/a	n/a	1
570.1820000000	n/a	570182	FrequentFixedSOA	1633	n/a	n/a	1
571.8150000000	n/a	571815	NovelFixedSOA	1633	n/a	n/a	1
573.4480000000	n/a	573448	FrequentFixedSOA	1633	n/a	n/a	1
575.0820000000	n/a	575082	FrequentFixedSOA	1633	n/a	n/a	1
576.7150000000	n/a	576715	GoVariableSOA	400	n/a	n/a	1
578.4980000000	n/a	578498	FrequentVariableSOA	1750	n/a	n/a	1
580.2480000000	n/a	580248	FrequentVariableSOA	1566	n/a	n/a	1
581.8150000000	n/a	581815	FrequentVariableSOA	1683	n/a	n/a	1
583.4980000000	n/a	583498	FrequentVariableSOA	1700	n/a	n/a	1
585.1980000000	n/a	585198	FrequentVariableSOA	1683	n/a	n/a	1
586.8820000000	n/a	586882	FrequentVariableSOA	1783	n/a	n/a	1
588.6650000000	n/a	588665	NovelVariableSOA	1650	n/a	n/a	1
590.3150000000	n/a	590315	FrequentVariableSOA	1500	n/a	n/a	1
591.8150000000	n/a	591815	FrequentVariableSOA	1683	n/a	n/a	1
593.4980000000	n/a	593498	FrequentVariableSOA	1550	n/a	n/a	1
595.0480000000	n/a	595048	NovelVariableSOA	1600	n/a	n/a	1
596.6480000000	n/a	596648	FrequentVariableSOA	1733	n/a	n/a	1
598.3820000000	n/a	598382	GoVariableSOA	407	n/a	n/a	1
600.0820000000	n/a	600082	FrequentVariableSOA	1616	n/a	n/a	1
601.6980000000	n/a	601698	FrequentVariableSOA	1783	n/a	n/a	1
603.4820000000	n/a	603482	GoVariableSOA	359	n/a	n/a	1
605.0820000000	n/a	605082	FrequentVariableSOA	1783	n/a	n/a	1
606.8650000000	n/a	606865	NovelVariableSOA	1783	n/a	n/a	1
608.6480000000	n/a	608648	FrequentVariableSOA	1566	n/a	n/a	1
610.2150000000	n/a	610215	FrequentVariableSOA	1666	n/a	n/a	1
611.8820000000	n/a	611882	FrequentVariableSOA	1600	n/a	n/a	1
613.4820000000	n/a	613482	FrequentVariableSOA	1583	n/a	n/a	1
615.0650000000	n/a	615065	FrequentVariableSOA	1600	n/a	n/a	1
616.6650000000	n/a	616665	GoVariableSOA	473	n/a	n/a	1
618.4480000000	n/a	618448	FrequentVariableSOA	1533	n/a	n/a	1
619.9820000000	n/a	619982	FrequentVariableSOA	1716	n/a	n/a	1
621.6980000000	n/a	621698	NovelVariableSOA	1766	n/a	n/a	1
623.4650000000	n/a	623465	FrequentVariableSOA	1550	n/a	n/a	1
625.0150000000	n/a	625015	FrequentVariableSOA	1766	n/a	n/a	1
626.7820000000	n/a	626782	FrequentVariableSOA	1666	n/a	n/a	1
628.4480000000	n/a	628448	FrequentVariableSOA	1700	n/a	n/a	1
630.1480000000	n/a	630148	FrequentVariableSOA	1500	n/a	n/a	1
631.6480000000	n/a	631648	NovelVariableSOA	1716	n/a	n/a	1
633.3650000000	n/a	633365	FrequentVariableSOA	1716	n/a	n/a	1
635.0820000000	n/a	635082	FrequentVariableSOA	1666	n/a	n/a	1
636.7480000000	n/a	636748	FrequentVariableSOA	1633	n/a	n/a	1
638.3820000000	n/a	638382	FrequentVariableSOA	1700	n/a	n/a	1
640.0820000000	n/a	640082	GoVariableSOA	345	n/a	n/a	1
641.6480000000	n/a	641648	FrequentVariableSOA	1666	n/a	n/a	1
643.3150000000	n/a	643315	FrequentVariableSOA	1666	n/a	n/a	1
644.9820000000	n/a	644982	NovelVariableSOA	1550	n/a	n/a	1
646.5320000000	n/a	646532	FrequentVariableSOA	1716	n/a	n/a	1
648.2480000000	n/a	648248	FrequentVariableSOA	1583	n/a	n/a	1
649.8320000000	n/a	649832	NovelVariableSOA	1666	n/a	n/a	1
651.4980000000	n/a	651498	FrequentVariableSOA	1716	n/a	n/a	1
653.2150000000	n/a	653215	FrequentVariableSOA	1700	n/a	n/a	1
654.9150000000	n/a	654915	FrequentVariableSOA	1600	n/a	n/a	1
656.5150000000	n/a	656515	FrequentVariableSOA	1500	n/a	n/a	1
658.0150000000	n/a	658015	FrequentVariableSOA	1650	n/a	n/a	1
659.6650000000	n/a	659665	GoVariableSOA	524	n/a	n/a	1
661.2480000000	n/a	661248	FrequentVariableSOA	1750	n/a	n/a	1
662.9980000000	n/a	662998	FrequentVariableSOA	1516	n/a	n/a	1
664.5150000000	n/a	664515	FrequentVariableSOA	1500	n/a	n/a	1
666.0150000000	n/a	666015	FrequentVariableSOA	1633	n/a	n/a	1
667.6480000000	n/a	667648	FrequentVariableSOA	1733	n/a	n/a	1
669.3820000000	n/a	669382	NovelVariableSOA	1583	n/a	n/a	1
670.9650000000	n/a	670965	FrequentVariableSOA	1716	n/a	n/a	1
672.6820000000	n/a	672682	GoVariableSOA	428	n/a	n/a	1
674.2480000000	n/a	674248	FrequentVariableSOA	1550	n/a	n/a	1
675.7980000000	n/a	675798	FrequentVariableSOA	1583	n/a	n/a	1
677.3820000000	n/a	677382	FrequentVariableSOA	1583	n/a	n/a	1
678.9650000000	n/a	678965	FrequentVariableSOA	1600	n/a	n/a	1
680.5650000000	n/a	680565	FrequentVariableSOA	1633	n/a	n/a	1
682.1980000000	n/a	682198	FrequentVariableSOA	1633	n/a	n/a	1
683.8320000000	n/a	683832	FrequentVariableSOA	1566	n/a	n/a	1
685.3980000000	n/a	685398	FrequentVariableSOA	1583	n/a	n/a	1
686.9820000000	n/a	686982	NovelVariableSOA	1750	n/a	n/a	1
688.7320000000	n/a	688732	FrequentVariableSOA	1733	n/a	n/a	1
690.4650000000	n/a	690465	FrequentVariableSOA	1633	n/a	n/a	1
692.0980000000	n/a	692098	GoFixedSOA	412	n/a	n/a	1
693.7320000000	n/a	693732	FrequentFixedSOA	1633	n/a	n/a	1
695.3650000000	n/a	695365	FrequentFixedSOA	1633	n/a	n/a	1
696.9980000000	n/a	696998	FrequentFixedSOA	1633	n/a	n/a	1
698.6320000000	n/a	698632	GoFixedSOA	379	n/a	n/a	1
700.2650000000	n/a	700265	FrequentFixedSOA	1633	n/a	n/a	1
701.8980000000	n/a	701898	FrequentFixedSOA	1633	n/a	n/a	1
703.5320000000	n/a	703532	FrequentFixedSOA	1633	n/a	n/a	1
705.1650000000	n/a	705165	FrequentFixedSOA	1633	n/a	n/a	1
706.7980000000	n/a	706798	GoFixedSOA	346	n/a	n/a	1
708.4320000000	n/a	708432	FrequentFixedSOA	1633	n/a	n/a	1
710.0650000000	n/a	710065	FrequentFixedSOA	1633	n/a	n/a	1
711.6980000000	n/a	711698	NovelFixedSOA	1633	n/a	n/a	1
713.3320000000	n/a	713332	FrequentFixedSOA	1633	n/a	n/a	1
714.9650000000	n/a	714965	FrequentFixedSOA	1633	n/a	n/a	1
716.5980000000	n/a	716598	GoFixedSOA	348	n/a	n/a	1
718.2320000000	n/a	718232	FrequentFixedSOA	1633	n/a	n/a	1
719.8650000000	n/a	719865	FrequentFixedSOA	1633	n/a	n/a	1
721.4980000000	n/a	721498	FrequentFixedSOA	1633	n/a	n/a	1
723.1320000000	n/a	723132	NovelFixedSOA	1633	n/a	n/a	1
724.7650000000	n/a	724765	FrequentFixedSOA	1633	n/a	n/a	1
726.3980000000	n/a	726398	NovelFixedSOA	1633	n/a	n/a	1
728.0320000000	n/a	728032	FrequentFixedSOA	1633	n/a	n/a	1
729.6650000000	n/a	729665	FrequentFixedSOA	1633	n/a	n/a	1
731.2980000000	n/a	731298	FrequentFixedSOA	1633	n/a	n/a	1
732.9320000000	n/a	732932	GoFixedSOA	309	n/a	n/a	1
734.5650000000	n/a	734565	FrequentFixedSOA	1633	n/a	n/a	1
736.1980000000	n/a	736198	FrequentFixedSOA	1633	n/a	n/a	1
737.8320000000	n/a	737832	FrequentFixedSOA	1633	n/a	n/a	1
739.4650000000	n/a	739465	GoFixedSOA	338	n/a	n/a	1
741.0980000000	n/a	741098	FrequentFixedSOA	1633	n/a	n/a	1
742.7320000000	n/a	742732	FrequentFixedSOA	1633	n/a	n/a	1
744.3650000000	n/a	744365	NovelFixedSOA	1633	n/a	n/a	1
745.9980000000	n/a	745998	FrequentFixedSOA	1633	n/a	n/a	1
747.6320000000	n/a	747632	GoFixedSOA	310	n/a	n/a	1
749.2650000000	n/a	749265	FrequentFixedSOA	1633	n/a	n/a	1
750.8980000000	n/a	750898	FrequentFixedSOA	1633	n/a	n/a	1
752.5320000000	n/a	752532	FrequentFixedSOA	1633	n/a	n/a	1
754.1650000000	n/a	754165	FrequentFixedSOA	1633	n/a	n/a	1
755.7980000000	n/a	755798	FrequentFixedSOA	1633	n/a	n/a	1
757.4320000000	n/a	757432	FrequentFixedSOA	1633	n/a	n/a	1
759.0650000000	n/a	759065	NovelFixedSOA	1633	n/a	n/a	1
760.6980000000	n/a	760698	FrequentFixedSOA	1633	n/a	n/a	1
762.3320000000	n/a	762332	FrequentFixedSOA	1633	n/a	n/a	1
763.9650000000	n/a	763965	FrequentFixedSOA	1633	n/a	n/a	1
765.5980000000	n/a	765598	GoFixedSOA	525	n/a	n/a	1
767.2310000000	n/a	767231	FrequentFixedSOA	1633	n/a	n/a	1
768.8650000000	n/a	768865	FrequentFixedSOA	1633	n/a	n/a	1
770.4980000000	n/a	770498	FrequentFixedSOA	1633	n/a	n/a	1
772.1310000000	n/a	772131	FrequentFixedSOA	1633	n/a	n/a	1
773.7650000000	n/a	773765	NovelFixedSOA	1633	n/a	n/a	1
775.3980000000	n/a	775398	FrequentFixedSOA	1633	n/a	n/a	1
777.0310000000	n/a	777031	FrequentFixedSOA	1633	n/a	n/a	1
778.6650000000	n/a	778665	NovelFixedSOA	1633	n/a	n/a	1
780.2980000000	n/a	780298	FrequentFixedSOA	1633	n/a	n/a	1
781.9310000000	n/a	781931	NovelFixedSOA	1633	n/a	n/a	1
783.5650000000	n/a	783565	FrequentFixedSOA	1633	n/a	n/a	1
785.1980000000	n/a	785198	FrequentFixedSOA	1633	n/a	n/a	1
786.8310000000	n/a	786831	FrequentFixedSOA	1633	n/a	n/a	1
788.4650000000	n/a	788465	FrequentFixedSOA	1633	n/a	n/a	1
790.0980000000	n/a	790098	FrequentFixedSOA	1633	n/a	n/a	1
791.7310000000	n/a	791731	FrequentFixedSOA	1633	n/a	n/a	1
793.3650000000	n/a	793365	FrequentFixedSOA	1633	n/a	n/a	1
794.9980000000	n/a	794998	GoFixedSOA	349	n/a	n/a	1
796.6310000000	n/a	796631	FrequentFixedSOA	1633	n/a	n/a	1
798.2650000000	n/a	798265	GoFixedSOA	305	n/a	n/a	1
799.8980000000	n/a	799898	FrequentFixedSOA	1633	n/a	n/a	1
801.5310000000	n/a	801531	FrequentFixedSOA	1633	n/a	n/a	1
803.1650000000	n/a	803165	NovelFixedSOA	1633	n/a	n/a	1
804.7980000000	n/a	804798	FrequentFixedSOA	1633	n/a	n/a	1
806.4310000000	n/a	806431	GoVariableSOA	444	n/a	n/a	1
808.0150000000	n/a	808015	FrequentVariableSOA	1666	n/a	n/a	1
809.6810000000	n/a	809681	FrequentVariableSOA	1500	n/a	n/a	1
811.1810000000	n/a	811181	FrequentVariableSOA	1616	n/a	n/a	1
812.7980000000	n/a	812798	GoVariableSOA	1733	n/a	n/a	0
814.5310000000	n/a	814531	FrequentVariableSOA	1650	n/a	n/a	1
816.1810000000	n/a	816181	FrequentVariableSOA	1566	n/a	n/a	1
817.7480000000	n/a	817748	FrequentVariableSOA	1650	n/a	n/a	1
819.3980000000	n/a	819398	FrequentVariableSOA	1550	n/a	n/a	1
820.9480000000	n/a	820948	GoVariableSOA	404	n/a	n/a	1
822.6980000000	n/a	822698	FrequentVariableSOA	1533	n/a	n/a	1
824.2310000000	n/a	824231	FrequentVariableSOA	1783	n/a	n/a	1
826.0150000000	n/a	826015	NovelVariableSOA	1683	n/a	n/a	1
827.6980000000	n/a	827698	FrequentVariableSOA	1666	n/a	n/a	1
829.3650000000	n/a	829365	FrequentVariableSOA	1783	n/a	n/a	1
831.1480000000	n/a	831148	GoVariableSOA	497	n/a	n/a	1
832.8310000000	n/a	832831	FrequentVariableSOA	1750	n/a	n/a	1
834.5810000000	n/a	834581	FrequentVariableSOA	1650	n/a	n/a	1
836.2310000000	n/a	836231	FrequentVariableSOA	1716	n/a	n/a	1
837.9480000000	n/a	837948	NovelVariableSOA	1500	n/a	n/a	1
839.4480000000	n/a	839448	FrequentVariableSOA	1516	n/a	n/a	1
840.9650000000	n/a	840965	NovelVariableSOA	1766	n/a	n/a	1
842.7310000000	n/a	842731	FrequentVariableSOA	1766	n/a	n/a	1
844.4980000000	n/a	844498	FrequentVariableSOA	1783	n/a	n/a	1
846.2810000000	n/a	846281	FrequentVariableSOA	1766	n/a	n/a	1
848.0480000000	n/a	848048	GoVariableSOA	758	n/a	n/a	1
849.5650000000	n/a	849565	FrequentVariableSOA	1566	n/a	n/a	1
851.1310000000	n/a	851131	FrequentVariableSOA	1700	n/a	n/a	1
852.8310000000	n/a	852831	FrequentVariableSOA	1550	n/a	n/a	1
854.3810000000	n/a	854381	GoVariableSOA	471	n/a	n/a	1
856.1310000000	n/a	856131	FrequentVariableSOA	1716	n/a	n/a	1
857.8480000000	n/a	857848	FrequentVariableSOA	1800	n/a	n/a	1
859.6480000000	n/a	859648	NovelVariableSOA	1500	n/a	n/a	1
861.1480000000	n/a	861148	FrequentVariableSOA	1550	n/a	n/a	1
862.6980000000	n/a	862698	GoVariableSOA	401	n/a	n/a	1
864.4650000000	n/a	864465	FrequentVariableSOA	1566	n/a	n/a	1
866.0310000000	n/a	866031	FrequentVariableSOA	1683	n/a	n/a	1
867.7150000000	n/a	867715	FrequentVariableSOA	1616	n/a	n/a	1
869.3310000000	n/a	869331	FrequentVariableSOA	1733	n/a	n/a	1
871.0650000000	n/a	871065	FrequentVariableSOA	1800	n/a	n/a	1
872.8650000000	n/a	872865	FrequentVariableSOA	1616	n/a	n/a	1
874.4810000000	n/a	874481	NovelVariableSOA	1566	n/a	n/a	1
876.0480000000	n/a	876048	FrequentVariableSOA	1750	n/a	n/a	1
877.7980000000	n/a	877798	FrequentVariableSOA	1600	n/a	n/a	1
879.3980000000	n/a	879398	FrequentVariableSOA	1633	n/a	n/a	1
881.0310000000	n/a	881031	GoVariableSOA	390	n/a	n/a	1
882.8150000000	n/a	882815	FrequentVariableSOA	1683	n/a	n/a	1
884.4980000000	n/a	884498	FrequentVariableSOA	1516	n/a	n/a	1
886.0150000000	n/a	886015	FrequentVariableSOA	1766	n/a	n/a	1
887.7810000000	n/a	887781	FrequentVariableSOA	1650	n/a	n/a	1
889.4310000000	n/a	889431	NovelVariableSOA	1616	n/a	n/a	1
891.0480000000	n/a	891048	FrequentVariableSOA	1533	n/a	n/a	1
892.5810000000	n/a	892581	FrequentVariableSOA	1600	n/a	n/a	1
894.1810000000	n/a	894181	NovelVariableSOA	1516	n/a	n/a	1
895.6980000000	n/a	895698	FrequentVariableSOA	1516	n/a	n/a	1
897.2150000000	n/a	897215	NovelVariableSOA	1516	n/a	n/a	1
898.7310000000	n/a	898731	FrequentVariableSOA	1733	n/a	n/a	1
900.4650000000	n/a	900465	FrequentVariableSOA	1583	n/a	n/a	1
902.0480000000	n/a	902048	FrequentVariableSOA	1683	n/a	n/a	1
903.7310000000	n/a	903731	FrequentVariableSOA	1633	n/a	n/a	1
905.3650000000	n/a	905365	FrequentVariableSOA	1566	n/a	n/a	1
906.9310000000	n/a	906931	FrequentVariableSOA	1616	n/a	n/a	1
908.5480000000	n/a	908548	FrequentVariableSOA	1516	n/a	n/a	1
910.0650000000	n/a	910065	GoVariableSOA	399	n/a	n/a	1
911.6150000000	n/a	911615	FrequentVariableSOA	1616	n/a	n/a	1
913.2310000000	n/a	913231	GoVariableSOA	450	n/a	n/a	1
914.9810000000	n/a	914981	FrequentVariableSOA	1766	n/a	n/a	1
916.7480000000	n/a	916748	FrequentVariableSOA	1750	n/a	n/a	1
918.4980000000	n/a	918498	NovelVariableSOA	1533	n/a	n/a	1
920.0310000000	n/a	920031	FrequentVariableSOA	1700	n/a	n/a	1
