onset	duration	sample	trial_type	response_time	stim_file	value	correct
7.4920000000	n/a	7492	ignore	6297	n/a	n/a	0
14.8580000000	n/a	14858	ignore	1000	n/a	n/a	1
16.8580000000	n/a	16858	ignore	1700	n/a	n/a	1
18.5580000000	n/a	18558	ignore	2069	n/a	n/a	1
21.6920000000	n/a	21692	ignore	1000	n/a	n/a	1
23.6920000000	n/a	23692	ignore	1700	n/a	n/a	1
25.3920000000	n/a	25392	ignore	2202	n/a	n/a	1
28.6580000000	n/a	28658	ignore	1000	n/a	n/a	1
30.6580000000	n/a	30658	ignore	1700	n/a	n/a	1
32.3580000000	n/a	32358	ignore	703	n/a	n/a	0
34.1250000000	n/a	34125	ignore	1000	n/a	n/a	1
36.1250000000	n/a	36125	ignore	1700	n/a	n/a	1
37.8250000000	n/a	37825	ignore	784	n/a	n/a	1
39.6750000000	n/a	39675	ignore	1000	n/a	n/a	1
41.6750000000	n/a	41675	ignore	1700	n/a	n/a	1
43.3750000000	n/a	43375	ignore	696	n/a	n/a	0
45.1420000000	n/a	45142	ignore	1000	n/a	n/a	1
47.1420000000	n/a	47142	ignore	1700	n/a	n/a	1
48.8420000000	n/a	48842	ignore	1116	n/a	n/a	1
51.0250000000	n/a	51025	ignore	1000	n/a	n/a	1
53.0250000000	n/a	53025	ignore	1700	n/a	n/a	1
54.7250000000	n/a	54725	ignore	453	n/a	n/a	0
56.2420000000	n/a	56242	ignore	1000	n/a	n/a	1
58.2420000000	n/a	58242	ignore	1700	n/a	n/a	1
59.9420000000	n/a	59942	ignore	5479	n/a	n/a	0
65.4920000000	n/a	65492	STATUS	2000	n/a	n/a	1
74.1420000000	n/a	74142	ignore	1000	n/a	n/a	1
76.1420000000	n/a	76142	ignore	1700	n/a	n/a	1
77.8420000000	n/a	77842	ignore	853	n/a	n/a	0
79.7580000000	n/a	79758	ignore	1000	n/a	n/a	1
81.7580000000	n/a	81758	ignore	1700	n/a	n/a	1
83.4580000000	n/a	83458	ignore	828	n/a	n/a	1
85.3580000000	n/a	85358	ignore	1000	n/a	n/a	1
87.3580000000	n/a	87358	ignore	1700	n/a	n/a	1
89.0580000000	n/a	89058	ignore	432	n/a	n/a	1
90.5580000000	n/a	90558	ignore	1000	n/a	n/a	1
92.5580000000	n/a	92558	ignore	1700	n/a	n/a	1
94.2580000000	n/a	94258	ignore	388	n/a	n/a	0
95.7080000000	n/a	95708	ignore	1000	n/a	n/a	1
97.7080000000	n/a	97708	ignore	1700	n/a	n/a	1
99.4080000000	n/a	99408	ignore	1107	n/a	n/a	0
101.5920000000	n/a	101592	ignore	1000	n/a	n/a	1
103.5920000000	n/a	103592	ignore	1700	n/a	n/a	1
105.2920000000	n/a	105292	ignore	570	n/a	n/a	0
106.9250000000	n/a	106925	ignore	1000	n/a	n/a	1
108.9250000000	n/a	108925	ignore	1700	n/a	n/a	1
110.6250000000	n/a	110625	ignore	2324	n/a	n/a	1
114.0250000000	n/a	114025	ignore	1000	n/a	n/a	1
116.0250000000	n/a	116025	ignore	1700	n/a	n/a	1
117.7250000000	n/a	117725	ignore	2333	n/a	n/a	1
120.1250000000	n/a	120125	ignore 	2000	n/a	n/a	1
139.9580000000	n/a	139958	PenaltyB1	6109	n/a	n/a	0
147.1410000000	n/a	147141	PunIncorrB1	1000	n/a	n/a	1
149.1420000000	n/a	149142	ignore	1700	n/a	n/a	1
150.8410000000	n/a	150841	PenaltyB1	997	n/a	n/a	1
152.9080000000	n/a	152908	NeuCorrB1	1000	n/a	n/a	1
154.9080000000	n/a	154908	ignore	1700	n/a	n/a	1
156.6080000000	n/a	156608	PenaltyB1	774	n/a	n/a	0
158.4580000000	n/a	158458	PunIncorrB1	1000	n/a	n/a	1
160.4580000000	n/a	160458	STATUS	1700	n/a	n/a	1
162.1580000000	n/a	162158	RewardB1	949	n/a	n/a	1
164.1750000000	n/a	164175	RewardCorrB1	1000	n/a	n/a	1
166.1750000000	n/a	166175	ignore	1700	n/a	n/a	1
167.8750000000	n/a	167875	RewardB1	455	n/a	n/a	1
169.4080000000	n/a	169408	RewardCorrB1	1000	n/a	n/a	1
171.4080000000	n/a	171408	ignore	1700	n/a	n/a	1
173.1080000000	n/a	173108	PenaltyB1	666	n/a	n/a	0
174.8410000000	n/a	174841	PunIncorrB1	1000	n/a	n/a	1
176.8410000000	n/a	176841	ignore	1700	n/a	n/a	1
178.5410000000	n/a	178541	PenaltyB1	1825	n/a	n/a	1
181.4410000000	n/a	181441	NeuCorrB1	1000	n/a	n/a	1
183.4410000000	n/a	183441	ignore	1700	n/a	n/a	1
185.1410000000	n/a	185141	PenaltyB1	2222	n/a	n/a	1
188.4410000000	n/a	188441	NeuCorrB1	1000	n/a	n/a	1
190.4410000000	n/a	190441	ignore	1700	n/a	n/a	1
192.1410000000	n/a	192141	PenaltyB1	457	n/a	n/a	1
193.6750000000	n/a	193675	PunCorrB1	1000	n/a	n/a	1
195.6750000000	n/a	195675	STATUS	1700	n/a	n/a	1
197.3750000000	n/a	197375	RewardB1	699	n/a	n/a	0
199.1410000000	n/a	199141	NeuIncorrB1	1000	n/a	n/a	1
201.1410000000	n/a	201141	STATUS	1700	n/a	n/a	1
202.8410000000	n/a	202841	PenaltyB1	3199	n/a	n/a	0
207.1080000000	n/a	207108	PunIncorrB1	1000	n/a	n/a	1
209.1080000000	n/a	209108	STATUS	1700	n/a	n/a	1
210.8080000000	n/a	210808	RewardB1	1701	n/a	n/a	1
213.5750000000	n/a	213575	NeuCorrB1	1000	n/a	n/a	1
215.5750000000	n/a	215575	STATUS	1700	n/a	n/a	1
217.2750000000	n/a	217275	PenaltyB1	839	n/a	n/a	1
219.1910000000	n/a	219191	NeuCorrB1	1000	n/a	n/a	1
221.1910000000	n/a	221191	STATUS	1700	n/a	n/a	1
222.8910000000	n/a	222891	RewardB1	905	n/a	n/a	0
224.8750000000	n/a	224875	NeuIncorrB1	1000	n/a	n/a	1
226.8750000000	n/a	226875	STATUS	1700	n/a	n/a	1
228.5750000000	n/a	228575	PenaltyB1	961	n/a	n/a	1
230.6080000000	n/a	230608	NeuCorrB1	1000	n/a	n/a	1
232.6080000000	n/a	232608	STATUS	1700	n/a	n/a	1
234.3080000000	n/a	234308	PenaltyB1	2664	n/a	n/a	1
238.0410000000	n/a	238041	NeuCorrB1	1000	n/a	n/a	1
240.0410000000	n/a	240041	STATUS	1700	n/a	n/a	1
241.7410000000	n/a	241741	RewardB1	843	n/a	n/a	0
243.6580000000	n/a	243658	RewIncorrB1	1000	n/a	n/a	1
245.6580000000	n/a	245658	STATUS	1700	n/a	n/a	1
247.3580000000	n/a	247358	PenaltyB1	1116	n/a	n/a	1
249.5410000000	n/a	249541	NeuCorrB1	1000	n/a	n/a	1
251.5410000000	n/a	251541	STATUS	1700	n/a	n/a	1
253.2410000000	n/a	253241	RewardB1	815	n/a	n/a	0
255.1250000000	n/a	255125	NeuIncorrB1	1000	n/a	n/a	1
257.1250000000	n/a	257125	STATUS	1700	n/a	n/a	1
258.8250000000	n/a	258825	RewardB1	4097	n/a	n/a	1
263.9910000000	n/a	263991	RewardCorrB1	1000	n/a	n/a	1
265.9910000000	n/a	265991	ignore	1700	n/a	n/a	1
267.6910000000	n/a	267691	RewardB1	1208	n/a	n/a	1
269.9750000000	n/a	269975	NeuCorrB1	1000	n/a	n/a	1
271.9750000000	n/a	271975	ignore	1700	n/a	n/a	1
273.6750000000	n/a	273675	RewardB1	3829	n/a	n/a	1
278.5750000000	n/a	278575	RewardCorrB1	1000	n/a	n/a	1
280.5750000000	n/a	280575	ignore	1700	n/a	n/a	1
282.2750000000	n/a	282275	RewardB1	1076	n/a	n/a	0
284.4250000000	n/a	284425	NeuIncorrB1	1000	n/a	n/a	1
286.4250000000	n/a	286425	ignore	1700	n/a	n/a	1
288.1250000000	n/a	288125	PenaltyB1	3456	n/a	n/a	1
292.6580000000	n/a	292658	NeuCorrB1	1000	n/a	n/a	1
294.6580000000	n/a	294658	ignore	1700	n/a	n/a	1
296.3580000000	n/a	296358	RewardB1	321	n/a	n/a	0
297.7410000000	n/a	297741	NeuIncorrB1	1000	n/a	n/a	1
299.7410000000	n/a	299741	ignore	1700	n/a	n/a	1
301.4410000000	n/a	301441	PenaltyB1	5434	n/a	n/a	0
307.9410000000	n/a	307941	NeuIncorrB1	1000	n/a	n/a	1
309.9410000000	n/a	309941	ignore	1700	n/a	n/a	1
311.6410000000	n/a	311641	RewardB1	1256	n/a	n/a	0
313.9750000000	n/a	313975	NeuIncorrB1	1000	n/a	n/a	1
315.9750000000	n/a	315975	ignore	1700	n/a	n/a	1
317.6750000000	n/a	317675	RewardB1	8957	n/a	n/a	0
327.7080000000	n/a	327708	NeuIncorrB1	1000	n/a	n/a	1
329.7080000000	n/a	329708	ignore	1700	n/a	n/a	1
331.4080000000	n/a	331408	RewardB1	5021	n/a	n/a	0
337.4910000000	n/a	337491	NeuIncorrB1	1000	n/a	n/a	1
339.4910000000	n/a	339491	ignore	1700	n/a	n/a	1
341.1910000000	n/a	341191	PenaltyB1	23487	n/a	n/a	0
365.7410000000	n/a	365741	PunIncorrB1	1000	n/a	n/a	1
367.7410000000	n/a	367741	ignore	1700	n/a	n/a	1
369.4410000000	n/a	369441	RewardB1	597	n/a	n/a	0
371.1080000000	n/a	371108	RewIncorrB1	1000	n/a	n/a	1
373.1080000000	n/a	373108	ignore	1700	n/a	n/a	1
374.8080000000	n/a	374808	PenaltyB1	792	n/a	n/a	1
376.6740000000	n/a	376674	NeuCorrB1	1000	n/a	n/a	1
378.6740000000	n/a	378674	ignore	1700	n/a	n/a	1
380.3740000000	n/a	380374	RewardB1	7905	n/a	n/a	1
389.3580000000	n/a	389358	RewardCorrB1	1000	n/a	n/a	1
391.3580000000	n/a	391358	ignore	1700	n/a	n/a	1
393.0580000000	n/a	393058	PenaltyB1	9544	n/a	n/a	1
403.6740000000	n/a	403674	PunCorrB1	1000	n/a	n/a	1
405.6740000000	n/a	405674	ignore	1700	n/a	n/a	1
407.3740000000	n/a	407374	RewardB1	580	n/a	n/a	1
409.0240000000	n/a	409024	RewardCorrB1	1000	n/a	n/a	1
411.0240000000	n/a	411024	ignore	1700	n/a	n/a	1
412.7240000000	n/a	412724	PenaltyB1	11189	n/a	n/a	0
424.9910000000	n/a	424991	PunIncorrB1	1000	n/a	n/a	1
426.9910000000	n/a	426991	ignore	1700	n/a	n/a	1
428.6910000000	n/a	428691	PenaltyB1	524	n/a	n/a	0
430.2910000000	n/a	430291	PunIncorrB1	1000	n/a	n/a	1
432.2910000000	n/a	432291	ignore	1700	n/a	n/a	1
433.9910000000	n/a	433991	RewardB1	498	n/a	n/a	0
435.5580000000	n/a	435558	NeuIncorrB1	1000	n/a	n/a	1
437.5580000000	n/a	437558	ignore	1700	n/a	n/a	1
439.2580000000	n/a	439258	PenaltyB1	415	n/a	n/a	1
440.7410000000	n/a	440741	PunCorrB1	1000	n/a	n/a	1
442.7410000000	n/a	442741	STATUS	1700	n/a	n/a	1
444.4410000000	n/a	444441	RewardB1	629	n/a	n/a	1
446.1410000000	n/a	446141	RewardCorrB1	1000	n/a	n/a	1
448.1410000000	n/a	448141	ignore	1700	n/a	n/a	1
451.3580000000	n/a	451358	RewardB2	4607	n/a	n/a	1
457.0410000000	n/a	457041	RewardCorrB2	1000	n/a	n/a	1
459.0410000000	n/a	459041	ignore	1700	n/a	n/a	1
460.7410000000	n/a	460741	PenaltyB2	4516	n/a	n/a	0
466.3240000000	n/a	466324	PunIncorrB2	1000	n/a	n/a	1
468.3240000000	n/a	468324	ignore	1700	n/a	n/a	1
470.0240000000	n/a	470024	RewardB2	470	n/a	n/a	1
471.5580000000	n/a	471558	RewardCorrB2	1000	n/a	n/a	1
473.5580000000	n/a	473558	ignore	1700	n/a	n/a	1
475.2580000000	n/a	475258	RewardB2	613	n/a	n/a	1
476.9410000000	n/a	476941	NeuCorrB2	1000	n/a	n/a	1
478.9410000000	n/a	478941	ignore	1700	n/a	n/a	1
480.6410000000	n/a	480641	PenaltyB2	15220	n/a	n/a	0
496.9240000000	n/a	496924	PunIncorrB2	1000	n/a	n/a	1
498.9240000000	n/a	498924	ignore	1700	n/a	n/a	1
500.6240000000	n/a	500624	RewardB2	441	n/a	n/a	0
502.1410000000	n/a	502141	NeuIncorrB2	1000	n/a	n/a	1
504.1410000000	n/a	504141	ignore	1700	n/a	n/a	1
505.8410000000	n/a	505841	PenaltyB2	349	n/a	n/a	1
507.2580000000	n/a	507258	NeuCorrB2	1000	n/a	n/a	1
509.2580000000	n/a	509258	ignore	1700	n/a	n/a	1
510.9580000000	n/a	510958	RewardB2	2797	n/a	n/a	0
514.8240000000	n/a	514824	NeuIncorrB2	1000	n/a	n/a	1
516.8240000000	n/a	516824	ignore	1700	n/a	n/a	1
518.5240000000	n/a	518524	PenaltyB2	870	n/a	n/a	1
520.4580000000	n/a	520458	NeuCorrB2	1000	n/a	n/a	1
522.4580000000	n/a	522458	ignore	1700	n/a	n/a	1
524.1580000000	n/a	524158	RewardB2	12416	n/a	n/a	1
537.6410000000	n/a	537641	RewardCorrB2	1000	n/a	n/a	1
539.6410000000	n/a	539641	ignore	1700	n/a	n/a	1
541.3410000000	n/a	541341	PenaltyB2	4133	n/a	n/a	0
546.5410000000	n/a	546541	NeuIncorrB2	1000	n/a	n/a	1
548.5410000000	n/a	548541	ignore	1700	n/a	n/a	1
550.2410000000	n/a	550241	RewardB2	2314	n/a	n/a	0
553.6240000000	n/a	553624	NeuIncorrB2	1000	n/a	n/a	1
555.6240000000	n/a	555624	ignore	1700	n/a	n/a	1
557.3240000000	n/a	557324	PenaltyB2	22980	n/a	n/a	1
581.3740000000	n/a	581374	NeuCorrB2	1000	n/a	n/a	1
583.3740000000	n/a	583374	ignore	1700	n/a	n/a	1
585.0740000000	n/a	585074	RewardB2	2256	n/a	n/a	0
588.4070000000	n/a	588407	NeuIncorrB2	1000	n/a	n/a	1
590.4070000000	n/a	590407	ignore	1700	n/a	n/a	1
592.1070000000	n/a	592107	PenaltyB2	709	n/a	n/a	1
593.8910000000	n/a	593891	NeuCorrB2	1000	n/a	n/a	1
595.8910000000	n/a	595891	ignore	1700	n/a	n/a	1
597.5910000000	n/a	597591	RewardB2	523	n/a	n/a	0
599.1910000000	n/a	599191	RewIncorrB2	1000	n/a	n/a	1
601.1910000000	n/a	601191	ignore	1700	n/a	n/a	1
602.8910000000	n/a	602891	PenaltyB2	1287	n/a	n/a	0
605.2410000000	n/a	605241	PunIncorrB2	1000	n/a	n/a	1
607.2410000000	n/a	607241	ignore	1700	n/a	n/a	1
608.9410000000	n/a	608941	RewardB2	837	n/a	n/a	0
610.8410000000	n/a	610841	NeuIncorrB2	1000	n/a	n/a	1
612.8410000000	n/a	612841	ignore	1700	n/a	n/a	1
614.5410000000	n/a	614541	PenaltyB2	729	n/a	n/a	1
616.3410000000	n/a	616341	NeuCorrB2	1000	n/a	n/a	1
618.3410000000	n/a	618341	ignore	1700	n/a	n/a	1
620.0410000000	n/a	620041	RewardB2	1621	n/a	n/a	1
622.7240000000	n/a	622724	RewardCorrB2	1000	n/a	n/a	1
624.7240000000	n/a	624724	ignore	1700	n/a	n/a	1
626.4240000000	n/a	626424	PenaltyB2	11399	n/a	n/a	0
638.8910000000	n/a	638891	NeuIncorrB2	1000	n/a	n/a	1
640.8910000000	n/a	640891	ignore	1700	n/a	n/a	1
642.5910000000	n/a	642591	PenaltyB2	828	n/a	n/a	0
644.4910000000	n/a	644491	PunIncorrB2	1000	n/a	n/a	1
646.4910000000	n/a	646491	ignore	1700	n/a	n/a	1
648.1910000000	n/a	648191	PenaltyB2	463	n/a	n/a	0
649.7240000000	n/a	649724	PunIncorrB2	1000	n/a	n/a	1
651.7240000000	n/a	651724	ignore	1700	n/a	n/a	1
653.4240000000	n/a	653424	RewardB2	564	n/a	n/a	0
655.0570000000	n/a	655057	NeuIncorrB2	1000	n/a	n/a	1
657.0570000000	n/a	657057	ignore	1700	n/a	n/a	1
658.7570000000	n/a	658757	RewardB2	997	n/a	n/a	1
660.8240000000	n/a	660824	NeuCorrB2	1000	n/a	n/a	1
662.8240000000	n/a	662824	ignore	1700	n/a	n/a	1
664.5240000000	n/a	664524	RewardB2	1668	n/a	n/a	1
667.2570000000	n/a	667257	RewardCorrB2	1000	n/a	n/a	1
669.2570000000	n/a	669257	ignore	1700	n/a	n/a	1
670.9570000000	n/a	670957	PenaltyB2	23451	n/a	n/a	1
695.4740000000	n/a	695474	NeuCorrB2	1000	n/a	n/a	1
697.4740000000	n/a	697474	ignore	1700	n/a	n/a	1
699.1740000000	n/a	699174	PenaltyB2	424	n/a	n/a	0
700.6740000000	n/a	700674	PunIncorrB2	1000	n/a	n/a	1
702.6740000000	n/a	702674	ignore	1700	n/a	n/a	1
704.3740000000	n/a	704374	RewardB2	618	n/a	n/a	0
706.0570000000	n/a	706057	NeuIncorrB2	1000	n/a	n/a	1
708.0570000000	n/a	708057	ignore	1700	n/a	n/a	1
709.7570000000	n/a	709757	PenaltyB2	1603	n/a	n/a	1
712.4240000000	n/a	712424	NeuCorrB2	1000	n/a	n/a	1
714.4240000000	n/a	714424	ignore	1700	n/a	n/a	1
716.1240000000	n/a	716124	RewardB2	9268	n/a	n/a	1
726.4570000000	n/a	726457	NeuCorrB2	1000	n/a	n/a	1
728.4570000000	n/a	728457	ignore	1700	n/a	n/a	1
730.1570000000	n/a	730157	PenaltyB2	772	n/a	n/a	1
732.0070000000	n/a	732007	NeuCorrB2	1000	n/a	n/a	1
734.0070000000	n/a	734007	ignore	1700	n/a	n/a	1
735.7070000000	n/a	735707	RewardB2	1039	n/a	n/a	0
737.8240000000	n/a	737824	NeuIncorrB2	1000	n/a	n/a	1
739.8240000000	n/a	739824	ignore	1700	n/a	n/a	1
741.5240000000	n/a	741524	PenaltyB2	4952	n/a	n/a	0
747.5400000000	n/a	747540	PunIncorrB2	1000	n/a	n/a	1
749.5410000000	n/a	749541	STATUS	1700	n/a	n/a	1
751.2400000000	n/a	751240	PenaltyB2	11674	n/a	n/a	1
763.9900000000	n/a	763990	PunCorrB2	1000	n/a	n/a	1
765.9910000000	n/a	765991	STATUS	1700	n/a	n/a	1
767.6900000000	n/a	767690	RewardB2	546	n/a	n/a	1
769.3070000000	n/a	769307	RewardCorrB2	1000	n/a	n/a	1
771.3070000000	n/a	771307	STATUS	1700	n/a	n/a	1
773.0070000000	n/a	773007	PenaltyB2	11137	n/a	n/a	0
785.2070000000	n/a	785207	PunIncorrB2	1000	n/a	n/a	1
787.2070000000	n/a	787207	STATUS	1700	n/a	n/a	1
788.9070000000	n/a	788907	RewardB2	548	n/a	n/a	0
790.5240000000	n/a	790524	NeuIncorrB2	1000	n/a	n/a	1
792.5240000000	n/a	792524	STATUS	1700	n/a	n/a	1
794.2240000000	n/a	794224	PenaltyB2	430	n/a	n/a	1
795.7240000000	n/a	795724	PunCorrB2	1000	n/a	n/a	1
797.7240000000	n/a	797724	STATUS	1700	n/a	n/a	1
799.4240000000	n/a	799424	RewardB2	955	n/a	n/a	1
801.4570000000	n/a	801457	RewardCorrB2	1000	n/a	n/a	1
803.4570000000	n/a	803457	STATUS	1700	n/a	n/a	1
807.0400000000	n/a	807040	RewardB3	2426	n/a	n/a	0
810.5400000000	n/a	810540	NeuIncorrB3	1000	n/a	n/a	1
812.5400000000	n/a	812540	STATUS	1700	n/a	n/a	1
814.2400000000	n/a	814240	PenaltyB3	1039	n/a	n/a	0
816.3570000000	n/a	816357	NeuIncorrB3	1000	n/a	n/a	1
818.3570000000	n/a	818357	STATUS	1700	n/a	n/a	1
820.0570000000	n/a	820057	RewardB3	8172	n/a	n/a	0
829.3070000000	n/a	829307	NeuIncorrB3	1000	n/a	n/a	1
831.3070000000	n/a	831307	STATUS	1700	n/a	n/a	1
833.0070000000	n/a	833007	PenaltyB3	796	n/a	n/a	1
834.8740000000	n/a	834874	NeuCorrB3	1000	n/a	n/a	1
836.8740000000	n/a	836874	STATUS	1700	n/a	n/a	1
838.5740000000	n/a	838574	PenaltyB3	1420	n/a	n/a	1
841.0570000000	n/a	841057	NeuCorrB3	1000	n/a	n/a	1
843.0570000000	n/a	843057	STATUS	1700	n/a	n/a	1
844.7570000000	n/a	844757	RewardB3	489	n/a	n/a	0
846.3240000000	n/a	846324	NeuIncorrB3	1000	n/a	n/a	1
848.3240000000	n/a	848324	STATUS	1700	n/a	n/a	1
850.0240000000	n/a	850024	PenaltyB3	2566	n/a	n/a	0
853.6570000000	n/a	853657	NeuIncorrB3	1000	n/a	n/a	1
855.6570000000	n/a	855657	STATUS	1700	n/a	n/a	1
857.3570000000	n/a	857357	RewardB3	622	n/a	n/a	1
859.0570000000	n/a	859057	RewardCorrB3	1000	n/a	n/a	1
861.0570000000	n/a	861057	STATUS	1700	n/a	n/a	1
862.7570000000	n/a	862757	PenaltyB3	3957	n/a	n/a	0
867.7900000000	n/a	867790	PunIncorrB3	1000	n/a	n/a	1
869.7900000000	n/a	869790	STATUS	1700	n/a	n/a	1
871.4900000000	n/a	871490	RewardB3	10099	n/a	n/a	0
882.6570000000	n/a	882657	RewIncorrB3	1000	n/a	n/a	1
884.6570000000	n/a	884657	STATUS	1700	n/a	n/a	1
886.3570000000	n/a	886357	PenaltyB3	1061	n/a	n/a	0
888.4900000000	n/a	888490	PunIncorrB3	1000	n/a	n/a	1
890.4900000000	n/a	890490	STATUS	1700	n/a	n/a	1
892.1900000000	n/a	892190	RewardB3	6485	n/a	n/a	1
899.7400000000	n/a	899740	RewardCorrB3	1000	n/a	n/a	1
901.7400000000	n/a	901740	STATUS	1700	n/a	n/a	1
903.4400000000	n/a	903440	RewardB3	567	n/a	n/a	1
905.0740000000	n/a	905074	RewardCorrB3	1000	n/a	n/a	1
907.0740000000	n/a	907074	ignore	1700	n/a	n/a	1
908.7740000000	n/a	908774	RewardB3	8029	n/a	n/a	0
917.8740000000	n/a	917874	NeuIncorrB3	1000	n/a	n/a	1
919.8740000000	n/a	919874	ignore	1700	n/a	n/a	1
921.5740000000	n/a	921574	PenaltyB3	1658	n/a	n/a	1
924.3070000000	n/a	924307	PunCorrB3	1000	n/a	n/a	1
926.3070000000	n/a	926307	STATUS	1700	n/a	n/a	1
928.0070000000	n/a	928007	RewardB3	552	n/a	n/a	0
929.6230000000	n/a	929623	NeuIncorrB3	1000	n/a	n/a	1
931.6240000000	n/a	931624	STATUS	1700	n/a	n/a	1
933.3230000000	n/a	933323	PenaltyB3	838	n/a	n/a	1
935.2400000000	n/a	935240	NeuCorrB3	1000	n/a	n/a	1
937.2400000000	n/a	937240	STATUS	1700	n/a	n/a	1
938.9400000000	n/a	938940	RewardB3	11725	n/a	n/a	1
951.7400000000	n/a	951740	RewardCorrB3	1000	n/a	n/a	1
953.7400000000	n/a	953740	ignore	1700	n/a	n/a	1
955.4400000000	n/a	955440	RewardB3	551	n/a	n/a	0
957.0570000000	n/a	957057	NeuIncorrB3	1000	n/a	n/a	1
959.0570000000	n/a	959057	ignore	1700	n/a	n/a	1
960.7570000000	n/a	960757	RewardB3	839	n/a	n/a	0
962.6730000000	n/a	962673	RewIncorrB3	1000	n/a	n/a	1
964.6740000000	n/a	964674	ignore	1700	n/a	n/a	1
966.3730000000	n/a	966373	RewardB3	6718	n/a	n/a	1
974.1570000000	n/a	974157	RewardCorrB3	1000	n/a	n/a	1
976.1570000000	n/a	976157	ignore	1700	n/a	n/a	1
977.8570000000	n/a	977857	RewardB3	564	n/a	n/a	1
979.4900000000	n/a	979490	RewardCorrB3	1000	n/a	n/a	1
981.4900000000	n/a	981490	ignore	1700	n/a	n/a	1
983.1900000000	n/a	983190	PenaltyB3	1277	n/a	n/a	0
985.5400000000	n/a	985540	PunIncorrB3	1000	n/a	n/a	1
987.5400000000	n/a	987540	ignore	1700	n/a	n/a	1
989.2400000000	n/a	989240	RewardB3	629	n/a	n/a	1
990.9400000000	n/a	990940	NeuCorrB3	1000	n/a	n/a	1
992.9400000000	n/a	992940	ignore	1700	n/a	n/a	1
994.6400000000	n/a	994640	PenaltyB3	1187	n/a	n/a	1
996.8900000000	n/a	996890	NeuCorrB3	1000	n/a	n/a	1
998.8900000000	n/a	998890	ignore	1700	n/a	n/a	1
1000.5900000000	n/a	1000590	PenaltyB3	750	n/a	n/a	1
1002.4070000000	n/a	1002407	NeuCorrB3	1000	n/a	n/a	1
1004.4070000000	n/a	1004407	ignore	1700	n/a	n/a	1
1006.1070000000	n/a	1006107	RewardB3	937	n/a	n/a	1
1008.1070000000	n/a	1008107	RewardCorrB3	1000	n/a	n/a	1
1010.1070000000	n/a	1010107	ignore	1700	n/a	n/a	1
1011.8070000000	n/a	1011807	PenaltyB3	5730	n/a	n/a	0
1018.6070000000	n/a	1018607	PunIncorrB3	1000	n/a	n/a	1
1020.6070000000	n/a	1020607	ignore	1700	n/a	n/a	1
1022.3070000000	n/a	1022307	RewardB3	544	n/a	n/a	1
1023.9230000000	n/a	1023923	NeuCorrB3	1000	n/a	n/a	1
1025.9230000000	n/a	1025923	ignore	1700	n/a	n/a	1
1027.6230000000	n/a	1027623	PenaltyB3	23641	n/a	n/a	0
1052.3400000000	n/a	1052340	PunIncorrB3	1000	n/a	n/a	1
1054.3400000000	n/a	1054340	ignore	1700	n/a	n/a	1
1056.0400000000	n/a	1056040	RewardB3	1435	n/a	n/a	0
1058.5400000000	n/a	1058540	NeuIncorrB3	1000	n/a	n/a	1
1060.5400000000	n/a	1060540	ignore	1700	n/a	n/a	1
1062.2400000000	n/a	1062240	PenaltyB3	832	n/a	n/a	1
1064.1400000000	n/a	1064140	PunCorrB3	1000	n/a	n/a	1
1066.1400000000	n/a	1066140	ignore	1700	n/a	n/a	1
1067.8400000000	n/a	1067840	PenaltyB3	499	n/a	n/a	1
1069.4070000000	n/a	1069407	NeuCorrB3	1000	n/a	n/a	1
1071.4070000000	n/a	1071407	ignore	1700	n/a	n/a	1
1073.1070000000	n/a	1073107	PenaltyB3	659	n/a	n/a	1
1074.8400000000	n/a	1074840	NeuCorrB3	1000	n/a	n/a	1
1076.8400000000	n/a	1076840	ignore	1700	n/a	n/a	1
1078.5400000000	n/a	1078540	PenaltyB3	792	n/a	n/a	1
1080.4070000000	n/a	1080407	NeuCorrB3	1000	n/a	n/a	1
1082.4070000000	n/a	1082407	ignore	1700	n/a	n/a	1
1084.1070000000	n/a	1084107	RewardB3	1049	n/a	n/a	0
1086.2230000000	n/a	1086223	NeuIncorrB3	1000	n/a	n/a	1
1088.2230000000	n/a	1088223	ignore	1700	n/a	n/a	1
1089.9230000000	n/a	1089923	RewardB3	532	n/a	n/a	1
1091.5230000000	n/a	1091523	RewardCorrB3	1000	n/a	n/a	1
1093.5230000000	n/a	1093523	ignore	1700	n/a	n/a	1
1095.2230000000	n/a	1095223	PenaltyB3	6257	n/a	n/a	0
1102.5570000000	n/a	1102557	PunIncorrB3	1000	n/a	n/a	1
1104.5570000000	n/a	1104557	ignore	1700	n/a	n/a	1
1106.2570000000	n/a	1106257	PenaltyB3	2079	n/a	n/a	1
1109.4070000000	n/a	1109407	NeuCorrB3	1000	n/a	n/a	1
1111.4070000000	n/a	1111407	ignore	1700	n/a	n/a	1
1113.1070000000	n/a	1113107	PenaltyB3	1059	n/a	n/a	0
1115.2400000000	n/a	1115240	PunIncorrB3	1000	n/a	n/a	1
1117.2400000000	n/a	1117240	STATUS	1700	n/a	n/a	1
1120.0570000000	n/a	1120057	RewardB4	786	n/a	n/a	1
1121.9070000000	n/a	1121907	RewardCorrB4	1000	n/a	n/a	1
1123.9070000000	n/a	1123907	ignore	1700	n/a	n/a	1
1125.6070000000	n/a	1125607	PenaltyB4	1236	n/a	n/a	1
1127.9060000000	n/a	1127906	PunCorrB4	1000	n/a	n/a	1
1129.9070000000	n/a	1129907	STATUS	1700	n/a	n/a	1
1131.6060000000	n/a	1131606	RewardB4	770	n/a	n/a	0
1133.4400000000	n/a	1133440	NeuIncorrB4	1000	n/a	n/a	1
1135.4400000000	n/a	1135440	STATUS	1700	n/a	n/a	1
1137.1400000000	n/a	1137140	PenaltyB4	1209	n/a	n/a	0
1139.4230000000	n/a	1139423	PunIncorrB4	1000	n/a	n/a	1
1141.4230000000	n/a	1141423	STATUS	1700	n/a	n/a	1
1143.1230000000	n/a	1143123	RewardB4	403	n/a	n/a	1
1144.5900000000	n/a	1144590	RewardCorrB4	1000	n/a	n/a	1
1146.5900000000	n/a	1146590	STATUS	1700	n/a	n/a	1
1148.2900000000	n/a	1148290	PenaltyB4	1460	n/a	n/a	0
1150.8230000000	n/a	1150823	NeuIncorrB4	1000	n/a	n/a	1
1152.8230000000	n/a	1152823	STATUS	1700	n/a	n/a	1
1154.5230000000	n/a	1154523	PenaltyB4	4692	n/a	n/a	1
1160.2900000000	n/a	1160290	NeuCorrB4	1000	n/a	n/a	1
1162.2900000000	n/a	1162290	STATUS	1700	n/a	n/a	1
1163.9900000000	n/a	1163990	RewardB4	1024	n/a	n/a	0
1166.0900000000	n/a	1166090	NeuIncorrB4	1000	n/a	n/a	1
1168.0900000000	n/a	1168090	STATUS	1700	n/a	n/a	1
1169.7900000000	n/a	1169790	PenaltyB4	918	n/a	n/a	1
1171.7730000000	n/a	1171773	NeuCorrB4	1000	n/a	n/a	1
1173.7730000000	n/a	1173773	STATUS	1700	n/a	n/a	1
1175.4730000000	n/a	1175473	RewardB4	5748	n/a	n/a	1
1182.2900000000	n/a	1182290	NeuCorrB4	1000	n/a	n/a	1
1184.2900000000	n/a	1184290	STATUS	1700	n/a	n/a	1
1185.9900000000	n/a	1185990	PenaltyB4	2859	n/a	n/a	1
1189.9230000000	n/a	1189923	NeuCorrB4	1000	n/a	n/a	1
1191.9230000000	n/a	1191923	STATUS	1700	n/a	n/a	1
1193.6230000000	n/a	1193623	RewardB4	9145	n/a	n/a	0
1203.8400000000	n/a	1203840	NeuIncorrB4	1000	n/a	n/a	1
1205.8400000000	n/a	1205840	STATUS	1700	n/a	n/a	1
1207.5400000000	n/a	1207540	PenaltyB4	1688	n/a	n/a	1
1210.2900000000	n/a	1210290	NeuCorrB4	1000	n/a	n/a	1
1212.2900000000	n/a	1212290	STATUS	1700	n/a	n/a	1
1213.9900000000	n/a	1213990	PenaltyB4	7376	n/a	n/a	0
1222.4400000000	n/a	1222440	PunIncorrB4	1000	n/a	n/a	1
1224.4400000000	n/a	1224440	STATUS	1700	n/a	n/a	1
1226.1400000000	n/a	1226140	RewardB4	5483	n/a	n/a	1
1232.6900000000	n/a	1232690	RewardCorrB4	1000	n/a	n/a	1
1234.6900000000	n/a	1234690	STATUS	1700	n/a	n/a	1
1236.3900000000	n/a	1236390	RewardB4	674	n/a	n/a	1
1238.1400000000	n/a	1238140	NeuCorrB4	1000	n/a	n/a	1
1240.1400000000	n/a	1240140	STATUS	1700	n/a	n/a	1
1241.8400000000	n/a	1241840	RewardB4	7189	n/a	n/a	0
1250.1060000000	n/a	1250106	NeuIncorrB4	1000	n/a	n/a	1
1252.1060000000	n/a	1252106	STATUS	1700	n/a	n/a	1
1253.8060000000	n/a	1253806	PenaltyB4	531	n/a	n/a	1
1255.4060000000	n/a	1255406	NeuCorrB4	1000	n/a	n/a	1
1257.4060000000	n/a	1257406	STATUS	1700	n/a	n/a	1
1259.1060000000	n/a	1259106	PenaltyB4	1623	n/a	n/a	0
1261.8060000000	n/a	1261806	PunIncorrB4	1000	n/a	n/a	1
1263.8060000000	n/a	1263806	STATUS	1700	n/a	n/a	1
1265.5060000000	n/a	1265506	PenaltyB4	1301	n/a	n/a	1
1267.8730000000	n/a	1267873	PunCorrB4	1000	n/a	n/a	1
1269.8730000000	n/a	1269873	STATUS	1700	n/a	n/a	1
1271.5730000000	n/a	1271573	RewardB4	6865	n/a	n/a	1
1279.5060000000	n/a	1279506	RewardCorrB4	1000	n/a	n/a	1
1281.5060000000	n/a	1281506	STATUS	1700	n/a	n/a	1
1283.2060000000	n/a	1283206	PenaltyB4	973	n/a	n/a	0
1285.2560000000	n/a	1285256	PunIncorrB4	1000	n/a	n/a	1
1287.2560000000	n/a	1287256	STATUS	1700	n/a	n/a	1
1288.9560000000	n/a	1288956	RewardB4	761	n/a	n/a	0
1290.7900000000	n/a	1290790	NeuIncorrB4	1000	n/a	n/a	1
1292.7900000000	n/a	1292790	STATUS	1700	n/a	n/a	1
1294.4900000000	n/a	1294490	PenaltyB4	1644	n/a	n/a	1
1297.2060000000	n/a	1297206	NeuCorrB4	1000	n/a	n/a	1
1299.2060000000	n/a	1299206	STATUS	1700	n/a	n/a	1
1300.9060000000	n/a	1300906	RewardB4	18902	n/a	n/a	0
1320.8730000000	n/a	1320873	RewIncorrB4	1000	n/a	n/a	1
1322.8730000000	n/a	1322873	STATUS	1700	n/a	n/a	1
1324.5730000000	n/a	1324573	PenaltyB4	2068	n/a	n/a	1
1327.7060000000	n/a	1327706	NeuCorrB4	1000	n/a	n/a	1
1329.7060000000	n/a	1329706	STATUS	1700	n/a	n/a	1
1331.4060000000	n/a	1331406	RewardB4	843	n/a	n/a	0
1333.3230000000	n/a	1333323	NeuIncorrB4	1000	n/a	n/a	1
1335.3230000000	n/a	1335323	STATUS	1700	n/a	n/a	1
1337.0230000000	n/a	1337023	PenaltyB4	1551	n/a	n/a	0
1339.6390000000	n/a	1339639	PunIncorrB4	1000	n/a	n/a	1
1341.6400000000	n/a	1341640	STATUS	1700	n/a	n/a	1
1343.3390000000	n/a	1343339	RewardB4	4105	n/a	n/a	1
1348.5230000000	n/a	1348523	RewardCorrB4	1000	n/a	n/a	1
1350.5230000000	n/a	1350523	STATUS	1700	n/a	n/a	1
1352.2230000000	n/a	1352223	PenaltyB4	863	n/a	n/a	0
1354.1560000000	n/a	1354156	NeuIncorrB4	1000	n/a	n/a	1
1356.1560000000	n/a	1356156	STATUS	1700	n/a	n/a	1
1357.8560000000	n/a	1357856	RewardB4	1109	n/a	n/a	1
1360.0390000000	n/a	1360039	RewardCorrB4	1000	n/a	n/a	1
1362.0400000000	n/a	1362040	STATUS	1700	n/a	n/a	1
1363.7390000000	n/a	1363739	PenaltyB4	867	n/a	n/a	1
1365.6730000000	n/a	1365673	NeuCorrB4	1000	n/a	n/a	1
1367.6730000000	n/a	1367673	STATUS	1700	n/a	n/a	1
1369.3730000000	n/a	1369373	RewardB4	722	n/a	n/a	0
1371.1730000000	n/a	1371173	NeuIncorrB4	1000	n/a	n/a	1
1373.1730000000	n/a	1373173	STATUS	1700	n/a	n/a	1
1374.8730000000	n/a	1374873	PenaltyB4	2652	n/a	n/a	0
1378.5890000000	n/a	1378589	PunIncorrB4	1000	n/a	n/a	1
1380.5890000000	n/a	1380589	STATUS	1700	n/a	n/a	1
1382.2890000000	n/a	1382289	RewardB4	7219	n/a	n/a	0
1390.5730000000	n/a	1390573	NeuIncorrB4	1000	n/a	n/a	1
1392.5730000000	n/a	1392573	STATUS	1700	n/a	n/a	1
1394.2730000000	n/a	1394273	PenaltyB4	5969	n/a	n/a	0
1401.3060000000	n/a	1401306	PunIncorrB4	1000	n/a	n/a	1
1403.3060000000	n/a	1403306	STATUS	1700	n/a	n/a	1
1405.0060000000	n/a	1405006	RewardB4	441	n/a	n/a	0
1406.5230000000	n/a	1406523	RewIncorrB4	1000	n/a	n/a	1
1408.5230000000	n/a	1408523	STATUS	1700	n/a	n/a	1
1410.2230000000	n/a	1410223	RewardB4	21633	n/a	n/a	1
1432.9230000000	n/a	1432923	RewardCorrB4	1000	n/a	n/a	1
1434.9230000000	n/a	1434923	STATUS	1700	n/a	n/a	1
1436.6230000000	n/a	1436623	PenaltyB4	493	n/a	n/a	1
1438.1890000000	n/a	1438189	NeuCorrB4	1000	n/a	n/a	1
1440.1890000000	n/a	1440189	STATUS	1700	n/a	n/a	1
1441.8890000000	n/a	1441889	RewardB4	502	n/a	n/a	1
1443.4560000000	n/a	1443456	RewardCorrB4	1000	n/a	n/a	1
1445.4560000000	n/a	1445456	ignore	1700	n/a	n/a	1
