onset	duration	sample	trial_type	response_time	stim_file	value	correct
6.3750000000	n/a	6375	ignore	n/a	n/a	n/a	n/a
9.4750000000	n/a	9475	ignore	n/a	n/a	n/a	n/a
12.4930000000	n/a	12493	ignore	n/a	n/a	n/a	n/a
30.3250000000	n/a	30325	ignore	n/a	n/a	n/a	n/a
33.4250000000	n/a	33425	ignore	n/a	n/a	n/a	n/a
36.4120000000	n/a	36412	ignore	n/a	n/a	n/a	n/a
54.1420000000	n/a	54142	PosStim	n/a	n/a	n/a	n/a
57.1750000000	n/a	57175	PosNonAlcStimWithoutStartle	n/a	n/a	n/a	n/a
73.2580000000	n/a	73258	NegStim	n/a	n/a	n/a	n/a
76.2920000000	n/a	76292	NegNonAlcStimWithoutStartle	n/a	n/a	n/a	n/a
89.8580000000	n/a	89858	NeuStim	n/a	n/a	n/a	n/a
92.9580000000	n/a	92958	NeuNonAlcP2000	n/a	n/a	n/a	n/a
96.9450000000	n/a	96945	NeuNonAlcP2000	n/a	n/a	n/a	n/a
108.1580000000	n/a	108158	NegStim	n/a	n/a	n/a	n/a
111.2580000000	n/a	111258	NegAlcP2000	n/a	n/a	n/a	n/a
115.2450000000	n/a	115245	NegAlcP2000	n/a	n/a	n/a	n/a
127.3080000000	n/a	127308	NeuStim	n/a	n/a	n/a	n/a
130.3420000000	n/a	130342	NeuAlcStimWithoutStartle	n/a	n/a	n/a	n/a
145.0420000000	n/a	145042	PosStim	n/a	n/a	n/a	n/a
148.1420000000	n/a	148142	PosAlcP1000	n/a	n/a	n/a	n/a
153.1290000000	n/a	153129	PosAlcP1000	n/a	n/a	n/a	n/a
162.0580000000	n/a	162058	NeuStim	n/a	n/a	n/a	n/a
165.1580000000	n/a	165158	NeuAlcP2000	n/a	n/a	n/a	n/a
169.1450000000	n/a	169145	NeuAlcP2000	n/a	n/a	n/a	n/a
181.5920000000	n/a	181592	NegStim	n/a	n/a	n/a	n/a
184.6920000000	n/a	184692	NegAlcP3000	n/a	n/a	n/a	n/a
187.6790000000	n/a	187679	NegAlcP3000	n/a	n/a	n/a	n/a
198.2420000000	n/a	198242	PosStim	n/a	n/a	n/a	n/a
201.2750000000	n/a	201275	PosNonAlcStimWithoutStartle	n/a	n/a	n/a	n/a
216.2750000000	n/a	216275	NeuStim	n/a	n/a	n/a	n/a
219.3750000000	n/a	219375	NeuAlcP1000	n/a	n/a	n/a	n/a
224.3620000000	n/a	224362	NeuAlcP1000	n/a	n/a	n/a	n/a
233.3250000000	n/a	233325	NegStim	n/a	n/a	n/a	n/a
236.4250000000	n/a	236425	NegNonAlcP3000	n/a	n/a	n/a	n/a
239.4120000000	n/a	239412	NegNonAlcP3000	n/a	n/a	n/a	n/a
252.2580000000	n/a	252258	PosStim	n/a	n/a	n/a	n/a
255.3580000000	n/a	255358	PosAlcP2000	n/a	n/a	n/a	n/a
259.3450000000	n/a	259345	PosAlcP2000	n/a	n/a	n/a	n/a
269.1750000000	n/a	269175	NegStim	n/a	n/a	n/a	n/a
272.2080000000	n/a	272208	NegNonAlcStimWithoutStartle	n/a	n/a	n/a	n/a
287.7910000000	n/a	287791	PosStim	n/a	n/a	n/a	n/a
290.8250000000	n/a	290825	PosAlcStimWithoutStartle	n/a	n/a	n/a	n/a
304.1750000000	n/a	304175	NeuStim	n/a	n/a	n/a	n/a
307.2750000000	n/a	307275	NeuNonAlcP3000	n/a	n/a	n/a	n/a
310.2620000000	n/a	310262	NeuNonAlcP3000	n/a	n/a	n/a	n/a
321.3410000000	n/a	321341	NegStim	n/a	n/a	n/a	n/a
324.4410000000	n/a	324441	NegAlcP1000	n/a	n/a	n/a	n/a
329.4280000000	n/a	329428	NegAlcP1000	n/a	n/a	n/a	n/a
338.3410000000	n/a	338341	NeuStim	n/a	n/a	n/a	n/a
341.4410000000	n/a	341441	NeuAlcP3000	n/a	n/a	n/a	n/a
344.4280000000	n/a	344428	NeuAlcP3000	n/a	n/a	n/a	n/a
355.9410000000	n/a	355941	PosStim	n/a	n/a	n/a	n/a
359.0410000000	n/a	359041	PosAlcP3000	n/a	n/a	n/a	n/a
362.0280000000	n/a	362028	PosAlcP3000	n/a	n/a	n/a	n/a
375.6580000000	n/a	375658	NeuStim	n/a	n/a	n/a	n/a
378.6910000000	n/a	378691	NeuAlcStimWithoutStartle	n/a	n/a	n/a	n/a
394.6080000000	n/a	394608	NegStim	n/a	n/a	n/a	n/a
397.7080000000	n/a	397708	NegAlcP1000	n/a	n/a	n/a	n/a
402.6950000000	n/a	402695	NegAlcP1000	n/a	n/a	n/a	n/a
412.4580000000	n/a	412458	NeuStim	n/a	n/a	n/a	n/a
415.5580000000	n/a	415558	NeuNonAlcP3000	n/a	n/a	n/a	n/a
418.5450000000	n/a	418545	NeuNonAlcP3000	n/a	n/a	n/a	n/a
432.3750000000	n/a	432375	NegStim	n/a	n/a	n/a	n/a
435.4750000000	n/a	435475	NegNonAlcP2000	n/a	n/a	n/a	n/a
439.4620000000	n/a	439462	NegNonAlcP2000	n/a	n/a	n/a	n/a
450.2080000000	n/a	450208	PosStim	n/a	n/a	n/a	n/a
453.2410000000	n/a	453241	PosNonAlcStimWithoutStartle	n/a	n/a	n/a	n/a
468.8580000000	n/a	468858	NeuStim	n/a	n/a	n/a	n/a
471.8910000000	n/a	471891	NeuNonAlcStimWithoutStartle	n/a	n/a	n/a	n/a
485.8580000000	n/a	485858	PosStim	n/a	n/a	n/a	n/a
488.9580000000	n/a	488958	PosNonAlcP1000	n/a	n/a	n/a	n/a
493.9450000000	n/a	493945	PosNonAlcP1000	n/a	n/a	n/a	n/a
503.8080000000	n/a	503808	NegStim	n/a	n/a	n/a	n/a
506.8410000000	n/a	506841	NegAlcStimWithoutStartle	n/a	n/a	n/a	n/a
520.0080000000	n/a	520008	NeuStim	n/a	n/a	n/a	n/a
523.1080000000	n/a	523108	NeuAlcP2000	n/a	n/a	n/a	n/a
527.0950000000	n/a	527095	NeuAlcP2000	n/a	n/a	n/a	n/a
538.5580000000	n/a	538558	PosStim	n/a	n/a	n/a	n/a
541.6580000000	n/a	541658	PosNonAlcP1000	n/a	n/a	n/a	n/a
546.6450000000	n/a	546645	PosNonAlcP1000	n/a	n/a	n/a	n/a
556.1080000000	n/a	556108	NeuStim	n/a	n/a	n/a	n/a
559.2080000000	n/a	559208	NeuNonAlcP1000	n/a	n/a	n/a	n/a
564.1950000000	n/a	564195	NeuNonAlcP1000	n/a	n/a	n/a	n/a
576.2240000000	n/a	576224	PosStim	n/a	n/a	n/a	n/a
579.2580000000	n/a	579258	PosNonAlcStimWithoutStartle	n/a	n/a	n/a	n/a
593.0080000000	n/a	593008	NegStim	n/a	n/a	n/a	n/a
596.1080000000	n/a	596108	NegAlcP2000	n/a	n/a	n/a	n/a
600.0950000000	n/a	600095	NegAlcP2000	n/a	n/a	n/a	n/a
611.0410000000	n/a	611041	NeuStim	n/a	n/a	n/a	n/a
614.1410000000	n/a	614141	NeuAlcP3000	n/a	n/a	n/a	n/a
617.1280000000	n/a	617128	NeuAlcP3000	n/a	n/a	n/a	n/a
627.2740000000	n/a	627274	NegStim	n/a	n/a	n/a	n/a
630.3080000000	n/a	630308	NegAlcStimWithoutStartle	n/a	n/a	n/a	n/a
645.9580000000	n/a	645958	NeuStim	n/a	n/a	n/a	n/a
649.0580000000	n/a	649058	NeuNonAlcP2000	n/a	n/a	n/a	n/a
653.0450000000	n/a	653045	NeuNonAlcP2000	n/a	n/a	n/a	n/a
664.7240000000	n/a	664724	PosStim	n/a	n/a	n/a	n/a
667.8240000000	n/a	667824	PosNonAlcP3000	n/a	n/a	n/a	n/a
670.8110000000	n/a	670811	PosNonAlcP3000	n/a	n/a	n/a	n/a
681.5240000000	n/a	681524	NegStim	n/a	n/a	n/a	n/a
684.6240000000	n/a	684624	NegAlcP3000	n/a	n/a	n/a	n/a
687.6110000000	n/a	687611	NegAlcP3000	n/a	n/a	n/a	n/a
697.6910000000	n/a	697691	PosStim	n/a	n/a	n/a	n/a
700.7240000000	n/a	700724	PosAlcStimWithoutStartle	n/a	n/a	n/a	n/a
714.4570000000	n/a	714457	NegStim	n/a	n/a	n/a	n/a
717.5570000000	n/a	717557	NegAlcP1000	n/a	n/a	n/a	n/a
722.5440000000	n/a	722544	NegAlcP1000	n/a	n/a	n/a	n/a
733.4570000000	n/a	733457	PosStim	n/a	n/a	n/a	n/a
736.4910000000	n/a	736491	PosAlcStimWithoutStartle	n/a	n/a	n/a	n/a
749.6740000000	n/a	749674	NegStim	n/a	n/a	n/a	n/a
752.7740000000	n/a	752774	NegNonAlcP2000	n/a	n/a	n/a	n/a
756.7610000000	n/a	756761	NegNonAlcP2000	n/a	n/a	n/a	n/a
767.6410000000	n/a	767641	PosStim	n/a	n/a	n/a	n/a
770.7410000000	n/a	770741	PosAlcP2000	n/a	n/a	n/a	n/a
774.7280000000	n/a	774728	PosAlcP2000	n/a	n/a	n/a	n/a
787.4570000000	n/a	787457	NeuStim	n/a	n/a	n/a	n/a
790.4910000000	n/a	790491	NeuNonAlcStimWithoutStartle	n/a	n/a	n/a	n/a
804.6570000000	n/a	804657	PosStim	n/a	n/a	n/a	n/a
807.7570000000	n/a	807757	PosNonAlcP2000	n/a	n/a	n/a	n/a
811.7440000000	n/a	811744	PosNonAlcP2000	n/a	n/a	n/a	n/a
823.9410000000	n/a	823941	NegStim	n/a	n/a	n/a	n/a
826.9740000000	n/a	826974	NegAlcStimWithoutStartle	n/a	n/a	n/a	n/a
841.5240000000	n/a	841524	PosStim	n/a	n/a	n/a	n/a
844.6240000000	n/a	844624	PosAlcP3000	n/a	n/a	n/a	n/a
847.6110000000	n/a	847611	PosAlcP3000	n/a	n/a	n/a	n/a
858.1740000000	n/a	858174	PosStim	n/a	n/a	n/a	n/a
861.2740000000	n/a	861274	PosNonAlcP3000	n/a	n/a	n/a	n/a
864.2610000000	n/a	864261	PosNonAlcP3000	n/a	n/a	n/a	n/a
875.5070000000	n/a	875507	NeuStim	n/a	n/a	n/a	n/a
878.5400000000	n/a	878540	NeuNonAlcStimWithoutStartle	n/a	n/a	n/a	n/a
891.8570000000	n/a	891857	NeuStim	n/a	n/a	n/a	n/a
894.9570000000	n/a	894957	NeuNonAlcP3000	n/a	n/a	n/a	n/a
897.9440000000	n/a	897944	NeuNonAlcP3000	n/a	n/a	n/a	n/a
911.2740000000	n/a	911274	PosStim	n/a	n/a	n/a	n/a
914.3740000000	n/a	914374	PosAlcP2000	n/a	n/a	n/a	n/a
918.3610000000	n/a	918361	PosAlcP2000	n/a	n/a	n/a	n/a
927.5400000000	n/a	927540	NegStim	n/a	n/a	n/a	n/a
930.6400000000	n/a	930640	NegAlcP1000	n/a	n/a	n/a	n/a
935.6270000000	n/a	935627	NegAlcP1000	n/a	n/a	n/a	n/a
945.7400000000	n/a	945740	PosStim	n/a	n/a	n/a	n/a
948.8400000000	n/a	948840	PosNonAlcP2000	n/a	n/a	n/a	n/a
952.8270000000	n/a	952827	PosNonAlcP2000	n/a	n/a	n/a	n/a
964.8740000000	n/a	964874	NeuStim	n/a	n/a	n/a	n/a
967.9070000000	n/a	967907	NeuNonAlcStimWithoutStartle	n/a	n/a	n/a	n/a
982.4900000000	n/a	982490	NegStim	n/a	n/a	n/a	n/a
985.5900000000	n/a	985590	NegAlcP2000	n/a	n/a	n/a	n/a
989.5770000000	n/a	989577	NegAlcP2000	n/a	n/a	n/a	n/a
1001.9900000000	n/a	1001990	PosStim	n/a	n/a	n/a	n/a
1005.0900000000	n/a	1005090	PosAlcP3000	n/a	n/a	n/a	n/a
1008.0770000000	n/a	1008077	PosAlcP3000	n/a	n/a	n/a	n/a
1020.9900000000	n/a	1020990	NeuStim	n/a	n/a	n/a	n/a
1024.0240000000	n/a	1024024	NeuAlcStimWithoutStartle	n/a	n/a	n/a	n/a
1040.4240000000	n/a	1040424	NegStim	n/a	n/a	n/a	n/a
1043.5240000000	n/a	1043524	NegNonAlcP3000	n/a	n/a	n/a	n/a
1046.5110000000	n/a	1046511	NegNonAlcP3000	n/a	n/a	n/a	n/a
