onset	duration	sample	trial_type	response_time	stim_file	value	correct
4.6820000000	n/a	4682	FrequentFixedSOA	1633	n/a	n/a	1
6.3150000000	n/a	6315	FrequentFixedSOA	1633	n/a	n/a	1
7.9480000000	n/a	7948	FrequentFixedSOA	1633	n/a	n/a	1
9.5820000000	n/a	9582	FrequentFixedSOA	1633	n/a	n/a	1
11.2150000000	n/a	11215	FrequentFixedSOA	1633	n/a	n/a	1
12.8480000000	n/a	12848	FrequentFixedSOA	1633	n/a	n/a	1
14.4820000000	n/a	14482	FrequentFixedSOA	1633	n/a	n/a	1
16.1150000000	n/a	16115	FrequentFixedSOA	1633	n/a	n/a	1
17.7480000000	n/a	17748	FrequentFixedSOA	1633	n/a	n/a	1
19.3820000000	n/a	19382	FrequentFixedSOA	1633	n/a	n/a	1
21.0150000000	n/a	21015	NovelFixedSOA	1633	n/a	n/a	1
22.6480000000	n/a	22648	FrequentFixedSOA	1633	n/a	n/a	1
24.2820000000	n/a	24282	GoFixedSOA	1633	n/a	n/a	0
25.9150000000	n/a	25915	FrequentFixedSOA	1633	n/a	n/a	1
27.5480000000	n/a	27548	FrequentFixedSOA	1633	n/a	n/a	1
29.1820000000	n/a	29182	FrequentFixedSOA	1633	n/a	n/a	1
30.8150000000	n/a	30815	GoFixedSOA	429	n/a	n/a	1
32.4480000000	n/a	32448	FrequentFixedSOA	1633	n/a	n/a	1
34.0820000000	n/a	34082	FrequentFixedSOA	1633	n/a	n/a	1
35.7150000000	n/a	35715	FrequentFixedSOA	1633	n/a	n/a	1
37.3480000000	n/a	37348	NovelFixedSOA	1633	n/a	n/a	1
38.9820000000	n/a	38982	FrequentFixedSOA	1633	n/a	n/a	1
40.6150000000	n/a	40615	FrequentFixedSOA	1633	n/a	n/a	1
42.2480000000	n/a	42248	FrequentFixedSOA	1633	n/a	n/a	1
43.8820000000	n/a	43882	GoFixedSOA	344	n/a	n/a	1
45.5150000000	n/a	45515	FrequentFixedSOA	1633	n/a	n/a	1
47.1480000000	n/a	47148	NovelFixedSOA	1633	n/a	n/a	1
48.7820000000	n/a	48782	FrequentFixedSOA	1633	n/a	n/a	1
50.4150000000	n/a	50415	FrequentFixedSOA	1633	n/a	n/a	1
52.0480000000	n/a	52048	FrequentFixedSOA	1633	n/a	n/a	1
53.6820000000	n/a	53682	GoFixedSOA	414	n/a	n/a	1
55.3150000000	n/a	55315	FrequentFixedSOA	1633	n/a	n/a	1
56.9480000000	n/a	56948	GoFixedSOA	1633	n/a	n/a	0
58.5820000000	n/a	58582	FrequentFixedSOA	1633	n/a	n/a	1
60.2150000000	n/a	60215	FrequentFixedSOA	1633	n/a	n/a	1
61.8480000000	n/a	61848	GoFixedSOA	366	n/a	n/a	1
63.4820000000	n/a	63482	FrequentFixedSOA	1633	n/a	n/a	1
65.1150000000	n/a	65115	FrequentFixedSOA	1633	n/a	n/a	1
66.7480000000	n/a	66748	FrequentFixedSOA	1633	n/a	n/a	1
68.3820000000	n/a	68382	FrequentFixedSOA	1633	n/a	n/a	1
70.0150000000	n/a	70015	NovelFixedSOA	1633	n/a	n/a	1
71.6480000000	n/a	71648	FrequentFixedSOA	1633	n/a	n/a	1
73.2820000000	n/a	73282	NovelFixedSOA	1633	n/a	n/a	1
74.9150000000	n/a	74915	FrequentFixedSOA	1633	n/a	n/a	1
76.5480000000	n/a	76548	FrequentFixedSOA	1633	n/a	n/a	1
78.1820000000	n/a	78182	GoFixedSOA	461	n/a	n/a	1
79.8150000000	n/a	79815	FrequentFixedSOA	1633	n/a	n/a	1
81.4480000000	n/a	81448	FrequentFixedSOA	1633	n/a	n/a	1
83.0820000000	n/a	83082	FrequentFixedSOA	1633	n/a	n/a	1
84.7150000000	n/a	84715	FrequentFixedSOA	1633	n/a	n/a	1
86.3480000000	n/a	86348	NovelFixedSOA	1633	n/a	n/a	1
87.9820000000	n/a	87982	FrequentFixedSOA	1633	n/a	n/a	1
89.6150000000	n/a	89615	FrequentFixedSOA	1633	n/a	n/a	1
91.2480000000	n/a	91248	FrequentFixedSOA	1633	n/a	n/a	1
92.8820000000	n/a	92882	FrequentFixedSOA	1633	n/a	n/a	1
94.5150000000	n/a	94515	GoFixedSOA	332	n/a	n/a	1
96.1480000000	n/a	96148	FrequentFixedSOA	1633	n/a	n/a	1
97.7820000000	n/a	97782	FrequentFixedSOA	1633	n/a	n/a	1
99.4150000000	n/a	99415	NovelFixedSOA	1633	n/a	n/a	1
101.0480000000	n/a	101048	FrequentFixedSOA	1633	n/a	n/a	1
102.6810000000	n/a	102681	FrequentFixedSOA	1633	n/a	n/a	1
104.3150000000	n/a	104315	GoFixedSOA	360	n/a	n/a	1
105.9480000000	n/a	105948	FrequentFixedSOA	1633	n/a	n/a	1
107.5810000000	n/a	107581	FrequentFixedSOA	1633	n/a	n/a	1
109.2150000000	n/a	109215	FrequentFixedSOA	1633	n/a	n/a	1
110.8480000000	n/a	110848	FrequentFixedSOA	1633	n/a	n/a	1
112.4810000000	n/a	112481	NovelFixedSOA	1633	n/a	n/a	1
114.1150000000	n/a	114115	FrequentFixedSOA	1633	n/a	n/a	1
115.7480000000	n/a	115748	FrequentFixedSOA	1633	n/a	n/a	1
117.3810000000	n/a	117381	GoFixedSOA	517	n/a	n/a	1
119.0150000000	n/a	119015	FrequentVariableSOA	1533	n/a	n/a	1
120.5480000000	n/a	120548	FrequentVariableSOA	1766	n/a	n/a	1
122.3150000000	n/a	122315	FrequentVariableSOA	1650	n/a	n/a	1
123.9650000000	n/a	123965	FrequentVariableSOA	1583	n/a	n/a	1
125.5480000000	n/a	125548	FrequentVariableSOA	1600	n/a	n/a	1
127.1480000000	n/a	127148	FrequentVariableSOA	1716	n/a	n/a	1
128.8650000000	n/a	128865	FrequentVariableSOA	1583	n/a	n/a	1
130.4480000000	n/a	130448	FrequentVariableSOA	1516	n/a	n/a	1
131.9650000000	n/a	131965	FrequentVariableSOA	1716	n/a	n/a	1
133.6810000000	n/a	133681	FrequentVariableSOA	1550	n/a	n/a	1
135.2310000000	n/a	135231	NovelVariableSOA	1733	n/a	n/a	1
136.9650000000	n/a	136965	FrequentVariableSOA	1700	n/a	n/a	1
138.6650000000	n/a	138665	GoVariableSOA	391	n/a	n/a	1
140.3650000000	n/a	140365	FrequentVariableSOA	1783	n/a	n/a	1
142.1480000000	n/a	142148	FrequentVariableSOA	1566	n/a	n/a	1
143.7150000000	n/a	143715	FrequentVariableSOA	1566	n/a	n/a	1
145.2810000000	n/a	145281	GoVariableSOA	1566	n/a	n/a	0
146.8480000000	n/a	146848	FrequentVariableSOA	1616	n/a	n/a	1
148.4650000000	n/a	148465	FrequentVariableSOA	1716	n/a	n/a	1
150.1810000000	n/a	150181	FrequentVariableSOA	1550	n/a	n/a	1
151.7310000000	n/a	151731	NovelVariableSOA	1716	n/a	n/a	1
153.4480000000	n/a	153448	FrequentVariableSOA	1800	n/a	n/a	1
155.2480000000	n/a	155248	FrequentVariableSOA	1550	n/a	n/a	1
156.7980000000	n/a	156798	FrequentVariableSOA	1766	n/a	n/a	1
158.5650000000	n/a	158565	GoVariableSOA	529	n/a	n/a	1
160.2480000000	n/a	160248	FrequentVariableSOA	1633	n/a	n/a	1
161.8810000000	n/a	161881	NovelVariableSOA	1666	n/a	n/a	1
163.5480000000	n/a	163548	FrequentVariableSOA	1750	n/a	n/a	1
165.2980000000	n/a	165298	FrequentVariableSOA	1733	n/a	n/a	1
167.0310000000	n/a	167031	FrequentVariableSOA	1683	n/a	n/a	1
168.7150000000	n/a	168715	GoVariableSOA	531	n/a	n/a	1
170.2810000000	n/a	170281	FrequentVariableSOA	1733	n/a	n/a	1
172.0150000000	n/a	172015	GoVariableSOA	526	n/a	n/a	1
173.7980000000	n/a	173798	FrequentVariableSOA	1700	n/a	n/a	1
175.4980000000	n/a	175498	FrequentVariableSOA	1583	n/a	n/a	1
177.0810000000	n/a	177081	GoVariableSOA	455	n/a	n/a	1
178.8150000000	n/a	178815	FrequentVariableSOA	1516	n/a	n/a	1
180.3310000000	n/a	180331	FrequentVariableSOA	1633	n/a	n/a	1
181.9650000000	n/a	181965	FrequentVariableSOA	1750	n/a	n/a	1
183.7150000000	n/a	183715	FrequentVariableSOA	1666	n/a	n/a	1
185.3810000000	n/a	185381	NovelVariableSOA	1666	n/a	n/a	1
187.0480000000	n/a	187048	FrequentVariableSOA	1583	n/a	n/a	1
188.6310000000	n/a	188631	NovelVariableSOA	1600	n/a	n/a	1
190.2310000000	n/a	190231	FrequentVariableSOA	1750	n/a	n/a	1
191.9810000000	n/a	191981	FrequentVariableSOA	1750	n/a	n/a	1
193.7310000000	n/a	193731	GoVariableSOA	462	n/a	n/a	1
195.2980000000	n/a	195298	FrequentVariableSOA	1583	n/a	n/a	1
196.8810000000	n/a	196881	FrequentVariableSOA	1783	n/a	n/a	1
198.6650000000	n/a	198665	FrequentVariableSOA	1783	n/a	n/a	1
200.4480000000	n/a	200448	FrequentVariableSOA	1733	n/a	n/a	1
202.1810000000	n/a	202181	NovelVariableSOA	1750	n/a	n/a	1
203.9310000000	n/a	203931	FrequentVariableSOA	1533	n/a	n/a	1
205.4650000000	n/a	205465	FrequentVariableSOA	1716	n/a	n/a	1
207.1810000000	n/a	207181	FrequentVariableSOA	1516	n/a	n/a	1
208.6980000000	n/a	208698	FrequentVariableSOA	1516	n/a	n/a	1
210.2150000000	n/a	210215	GoVariableSOA	404	n/a	n/a	1
211.8480000000	n/a	211848	FrequentVariableSOA	1583	n/a	n/a	1
213.4310000000	n/a	213431	FrequentVariableSOA	1600	n/a	n/a	1
215.0310000000	n/a	215031	NovelVariableSOA	1633	n/a	n/a	1
216.6650000000	n/a	216665	FrequentVariableSOA	1750	n/a	n/a	1
218.4150000000	n/a	218415	FrequentVariableSOA	1716	n/a	n/a	1
220.1310000000	n/a	220131	GoVariableSOA	446	n/a	n/a	1
221.7810000000	n/a	221781	FrequentVariableSOA	1750	n/a	n/a	1
223.5310000000	n/a	223531	FrequentVariableSOA	1683	n/a	n/a	1
225.2150000000	n/a	225215	FrequentVariableSOA	1600	n/a	n/a	1
226.8150000000	n/a	226815	FrequentVariableSOA	1700	n/a	n/a	1
228.5150000000	n/a	228515	NovelVariableSOA	1766	n/a	n/a	1
230.2810000000	n/a	230281	FrequentVariableSOA	1633	n/a	n/a	1
231.9150000000	n/a	231915	FrequentVariableSOA	1766	n/a	n/a	1
233.6810000000	n/a	233681	GoVariableSOA	593	n/a	n/a	1
235.3310000000	n/a	235331	FrequentFixedSOA	1633	n/a	n/a	1
236.9650000000	n/a	236965	FrequentFixedSOA	1633	n/a	n/a	1
238.5980000000	n/a	238598	FrequentFixedSOA	1633	n/a	n/a	1
240.2310000000	n/a	240231	GoFixedSOA	1633	n/a	n/a	0
241.8650000000	n/a	241865	FrequentFixedSOA	1633	n/a	n/a	1
243.4980000000	n/a	243498	FrequentFixedSOA	1633	n/a	n/a	1
245.1310000000	n/a	245131	FrequentFixedSOA	1633	n/a	n/a	1
246.7650000000	n/a	246765	GoFixedSOA	448	n/a	n/a	1
248.3980000000	n/a	248398	FrequentFixedSOA	1633	n/a	n/a	1
250.0310000000	n/a	250031	FrequentFixedSOA	1633	n/a	n/a	1
251.6650000000	n/a	251665	FrequentFixedSOA	1633	n/a	n/a	1
253.2980000000	n/a	253298	NovelFixedSOA	1633	n/a	n/a	1
254.9310000000	n/a	254931	FrequentFixedSOA	1633	n/a	n/a	1
256.5650000000	n/a	256565	NovelFixedSOA	1633	n/a	n/a	1
258.1980000000	n/a	258198	FrequentFixedSOA	1633	n/a	n/a	1
259.8310000000	n/a	259831	FrequentFixedSOA	1633	n/a	n/a	1
261.4650000000	n/a	261465	NovelFixedSOA	1633	n/a	n/a	1
263.0980000000	n/a	263098	FrequentFixedSOA	1633	n/a	n/a	1
264.7310000000	n/a	264731	FrequentFixedSOA	1633	n/a	n/a	1
266.3650000000	n/a	266365	FrequentFixedSOA	1633	n/a	n/a	1
267.9980000000	n/a	267998	FrequentFixedSOA	1633	n/a	n/a	1
269.6310000000	n/a	269631	FrequentFixedSOA	1633	n/a	n/a	1
271.2650000000	n/a	271265	NovelFixedSOA	1633	n/a	n/a	1
272.8980000000	n/a	272898	FrequentFixedSOA	1633	n/a	n/a	1
274.5310000000	n/a	274531	FrequentFixedSOA	1633	n/a	n/a	1
276.1650000000	n/a	276165	FrequentFixedSOA	1633	n/a	n/a	1
277.7980000000	n/a	277798	FrequentFixedSOA	1633	n/a	n/a	1
279.4310000000	n/a	279431	FrequentFixedSOA	1633	n/a	n/a	1
281.0650000000	n/a	281065	GoFixedSOA	458	n/a	n/a	1
282.6980000000	n/a	282698	FrequentFixedSOA	1633	n/a	n/a	1
284.3310000000	n/a	284331	FrequentFixedSOA	1633	n/a	n/a	1
285.9650000000	n/a	285965	GoFixedSOA	581	n/a	n/a	1
287.5980000000	n/a	287598	FrequentFixedSOA	1633	n/a	n/a	1
289.2310000000	n/a	289231	NovelFixedSOA	1633	n/a	n/a	1
290.8650000000	n/a	290865	FrequentFixedSOA	1633	n/a	n/a	1
292.4980000000	n/a	292498	GoFixedSOA	562	n/a	n/a	1
294.1310000000	n/a	294131	FrequentFixedSOA	1633	n/a	n/a	1
295.7650000000	n/a	295765	GoFixedSOA	1633	n/a	n/a	0
297.3980000000	n/a	297398	FrequentFixedSOA	1633	n/a	n/a	1
299.0310000000	n/a	299031	FrequentFixedSOA	1633	n/a	n/a	1
300.6640000000	n/a	300664	FrequentFixedSOA	1633	n/a	n/a	1
302.2980000000	n/a	302298	FrequentFixedSOA	1633	n/a	n/a	1
303.9310000000	n/a	303931	GoFixedSOA	519	n/a	n/a	1
305.5640000000	n/a	305564	FrequentFixedSOA	1633	n/a	n/a	1
307.1980000000	n/a	307198	FrequentFixedSOA	1633	n/a	n/a	1
308.8310000000	n/a	308831	FrequentFixedSOA	1633	n/a	n/a	1
310.4640000000	n/a	310464	NovelFixedSOA	1633	n/a	n/a	1
312.0980000000	n/a	312098	FrequentFixedSOA	1633	n/a	n/a	1
313.7310000000	n/a	313731	FrequentFixedSOA	1633	n/a	n/a	1
315.3640000000	n/a	315364	FrequentFixedSOA	1633	n/a	n/a	1
316.9980000000	n/a	316998	FrequentFixedSOA	1633	n/a	n/a	1
318.6310000000	n/a	318631	NovelFixedSOA	1633	n/a	n/a	1
320.2640000000	n/a	320264	FrequentFixedSOA	1633	n/a	n/a	1
321.8980000000	n/a	321898	FrequentFixedSOA	1633	n/a	n/a	1
323.5310000000	n/a	323531	FrequentFixedSOA	1633	n/a	n/a	1
325.1640000000	n/a	325164	FrequentFixedSOA	1633	n/a	n/a	1
326.7980000000	n/a	326798	NovelFixedSOA	1633	n/a	n/a	1
328.4310000000	n/a	328431	FrequentFixedSOA	1633	n/a	n/a	1
330.0640000000	n/a	330064	FrequentFixedSOA	1633	n/a	n/a	1
331.6980000000	n/a	331698	GoFixedSOA	727	n/a	n/a	1
333.3310000000	n/a	333331	FrequentFixedSOA	1633	n/a	n/a	1
334.9640000000	n/a	334964	FrequentFixedSOA	1633	n/a	n/a	1
336.5980000000	n/a	336598	FrequentFixedSOA	1633	n/a	n/a	1
338.2310000000	n/a	338231	FrequentFixedSOA	1633	n/a	n/a	1
339.8640000000	n/a	339864	NovelFixedSOA	1633	n/a	n/a	1
341.4980000000	n/a	341498	FrequentFixedSOA	1633	n/a	n/a	1
343.1310000000	n/a	343131	FrequentFixedSOA	1633	n/a	n/a	1
344.7640000000	n/a	344764	FrequentFixedSOA	1633	n/a	n/a	1
346.3980000000	n/a	346398	FrequentFixedSOA	1633	n/a	n/a	1
348.0310000000	n/a	348031	FrequentFixedSOA	1633	n/a	n/a	1
349.6640000000	n/a	349664	FrequentVariableSOA	1566	n/a	n/a	1
351.2310000000	n/a	351231	FrequentVariableSOA	1650	n/a	n/a	1
352.8810000000	n/a	352881	FrequentVariableSOA	1616	n/a	n/a	1
354.4980000000	n/a	354498	GoVariableSOA	1633	n/a	n/a	0
356.1310000000	n/a	356131	FrequentVariableSOA	1583	n/a	n/a	1
357.7140000000	n/a	357714	FrequentVariableSOA	1650	n/a	n/a	1
359.3640000000	n/a	359364	FrequentVariableSOA	1733	n/a	n/a	1
361.0980000000	n/a	361098	GoVariableSOA	391	n/a	n/a	1
362.7140000000	n/a	362714	FrequentVariableSOA	1666	n/a	n/a	1
364.3810000000	n/a	364381	FrequentVariableSOA	1666	n/a	n/a	1
366.0480000000	n/a	366048	FrequentVariableSOA	1683	n/a	n/a	1
367.7310000000	n/a	367731	NovelVariableSOA	1766	n/a	n/a	1
369.4980000000	n/a	369498	FrequentVariableSOA	1650	n/a	n/a	1
371.1480000000	n/a	371148	NovelVariableSOA	1750	n/a	n/a	1
372.8980000000	n/a	372898	FrequentVariableSOA	1533	n/a	n/a	1
374.4310000000	n/a	374431	FrequentVariableSOA	1583	n/a	n/a	1
376.0140000000	n/a	376014	NovelVariableSOA	1566	n/a	n/a	1
377.5810000000	n/a	377581	FrequentVariableSOA	1716	n/a	n/a	1
379.2980000000	n/a	379298	FrequentVariableSOA	1800	n/a	n/a	1
381.0980000000	n/a	381098	FrequentVariableSOA	1766	n/a	n/a	1
382.8640000000	n/a	382864	FrequentVariableSOA	1500	n/a	n/a	1
384.3640000000	n/a	384364	FrequentVariableSOA	1500	n/a	n/a	1
385.8640000000	n/a	385864	NovelVariableSOA	1683	n/a	n/a	1
387.5480000000	n/a	387548	FrequentVariableSOA	1600	n/a	n/a	1
389.1480000000	n/a	389148	FrequentVariableSOA	1700	n/a	n/a	1
390.8480000000	n/a	390848	FrequentVariableSOA	1616	n/a	n/a	1
392.4640000000	n/a	392464	FrequentVariableSOA	1766	n/a	n/a	1
394.2310000000	n/a	394231	FrequentVariableSOA	1533	n/a	n/a	1
395.7640000000	n/a	395764	GoVariableSOA	515	n/a	n/a	1
397.4640000000	n/a	397464	FrequentVariableSOA	1733	n/a	n/a	1
399.1980000000	n/a	399198	FrequentVariableSOA	1766	n/a	n/a	1
400.9640000000	n/a	400964	GoVariableSOA	536	n/a	n/a	1
402.4810000000	n/a	402481	FrequentVariableSOA	1750	n/a	n/a	1
404.2310000000	n/a	404231	NovelVariableSOA	1766	n/a	n/a	1
405.9980000000	n/a	405998	FrequentVariableSOA	1616	n/a	n/a	1
407.6000000000	n/a	407600	STATUS	349	n/a	n/a	1
408.3110000000	n/a	408311	FrequentVariableSOA	1766	n/a	n/a	1
410.0770000000	n/a	410077	FrequentVariableSOA	1700	n/a	n/a	1
411.7770000000	n/a	411777	NovelVariableSOA	1683	n/a	n/a	1
413.4610000000	n/a	413461	FrequentVariableSOA	1500	n/a	n/a	1
414.9610000000	n/a	414961	FrequentVariableSOA	1616	n/a	n/a	1
416.5770000000	n/a	416577	FrequentVariableSOA	1666	n/a	n/a	1
418.2440000000	n/a	418244	FrequentVariableSOA	1766	n/a	n/a	1
420.0110000000	n/a	420011	NovelVariableSOA	1600	n/a	n/a	1
421.6110000000	n/a	421611	FrequentVariableSOA	1533	n/a	n/a	1
423.1440000000	n/a	423144	FrequentVariableSOA	1766	n/a	n/a	1
424.9110000000	n/a	424911	GoVariableSOA	908	n/a	n/a	1
426.6610000000	n/a	426661	FrequentVariableSOA	1683	n/a	n/a	1
428.3440000000	n/a	428344	FrequentVariableSOA	1716	n/a	n/a	1
430.0610000000	n/a	430061	FrequentVariableSOA	1516	n/a	n/a	1
431.5770000000	n/a	431577	FrequentVariableSOA	1616	n/a	n/a	1
433.1940000000	n/a	433194	NovelVariableSOA	1616	n/a	n/a	1
434.8100000000	n/a	434810	FrequentVariableSOA	1766	n/a	n/a	1
436.5770000000	n/a	436577	FrequentVariableSOA	1583	n/a	n/a	1
438.1600000000	n/a	438160	FrequentVariableSOA	1666	n/a	n/a	1
439.8270000000	n/a	439827	FrequentVariableSOA	1583	n/a	n/a	1
441.4100000000	n/a	441410	FrequentVariableSOA	1750	n/a	n/a	1
443.1600000000	n/a	443160	GoFixedSOA	931	n/a	n/a	1
444.7940000000	n/a	444794	FrequentFixedSOA	1633	n/a	n/a	1
446.4270000000	n/a	446427	FrequentFixedSOA	1633	n/a	n/a	1
448.0600000000	n/a	448060	FrequentFixedSOA	1633	n/a	n/a	1
449.6940000000	n/a	449694	FrequentFixedSOA	1633	n/a	n/a	1
451.3270000000	n/a	451327	FrequentFixedSOA	1633	n/a	n/a	1
452.9600000000	n/a	452960	FrequentFixedSOA	1633	n/a	n/a	1
454.5940000000	n/a	454594	NovelFixedSOA	1633	n/a	n/a	1
456.2270000000	n/a	456227	FrequentFixedSOA	1633	n/a	n/a	1
457.8600000000	n/a	457860	FrequentFixedSOA	1633	n/a	n/a	1
459.4940000000	n/a	459494	FrequentFixedSOA	1633	n/a	n/a	1
461.1270000000	n/a	461127	NovelFixedSOA	1633	n/a	n/a	1
462.7600000000	n/a	462760	FrequentFixedSOA	1633	n/a	n/a	1
464.3940000000	n/a	464394	GoFixedSOA	409	n/a	n/a	1
466.0270000000	n/a	466027	FrequentFixedSOA	1633	n/a	n/a	1
467.6600000000	n/a	467660	FrequentFixedSOA	1633	n/a	n/a	1
469.2940000000	n/a	469294	GoFixedSOA	352	n/a	n/a	1
470.9270000000	n/a	470927	FrequentFixedSOA	1633	n/a	n/a	1
472.5600000000	n/a	472560	NovelFixedSOA	1633	n/a	n/a	1
474.1940000000	n/a	474194	FrequentFixedSOA	1633	n/a	n/a	1
475.8270000000	n/a	475827	FrequentFixedSOA	1633	n/a	n/a	1
477.4600000000	n/a	477460	FrequentFixedSOA	1633	n/a	n/a	1
479.0940000000	n/a	479094	FrequentFixedSOA	1633	n/a	n/a	1
480.7270000000	n/a	480727	FrequentFixedSOA	1633	n/a	n/a	1
482.3600000000	n/a	482360	GoFixedSOA	419	n/a	n/a	1
483.9940000000	n/a	483994	FrequentFixedSOA	1633	n/a	n/a	1
485.6270000000	n/a	485627	FrequentFixedSOA	1633	n/a	n/a	1
487.2600000000	n/a	487260	NovelFixedSOA	1633	n/a	n/a	1
488.8940000000	n/a	488894	FrequentFixedSOA	1633	n/a	n/a	1
490.5270000000	n/a	490527	FrequentFixedSOA	1633	n/a	n/a	1
492.1600000000	n/a	492160	FrequentFixedSOA	1633	n/a	n/a	1
493.7940000000	n/a	493794	FrequentFixedSOA	1633	n/a	n/a	1
495.4270000000	n/a	495427	FrequentFixedSOA	1633	n/a	n/a	1
497.0600000000	n/a	497060	NovelFixedSOA	1633	n/a	n/a	1
498.6940000000	n/a	498694	FrequentFixedSOA	1633	n/a	n/a	1
500.3270000000	n/a	500327	FrequentFixedSOA	1633	n/a	n/a	1
501.9600000000	n/a	501960	FrequentFixedSOA	1633	n/a	n/a	1
503.5940000000	n/a	503594	FrequentFixedSOA	1633	n/a	n/a	1
505.2270000000	n/a	505227	GoFixedSOA	1633	n/a	n/a	0
506.8600000000	n/a	506860	FrequentFixedSOA	1633	n/a	n/a	1
508.4940000000	n/a	508494	FrequentFixedSOA	1633	n/a	n/a	1
510.1270000000	n/a	510127	NovelFixedSOA	1633	n/a	n/a	1
511.7600000000	n/a	511760	FrequentFixedSOA	1633	n/a	n/a	1
513.3940000000	n/a	513394	FrequentFixedSOA	1633	n/a	n/a	1
515.0270000000	n/a	515027	NovelFixedSOA	1633	n/a	n/a	1
516.6600000000	n/a	516660	FrequentFixedSOA	1633	n/a	n/a	1
518.2940000000	n/a	518294	FrequentFixedSOA	1633	n/a	n/a	1
519.9270000000	n/a	519927	FrequentFixedSOA	1633	n/a	n/a	1
521.5600000000	n/a	521560	FrequentFixedSOA	1633	n/a	n/a	1
523.1940000000	n/a	523194	FrequentFixedSOA	1633	n/a	n/a	1
524.8270000000	n/a	524827	GoFixedSOA	1633	n/a	n/a	0
526.4600000000	n/a	526460	FrequentFixedSOA	1633	n/a	n/a	1
528.0940000000	n/a	528094	FrequentFixedSOA	1633	n/a	n/a	1
529.7270000000	n/a	529727	FrequentFixedSOA	1633	n/a	n/a	1
531.3600000000	n/a	531360	FrequentFixedSOA	1633	n/a	n/a	1
532.9940000000	n/a	532994	FrequentFixedSOA	1633	n/a	n/a	1
534.6270000000	n/a	534627	NovelFixedSOA	1633	n/a	n/a	1
536.2600000000	n/a	536260	FrequentFixedSOA	1633	n/a	n/a	1
537.8940000000	n/a	537894	GoFixedSOA	371	n/a	n/a	1
539.5270000000	n/a	539527	FrequentFixedSOA	1633	n/a	n/a	1
541.1600000000	n/a	541160	FrequentFixedSOA	1633	n/a	n/a	1
542.7940000000	n/a	542794	FrequentFixedSOA	1633	n/a	n/a	1
544.4270000000	n/a	544427	FrequentFixedSOA	1633	n/a	n/a	1
546.0600000000	n/a	546060	FrequentFixedSOA	1633	n/a	n/a	1
547.6940000000	n/a	547694	FrequentFixedSOA	1633	n/a	n/a	1
549.3270000000	n/a	549327	FrequentFixedSOA	1633	n/a	n/a	1
550.9600000000	n/a	550960	FrequentFixedSOA	1633	n/a	n/a	1
552.5940000000	n/a	552594	NovelFixedSOA	1633	n/a	n/a	1
554.2270000000	n/a	554227	FrequentFixedSOA	1633	n/a	n/a	1
555.8600000000	n/a	555860	FrequentFixedSOA	1633	n/a	n/a	1
557.4940000000	n/a	557494	GoVariableSOA	1616	n/a	n/a	0
559.1100000000	n/a	559110	FrequentVariableSOA	1700	n/a	n/a	1
560.8100000000	n/a	560810	FrequentVariableSOA	1683	n/a	n/a	1
562.4940000000	n/a	562494	FrequentVariableSOA	1733	n/a	n/a	1
564.2270000000	n/a	564227	FrequentVariableSOA	1766	n/a	n/a	1
565.9940000000	n/a	565994	FrequentVariableSOA	1666	n/a	n/a	1
567.6600000000	n/a	567660	FrequentVariableSOA	1733	n/a	n/a	1
569.3940000000	n/a	569394	NovelVariableSOA	1616	n/a	n/a	1
571.0100000000	n/a	571010	FrequentVariableSOA	1550	n/a	n/a	1
572.5600000000	n/a	572560	FrequentVariableSOA	1566	n/a	n/a	1
574.1270000000	n/a	574127	FrequentVariableSOA	1716	n/a	n/a	1
575.8440000000	n/a	575844	NovelVariableSOA	1566	n/a	n/a	1
577.4100000000	n/a	577410	FrequentVariableSOA	1733	n/a	n/a	1
579.1440000000	n/a	579144	GoVariableSOA	1616	n/a	n/a	0
580.7600000000	n/a	580760	FrequentVariableSOA	1766	n/a	n/a	1
582.5270000000	n/a	582527	FrequentVariableSOA	1700	n/a	n/a	1
584.2270000000	n/a	584227	GoVariableSOA	1716	n/a	n/a	0
585.9440000000	n/a	585944	FrequentVariableSOA	1783	n/a	n/a	1
587.7270000000	n/a	587727	NovelVariableSOA	1766	n/a	n/a	1
589.4940000000	n/a	589494	FrequentVariableSOA	1783	n/a	n/a	1
591.2770000000	n/a	591277	FrequentVariableSOA	1766	n/a	n/a	1
593.0440000000	n/a	593044	FrequentVariableSOA	1783	n/a	n/a	1
594.8270000000	n/a	594827	FrequentVariableSOA	1666	n/a	n/a	1
596.4940000000	n/a	596494	FrequentVariableSOA	1550	n/a	n/a	1
598.0440000000	n/a	598044	GoVariableSOA	1633	n/a	n/a	0
599.6770000000	n/a	599677	FrequentVariableSOA	1683	n/a	n/a	1
601.3600000000	n/a	601360	FrequentVariableSOA	1750	n/a	n/a	1
603.1100000000	n/a	603110	NovelVariableSOA	1750	n/a	n/a	1
604.8600000000	n/a	604860	FrequentVariableSOA	1583	n/a	n/a	1
606.4440000000	n/a	606444	FrequentVariableSOA	1583	n/a	n/a	1
608.0270000000	n/a	608027	FrequentVariableSOA	1633	n/a	n/a	1
609.6600000000	n/a	609660	FrequentVariableSOA	1783	n/a	n/a	1
611.4440000000	n/a	611444	FrequentVariableSOA	1633	n/a	n/a	1
613.0770000000	n/a	613077	NovelVariableSOA	1583	n/a	n/a	1
614.6600000000	n/a	614660	FrequentVariableSOA	1616	n/a	n/a	1
616.2770000000	n/a	616277	FrequentVariableSOA	1683	n/a	n/a	1
617.9600000000	n/a	617960	FrequentVariableSOA	1783	n/a	n/a	1
619.7440000000	n/a	619744	FrequentVariableSOA	1616	n/a	n/a	1
621.3600000000	n/a	621360	GoVariableSOA	1533	n/a	n/a	0
622.8940000000	n/a	622894	FrequentVariableSOA	1716	n/a	n/a	1
624.6100000000	n/a	624610	FrequentVariableSOA	1766	n/a	n/a	1
626.3770000000	n/a	626377	NovelVariableSOA	1516	n/a	n/a	1
627.8940000000	n/a	627894	FrequentVariableSOA	1500	n/a	n/a	1
629.3940000000	n/a	629394	FrequentVariableSOA	1550	n/a	n/a	1
630.9440000000	n/a	630944	NovelVariableSOA	1583	n/a	n/a	1
632.5270000000	n/a	632527	FrequentVariableSOA	1666	n/a	n/a	1
634.1930000000	n/a	634193	FrequentVariableSOA	1516	n/a	n/a	1
635.7100000000	n/a	635710	FrequentVariableSOA	1566	n/a	n/a	1
637.2770000000	n/a	637277	FrequentVariableSOA	1616	n/a	n/a	1
638.8940000000	n/a	638894	FrequentVariableSOA	1550	n/a	n/a	1
640.4430000000	n/a	640443	GoVariableSOA	1700	n/a	n/a	0
642.1430000000	n/a	642143	FrequentVariableSOA	1583	n/a	n/a	1
643.7270000000	n/a	643727	FrequentVariableSOA	1583	n/a	n/a	1
645.3100000000	n/a	645310	FrequentVariableSOA	1783	n/a	n/a	1
647.0930000000	n/a	647093	FrequentVariableSOA	1550	n/a	n/a	1
648.6430000000	n/a	648643	FrequentVariableSOA	1616	n/a	n/a	1
650.2600000000	n/a	650260	NovelVariableSOA	1550	n/a	n/a	1
651.8100000000	n/a	651810	FrequentVariableSOA	1700	n/a	n/a	1
653.5100000000	n/a	653510	GoVariableSOA	574	n/a	n/a	1
655.1270000000	n/a	655127	FrequentVariableSOA	1600	n/a	n/a	1
656.7270000000	n/a	656727	FrequentVariableSOA	1533	n/a	n/a	1
658.2600000000	n/a	658260	FrequentVariableSOA	1716	n/a	n/a	1
659.9770000000	n/a	659977	FrequentVariableSOA	1516	n/a	n/a	1
661.4930000000	n/a	661493	FrequentVariableSOA	1600	n/a	n/a	1
663.0930000000	n/a	663093	FrequentVariableSOA	1783	n/a	n/a	1
664.8770000000	n/a	664877	FrequentVariableSOA	1700	n/a	n/a	1
666.5770000000	n/a	666577	FrequentVariableSOA	1650	n/a	n/a	1
668.2270000000	n/a	668227	NovelVariableSOA	1566	n/a	n/a	1
669.7930000000	n/a	669793	FrequentVariableSOA	1733	n/a	n/a	1
671.5270000000	n/a	671527	FrequentVariableSOA	1650	n/a	n/a	1
673.1770000000	n/a	673177	GoFixedSOA	568	n/a	n/a	1
674.8100000000	n/a	674810	FrequentFixedSOA	1633	n/a	n/a	1
676.4430000000	n/a	676443	FrequentFixedSOA	1633	n/a	n/a	1
678.0770000000	n/a	678077	FrequentFixedSOA	1633	n/a	n/a	1
679.7100000000	n/a	679710	GoFixedSOA	832	n/a	n/a	1
681.3430000000	n/a	681343	FrequentFixedSOA	1633	n/a	n/a	0
682.9770000000	n/a	682977	FrequentFixedSOA	1633	n/a	n/a	1
684.6100000000	n/a	684610	FrequentFixedSOA	1633	n/a	n/a	1
686.2430000000	n/a	686243	FrequentFixedSOA	1633	n/a	n/a	1
687.8770000000	n/a	687877	GoFixedSOA	1633	n/a	n/a	0
689.5100000000	n/a	689510	FrequentFixedSOA	1633	n/a	n/a	1
691.1430000000	n/a	691143	FrequentFixedSOA	1633	n/a	n/a	1
692.7770000000	n/a	692777	NovelFixedSOA	1633	n/a	n/a	1
694.4100000000	n/a	694410	FrequentFixedSOA	1633	n/a	n/a	1
696.0430000000	n/a	696043	FrequentFixedSOA	1633	n/a	n/a	1
697.6770000000	n/a	697677	GoFixedSOA	615	n/a	n/a	1
699.3100000000	n/a	699310	FrequentFixedSOA	1633	n/a	n/a	1
700.9430000000	n/a	700943	FrequentFixedSOA	1633	n/a	n/a	1
702.5770000000	n/a	702577	FrequentFixedSOA	1633	n/a	n/a	1
704.2100000000	n/a	704210	NovelFixedSOA	1633	n/a	n/a	1
705.8430000000	n/a	705843	FrequentFixedSOA	1633	n/a	n/a	1
707.4770000000	n/a	707477	NovelFixedSOA	1633	n/a	n/a	1
709.1100000000	n/a	709110	FrequentFixedSOA	1633	n/a	n/a	1
710.7430000000	n/a	710743	FrequentFixedSOA	1633	n/a	n/a	1
712.3770000000	n/a	712377	FrequentFixedSOA	1633	n/a	n/a	1
714.0100000000	n/a	714010	GoFixedSOA	728	n/a	n/a	1
715.6430000000	n/a	715643	FrequentFixedSOA	1633	n/a	n/a	1
717.2770000000	n/a	717277	FrequentFixedSOA	1633	n/a	n/a	1
718.9100000000	n/a	718910	FrequentFixedSOA	1633	n/a	n/a	1
720.5430000000	n/a	720543	GoFixedSOA	1633	n/a	n/a	0
722.1770000000	n/a	722177	FrequentFixedSOA	1633	n/a	n/a	1
723.8100000000	n/a	723810	FrequentFixedSOA	1633	n/a	n/a	1
725.4430000000	n/a	725443	NovelFixedSOA	1633	n/a	n/a	1
727.0770000000	n/a	727077	FrequentFixedSOA	1633	n/a	n/a	1
728.7100000000	n/a	728710	GoFixedSOA	491	n/a	n/a	1
730.3430000000	n/a	730343	FrequentFixedSOA	1633	n/a	n/a	1
731.9770000000	n/a	731977	FrequentFixedSOA	1633	n/a	n/a	1
733.6100000000	n/a	733610	FrequentFixedSOA	1633	n/a	n/a	1
735.2430000000	n/a	735243	FrequentFixedSOA	1633	n/a	n/a	1
736.8770000000	n/a	736877	FrequentFixedSOA	1633	n/a	n/a	1
738.5100000000	n/a	738510	FrequentFixedSOA	1633	n/a	n/a	1
740.1430000000	n/a	740143	NovelFixedSOA	1633	n/a	n/a	1
741.7770000000	n/a	741777	FrequentFixedSOA	1633	n/a	n/a	1
743.4100000000	n/a	743410	FrequentFixedSOA	1633	n/a	n/a	1
745.0430000000	n/a	745043	FrequentFixedSOA	1633	n/a	n/a	1
746.6770000000	n/a	746677	GoFixedSOA	524	n/a	n/a	1
748.3100000000	n/a	748310	FrequentFixedSOA	1633	n/a	n/a	1
749.9430000000	n/a	749943	FrequentFixedSOA	1633	n/a	n/a	1
751.5770000000	n/a	751577	FrequentFixedSOA	1633	n/a	n/a	1
753.2100000000	n/a	753210	FrequentFixedSOA	1633	n/a	n/a	1
754.8430000000	n/a	754843	NovelFixedSOA	1633	n/a	n/a	1
756.4770000000	n/a	756477	FrequentFixedSOA	1633	n/a	n/a	1
758.1100000000	n/a	758110	FrequentFixedSOA	1633	n/a	n/a	1
759.7430000000	n/a	759743	NovelFixedSOA	1633	n/a	n/a	1
761.3770000000	n/a	761377	FrequentFixedSOA	1633	n/a	n/a	1
763.0100000000	n/a	763010	NovelFixedSOA	1633	n/a	n/a	1
764.6430000000	n/a	764643	FrequentFixedSOA	1633	n/a	n/a	1
766.2770000000	n/a	766277	FrequentFixedSOA	1633	n/a	n/a	1
767.9100000000	n/a	767910	FrequentFixedSOA	1633	n/a	n/a	1
769.5430000000	n/a	769543	FrequentFixedSOA	1633	n/a	n/a	1
771.1770000000	n/a	771177	FrequentFixedSOA	1633	n/a	n/a	1
772.8100000000	n/a	772810	FrequentFixedSOA	1633	n/a	n/a	1
774.4430000000	n/a	774443	FrequentFixedSOA	1633	n/a	n/a	1
776.0770000000	n/a	776077	GoFixedSOA	1633	n/a	n/a	0
777.7100000000	n/a	777710	FrequentFixedSOA	1633	n/a	n/a	1
779.3430000000	n/a	779343	GoFixedSOA	600	n/a	n/a	1
780.9770000000	n/a	780977	FrequentFixedSOA	1633	n/a	n/a	1
782.6100000000	n/a	782610	FrequentFixedSOA	1633	n/a	n/a	1
784.2430000000	n/a	784243	NovelFixedSOA	1633	n/a	n/a	1
785.8770000000	n/a	785877	FrequentFixedSOA	1633	n/a	n/a	1
787.5100000000	n/a	787510	GoVariableSOA	689	n/a	n/a	1
789.0930000000	n/a	789093	FrequentVariableSOA	1733	n/a	n/a	1
790.8270000000	n/a	790827	FrequentVariableSOA	1583	n/a	n/a	1
792.4100000000	n/a	792410	FrequentVariableSOA	1633	n/a	n/a	1
794.0430000000	n/a	794043	GoVariableSOA	1633	n/a	n/a	0
795.6770000000	n/a	795677	FrequentVariableSOA	1583	n/a	n/a	1
797.2600000000	n/a	797260	FrequentVariableSOA	1700	n/a	n/a	1
798.9600000000	n/a	798960	FrequentVariableSOA	1733	n/a	n/a	1
800.6930000000	n/a	800693	FrequentVariableSOA	1650	n/a	n/a	1
802.3430000000	n/a	802343	GoVariableSOA	365	n/a	n/a	1
804.1430000000	n/a	804143	FrequentVariableSOA	1700	n/a	n/a	1
805.8430000000	n/a	805843	FrequentVariableSOA	1516	n/a	n/a	1
807.3600000000	n/a	807360	NovelVariableSOA	1583	n/a	n/a	1
808.9430000000	n/a	808943	FrequentVariableSOA	1666	n/a	n/a	1
810.6100000000	n/a	810610	FrequentVariableSOA	1716	n/a	n/a	1
812.3270000000	n/a	812327	GoVariableSOA	332	n/a	n/a	1
814.0930000000	n/a	814093	FrequentVariableSOA	1750	n/a	n/a	1
815.8430000000	n/a	815843	FrequentVariableSOA	1633	n/a	n/a	1
817.4770000000	n/a	817477	FrequentVariableSOA	1583	n/a	n/a	1
819.0600000000	n/a	819060	NovelVariableSOA	1633	n/a	n/a	1
820.6930000000	n/a	820693	FrequentVariableSOA	1700	n/a	n/a	1
822.3930000000	n/a	822393	NovelVariableSOA	1783	n/a	n/a	1
824.1770000000	n/a	824177	FrequentVariableSOA	1500	n/a	n/a	1
825.6770000000	n/a	825677	FrequentVariableSOA	1566	n/a	n/a	1
827.2430000000	n/a	827243	FrequentVariableSOA	1500	n/a	n/a	1
828.7430000000	n/a	828743	GoVariableSOA	819	n/a	n/a	1
830.3600000000	n/a	830360	FrequentVariableSOA	1516	n/a	n/a	1
831.8770000000	n/a	831877	FrequentVariableSOA	1616	n/a	n/a	1
833.4930000000	n/a	833493	FrequentVariableSOA	1700	n/a	n/a	1
835.1930000000	n/a	835193	GoVariableSOA	866	n/a	n/a	1
836.8600000000	n/a	836860	FrequentVariableSOA	1600	n/a	n/a	1
838.4600000000	n/a	838460	FrequentVariableSOA	1800	n/a	n/a	1
840.2600000000	n/a	840260	NovelVariableSOA	1550	n/a	n/a	1
841.8100000000	n/a	841810	FrequentVariableSOA	1650	n/a	n/a	1
843.4600000000	n/a	843460	GoVariableSOA	573	n/a	n/a	1
845.2260000000	n/a	845226	FrequentVariableSOA	1733	n/a	n/a	1
846.9600000000	n/a	846960	FrequentVariableSOA	1550	n/a	n/a	1
848.5100000000	n/a	848510	FrequentVariableSOA	1583	n/a	n/a	1
850.0930000000	n/a	850093	FrequentVariableSOA	1500	n/a	n/a	1
851.5930000000	n/a	851593	FrequentVariableSOA	1566	n/a	n/a	1
853.1600000000	n/a	853160	FrequentVariableSOA	1533	n/a	n/a	1
854.6930000000	n/a	854693	NovelVariableSOA	1700	n/a	n/a	1
856.3930000000	n/a	856393	FrequentVariableSOA	1766	n/a	n/a	1
858.1600000000	n/a	858160	FrequentVariableSOA	1550	n/a	n/a	1
859.7100000000	n/a	859710	FrequentVariableSOA	1650	n/a	n/a	1
861.3600000000	n/a	861360	GoVariableSOA	380	n/a	n/a	1
862.9930000000	n/a	862993	FrequentVariableSOA	1650	n/a	n/a	1
864.6430000000	n/a	864643	FrequentVariableSOA	1800	n/a	n/a	1
866.4430000000	n/a	866443	FrequentVariableSOA	1733	n/a	n/a	1
868.1760000000	n/a	868176	FrequentVariableSOA	1533	n/a	n/a	1
869.7100000000	n/a	869710	NovelVariableSOA	1800	n/a	n/a	1
871.5100000000	n/a	871510	FrequentVariableSOA	1750	n/a	n/a	1
873.2600000000	n/a	873260	FrequentVariableSOA	1616	n/a	n/a	1
874.8760000000	n/a	874876	NovelVariableSOA	1650	n/a	n/a	1
876.5260000000	n/a	876526	FrequentVariableSOA	1750	n/a	n/a	1
878.2760000000	n/a	878276	NovelVariableSOA	1716	n/a	n/a	1
879.9930000000	n/a	879993	FrequentVariableSOA	1533	n/a	n/a	1
881.5260000000	n/a	881526	FrequentVariableSOA	1500	n/a	n/a	1
883.0260000000	n/a	883026	FrequentVariableSOA	1550	n/a	n/a	1
884.5760000000	n/a	884576	FrequentVariableSOA	1750	n/a	n/a	1
886.3260000000	n/a	886326	FrequentVariableSOA	1783	n/a	n/a	1
888.1100000000	n/a	888110	FrequentVariableSOA	1766	n/a	n/a	1
889.8760000000	n/a	889876	FrequentVariableSOA	1583	n/a	n/a	1
891.4600000000	n/a	891460	GoVariableSOA	514	n/a	n/a	1
893.0760000000	n/a	893076	FrequentVariableSOA	1583	n/a	n/a	1
894.6600000000	n/a	894660	GoVariableSOA	418	n/a	n/a	1
896.2600000000	n/a	896260	FrequentVariableSOA	1616	n/a	n/a	1
897.8760000000	n/a	897876	FrequentVariableSOA	1600	n/a	n/a	1
899.4760000000	n/a	899476	NovelVariableSOA	1683	n/a	n/a	1
901.1600000000	n/a	901160	FrequentVariableSOA	1516	n/a	n/a	1
