onset	duration	sample	trial_type	response_time	stim_file	value	correct
3.2720000000	n/a	3272	FrequentFixedSOA	1633	n/a	n/a	1
4.9050000000	n/a	4905	FrequentFixedSOA	1633	n/a	n/a	1
6.5380000000	n/a	6538	FrequentFixedSOA	1633	n/a	n/a	1
8.1710000000	n/a	8171	FrequentFixedSOA	1633	n/a	n/a	1
9.8050000000	n/a	9805	FrequentFixedSOA	1633	n/a	n/a	1
11.4380000000	n/a	11438	FrequentFixedSOA	1633	n/a	n/a	1
13.0710000000	n/a	13071	FrequentFixedSOA	1633	n/a	n/a	1
14.7050000000	n/a	14705	FrequentFixedSOA	1633	n/a	n/a	1
16.3380000000	n/a	16338	FrequentFixedSOA	1633	n/a	n/a	1
17.9710000000	n/a	17971	FrequentFixedSOA	1633	n/a	n/a	1
19.6050000000	n/a	19605	NovelFixedSOA	1633	n/a	n/a	1
21.2380000000	n/a	21238	FrequentFixedSOA	1633	n/a	n/a	1
22.8710000000	n/a	22871	GoFixedSOA	496	n/a	n/a	1
24.5050000000	n/a	24505	FrequentFixedSOA	1633	n/a	n/a	1
26.1380000000	n/a	26138	FrequentFixedSOA	1633	n/a	n/a	1
27.7710000000	n/a	27771	FrequentFixedSOA	1633	n/a	n/a	1
29.4050000000	n/a	29405	GoFixedSOA	406	n/a	n/a	1
31.0380000000	n/a	31038	FrequentFixedSOA	1633	n/a	n/a	1
32.6710000000	n/a	32671	FrequentFixedSOA	1633	n/a	n/a	1
34.3050000000	n/a	34305	FrequentFixedSOA	1633	n/a	n/a	1
35.9380000000	n/a	35938	NovelFixedSOA	1633	n/a	n/a	1
37.5710000000	n/a	37571	FrequentFixedSOA	1633	n/a	n/a	1
39.2050000000	n/a	39205	FrequentFixedSOA	1633	n/a	n/a	1
40.8380000000	n/a	40838	FrequentFixedSOA	1633	n/a	n/a	1
42.4710000000	n/a	42471	GoFixedSOA	353	n/a	n/a	1
44.1050000000	n/a	44105	FrequentFixedSOA	1633	n/a	n/a	1
45.7380000000	n/a	45738	NovelFixedSOA	1633	n/a	n/a	1
47.3710000000	n/a	47371	FrequentFixedSOA	1633	n/a	n/a	1
49.0050000000	n/a	49005	FrequentFixedSOA	1633	n/a	n/a	1
50.6380000000	n/a	50638	FrequentFixedSOA	1633	n/a	n/a	1
52.2710000000	n/a	52271	GoFixedSOA	378	n/a	n/a	1
53.9050000000	n/a	53905	FrequentFixedSOA	1633	n/a	n/a	1
55.5380000000	n/a	55538	GoFixedSOA	479	n/a	n/a	1
57.1710000000	n/a	57171	FrequentFixedSOA	1633	n/a	n/a	1
58.8050000000	n/a	58805	FrequentFixedSOA	1633	n/a	n/a	1
60.4380000000	n/a	60438	GoFixedSOA	357	n/a	n/a	1
62.0710000000	n/a	62071	FrequentFixedSOA	1633	n/a	n/a	1
63.7050000000	n/a	63705	FrequentFixedSOA	1633	n/a	n/a	1
65.3380000000	n/a	65338	FrequentFixedSOA	1633	n/a	n/a	1
66.9710000000	n/a	66971	FrequentFixedSOA	1633	n/a	n/a	1
68.6050000000	n/a	68605	NovelFixedSOA	1633	n/a	n/a	1
70.2380000000	n/a	70238	FrequentFixedSOA	1633	n/a	n/a	1
71.8710000000	n/a	71871	NovelFixedSOA	1633	n/a	n/a	1
73.5050000000	n/a	73505	FrequentFixedSOA	1633	n/a	n/a	1
75.1380000000	n/a	75138	FrequentFixedSOA	1633	n/a	n/a	1
76.7710000000	n/a	76771	GoFixedSOA	351	n/a	n/a	1
78.4050000000	n/a	78405	FrequentFixedSOA	1633	n/a	n/a	1
80.0380000000	n/a	80038	FrequentFixedSOA	1633	n/a	n/a	1
81.6710000000	n/a	81671	FrequentFixedSOA	1633	n/a	n/a	1
83.3050000000	n/a	83305	FrequentFixedSOA	1633	n/a	n/a	1
84.9380000000	n/a	84938	NovelFixedSOA	1633	n/a	n/a	1
86.5710000000	n/a	86571	FrequentFixedSOA	1633	n/a	n/a	1
88.2050000000	n/a	88205	FrequentFixedSOA	1633	n/a	n/a	1
89.8380000000	n/a	89838	FrequentFixedSOA	1633	n/a	n/a	1
91.4710000000	n/a	91471	FrequentFixedSOA	1633	n/a	n/a	1
93.1050000000	n/a	93105	GoFixedSOA	411	n/a	n/a	1
94.7380000000	n/a	94738	FrequentFixedSOA	1633	n/a	n/a	1
96.3710000000	n/a	96371	FrequentFixedSOA	1633	n/a	n/a	1
98.0050000000	n/a	98005	NovelFixedSOA	1633	n/a	n/a	1
99.6380000000	n/a	99638	FrequentFixedSOA	1633	n/a	n/a	1
101.2710000000	n/a	101271	FrequentFixedSOA	1633	n/a	n/a	1
102.9050000000	n/a	102905	GoFixedSOA	498	n/a	n/a	1
104.5380000000	n/a	104538	FrequentFixedSOA	1633	n/a	n/a	1
106.1710000000	n/a	106171	FrequentFixedSOA	1633	n/a	n/a	1
107.8050000000	n/a	107805	FrequentFixedSOA	1633	n/a	n/a	1
109.4380000000	n/a	109438	FrequentFixedSOA	1633	n/a	n/a	1
111.0710000000	n/a	111071	NovelFixedSOA	1633	n/a	n/a	1
112.7050000000	n/a	112705	FrequentFixedSOA	1633	n/a	n/a	1
114.3380000000	n/a	114338	FrequentFixedSOA	1633	n/a	n/a	1
115.9710000000	n/a	115971	GoFixedSOA	490	n/a	n/a	1
117.6050000000	n/a	117605	FrequentVariableSOA	1750	n/a	n/a	1
119.3550000000	n/a	119355	FrequentVariableSOA	1533	n/a	n/a	1
120.8880000000	n/a	120888	FrequentVariableSOA	1516	n/a	n/a	1
122.4050000000	n/a	122405	FrequentVariableSOA	1716	n/a	n/a	1
124.1210000000	n/a	124121	FrequentVariableSOA	1616	n/a	n/a	1
125.7380000000	n/a	125738	FrequentVariableSOA	1516	n/a	n/a	1
127.2550000000	n/a	127255	FrequentVariableSOA	1666	n/a	n/a	1
128.9210000000	n/a	128921	FrequentVariableSOA	1650	n/a	n/a	1
130.5710000000	n/a	130571	FrequentVariableSOA	1800	n/a	n/a	1
132.3710000000	n/a	132371	FrequentVariableSOA	1666	n/a	n/a	1
134.0380000000	n/a	134038	NovelVariableSOA	1516	n/a	n/a	1
135.5540000000	n/a	135554	FrequentVariableSOA	1683	n/a	n/a	1
137.2380000000	n/a	137238	GoVariableSOA	510	n/a	n/a	1
138.9710000000	n/a	138971	FrequentVariableSOA	1750	n/a	n/a	1
140.7210000000	n/a	140721	FrequentVariableSOA	1600	n/a	n/a	1
142.3210000000	n/a	142321	FrequentVariableSOA	1766	n/a	n/a	1
144.0880000000	n/a	144088	GoVariableSOA	528	n/a	n/a	1
145.7540000000	n/a	145754	FrequentVariableSOA	1650	n/a	n/a	1
147.4040000000	n/a	147404	FrequentVariableSOA	1650	n/a	n/a	1
149.0540000000	n/a	149054	FrequentVariableSOA	1716	n/a	n/a	1
150.7710000000	n/a	150771	NovelVariableSOA	1566	n/a	n/a	1
152.3380000000	n/a	152338	FrequentVariableSOA	1633	n/a	n/a	1
153.9710000000	n/a	153971	FrequentVariableSOA	1583	n/a	n/a	1
155.5540000000	n/a	155554	FrequentVariableSOA	1750	n/a	n/a	1
157.3040000000	n/a	157304	GoVariableSOA	478	n/a	n/a	1
158.9210000000	n/a	158921	FrequentVariableSOA	1516	n/a	n/a	1
160.4380000000	n/a	160438	NovelVariableSOA	1750	n/a	n/a	1
162.1880000000	n/a	162188	FrequentVariableSOA	1716	n/a	n/a	1
163.9040000000	n/a	163904	FrequentVariableSOA	1566	n/a	n/a	1
165.4710000000	n/a	165471	FrequentVariableSOA	1666	n/a	n/a	1
167.1380000000	n/a	167138	GoVariableSOA	370	n/a	n/a	1
168.7710000000	n/a	168771	FrequentVariableSOA	1750	n/a	n/a	1
170.5210000000	n/a	170521	GoVariableSOA	543	n/a	n/a	1
172.2710000000	n/a	172271	FrequentVariableSOA	1566	n/a	n/a	1
173.8380000000	n/a	173838	FrequentVariableSOA	1550	n/a	n/a	1
175.3880000000	n/a	175388	GoVariableSOA	532	n/a	n/a	1
177.0880000000	n/a	177088	FrequentVariableSOA	1666	n/a	n/a	1
178.7540000000	n/a	178754	FrequentVariableSOA	1700	n/a	n/a	1
180.4540000000	n/a	180454	FrequentVariableSOA	1700	n/a	n/a	1
182.1540000000	n/a	182154	FrequentVariableSOA	1650	n/a	n/a	1
183.8040000000	n/a	183804	NovelVariableSOA	1600	n/a	n/a	1
185.4040000000	n/a	185404	FrequentVariableSOA	1733	n/a	n/a	1
187.1380000000	n/a	187138	NovelVariableSOA	1550	n/a	n/a	1
188.6880000000	n/a	188688	FrequentVariableSOA	1550	n/a	n/a	1
190.2380000000	n/a	190238	FrequentVariableSOA	1783	n/a	n/a	1
192.0210000000	n/a	192021	GoVariableSOA	392	n/a	n/a	1
193.7880000000	n/a	193788	FrequentVariableSOA	1566	n/a	n/a	1
195.3540000000	n/a	195354	FrequentVariableSOA	1700	n/a	n/a	1
197.0540000000	n/a	197054	FrequentVariableSOA	1583	n/a	n/a	1
198.6380000000	n/a	198638	FrequentVariableSOA	1650	n/a	n/a	1
200.2880000000	n/a	200288	NovelVariableSOA	1766	n/a	n/a	1
202.0540000000	n/a	202054	FrequentVariableSOA	1633	n/a	n/a	1
203.6880000000	n/a	203688	FrequentVariableSOA	1583	n/a	n/a	1
205.2710000000	n/a	205271	FrequentVariableSOA	1666	n/a	n/a	1
206.9380000000	n/a	206938	FrequentVariableSOA	1616	n/a	n/a	1
208.5540000000	n/a	208554	GoVariableSOA	446	n/a	n/a	1
210.0540000000	n/a	210054	FrequentVariableSOA	1583	n/a	n/a	1
211.6380000000	n/a	211638	FrequentVariableSOA	1516	n/a	n/a	1
213.1540000000	n/a	213154	NovelVariableSOA	1583	n/a	n/a	1
214.7380000000	n/a	214738	FrequentVariableSOA	1616	n/a	n/a	1
216.3540000000	n/a	216354	FrequentVariableSOA	1633	n/a	n/a	1
217.9880000000	n/a	217988	GoVariableSOA	388	n/a	n/a	1
219.6710000000	n/a	219671	FrequentVariableSOA	1566	n/a	n/a	1
221.2380000000	n/a	221238	FrequentVariableSOA	1600	n/a	n/a	1
222.8380000000	n/a	222838	FrequentVariableSOA	1516	n/a	n/a	1
224.3540000000	n/a	224354	FrequentVariableSOA	1733	n/a	n/a	1
226.0880000000	n/a	226088	NovelVariableSOA	1583	n/a	n/a	1
227.6710000000	n/a	227671	FrequentVariableSOA	1533	n/a	n/a	1
229.2040000000	n/a	229204	FrequentVariableSOA	1733	n/a	n/a	1
230.9380000000	n/a	230938	GoVariableSOA	426	n/a	n/a	1
232.5380000000	n/a	232538	FrequentFixedSOA	1633	n/a	n/a	1
234.1710000000	n/a	234171	FrequentFixedSOA	1633	n/a	n/a	1
235.8040000000	n/a	235804	FrequentFixedSOA	1633	n/a	n/a	1
237.4380000000	n/a	237438	GoFixedSOA	530	n/a	n/a	1
239.0710000000	n/a	239071	FrequentFixedSOA	1633	n/a	n/a	1
240.7040000000	n/a	240704	FrequentFixedSOA	1633	n/a	n/a	1
242.3380000000	n/a	242338	FrequentFixedSOA	1633	n/a	n/a	1
243.9710000000	n/a	243971	GoFixedSOA	431	n/a	n/a	1
245.6040000000	n/a	245604	FrequentFixedSOA	1633	n/a	n/a	1
247.2380000000	n/a	247238	FrequentFixedSOA	1633	n/a	n/a	1
248.8710000000	n/a	248871	FrequentFixedSOA	1633	n/a	n/a	1
250.5040000000	n/a	250504	NovelFixedSOA	1633	n/a	n/a	1
252.1380000000	n/a	252138	FrequentFixedSOA	1633	n/a	n/a	1
253.7710000000	n/a	253771	NovelFixedSOA	1633	n/a	n/a	1
255.4040000000	n/a	255404	FrequentFixedSOA	1633	n/a	n/a	1
257.0380000000	n/a	257038	FrequentFixedSOA	1633	n/a	n/a	1
258.6710000000	n/a	258671	NovelFixedSOA	1633	n/a	n/a	1
260.3040000000	n/a	260304	FrequentFixedSOA	1633	n/a	n/a	1
261.9380000000	n/a	261938	FrequentFixedSOA	1633	n/a	n/a	1
263.5710000000	n/a	263571	FrequentFixedSOA	1633	n/a	n/a	1
265.2040000000	n/a	265204	FrequentFixedSOA	1633	n/a	n/a	1
266.8380000000	n/a	266838	FrequentFixedSOA	1633	n/a	n/a	1
268.4710000000	n/a	268471	NovelFixedSOA	1633	n/a	n/a	1
270.1040000000	n/a	270104	FrequentFixedSOA	1633	n/a	n/a	1
271.7380000000	n/a	271738	FrequentFixedSOA	1633	n/a	n/a	1
273.3710000000	n/a	273371	FrequentFixedSOA	1633	n/a	n/a	1
275.0040000000	n/a	275004	FrequentFixedSOA	1633	n/a	n/a	1
276.6380000000	n/a	276638	FrequentFixedSOA	1633	n/a	n/a	1
278.2710000000	n/a	278271	GoFixedSOA	417	n/a	n/a	1
279.9040000000	n/a	279904	FrequentFixedSOA	1633	n/a	n/a	1
281.5380000000	n/a	281538	FrequentFixedSOA	1633	n/a	n/a	1
283.1710000000	n/a	283171	GoFixedSOA	502	n/a	n/a	1
284.8040000000	n/a	284804	FrequentFixedSOA	1633	n/a	n/a	1
286.4380000000	n/a	286438	NovelFixedSOA	1633	n/a	n/a	1
288.0710000000	n/a	288071	FrequentFixedSOA	1633	n/a	n/a	1
289.7040000000	n/a	289704	GoFixedSOA	391	n/a	n/a	1
291.3380000000	n/a	291338	FrequentFixedSOA	1633	n/a	n/a	1
292.9710000000	n/a	292971	GoFixedSOA	491	n/a	n/a	1
294.6040000000	n/a	294604	FrequentFixedSOA	1633	n/a	n/a	1
296.2380000000	n/a	296238	FrequentFixedSOA	1633	n/a	n/a	1
297.8710000000	n/a	297871	FrequentFixedSOA	1633	n/a	n/a	1
299.5040000000	n/a	299504	FrequentFixedSOA	1633	n/a	n/a	1
301.1380000000	n/a	301138	GoFixedSOA	360	n/a	n/a	1
302.7710000000	n/a	302771	FrequentFixedSOA	1633	n/a	n/a	1
304.4040000000	n/a	304404	FrequentFixedSOA	1633	n/a	n/a	1
306.0380000000	n/a	306038	FrequentFixedSOA	1633	n/a	n/a	1
307.6710000000	n/a	307671	NovelFixedSOA	1633	n/a	n/a	1
309.3040000000	n/a	309304	FrequentFixedSOA	1633	n/a	n/a	1
310.9380000000	n/a	310938	FrequentFixedSOA	1633	n/a	n/a	1
312.5710000000	n/a	312571	FrequentFixedSOA	1633	n/a	n/a	1
314.2040000000	n/a	314204	FrequentFixedSOA	1633	n/a	n/a	1
315.8380000000	n/a	315838	NovelFixedSOA	1633	n/a	n/a	1
317.4710000000	n/a	317471	FrequentFixedSOA	1633	n/a	n/a	1
319.1040000000	n/a	319104	FrequentFixedSOA	1633	n/a	n/a	1
320.7380000000	n/a	320738	FrequentFixedSOA	1633	n/a	n/a	1
322.3710000000	n/a	322371	FrequentFixedSOA	1633	n/a	n/a	1
324.0040000000	n/a	324004	NovelFixedSOA	1633	n/a	n/a	1
325.6380000000	n/a	325638	FrequentFixedSOA	1633	n/a	n/a	1
327.2710000000	n/a	327271	FrequentFixedSOA	1633	n/a	n/a	1
328.9040000000	n/a	328904	GoFixedSOA	391	n/a	n/a	1
330.5380000000	n/a	330538	FrequentFixedSOA	1633	n/a	n/a	1
332.1710000000	n/a	332171	FrequentFixedSOA	1633	n/a	n/a	1
333.8040000000	n/a	333804	FrequentFixedSOA	1633	n/a	n/a	1
335.4380000000	n/a	335438	FrequentFixedSOA	1633	n/a	n/a	1
337.0710000000	n/a	337071	NovelFixedSOA	1633	n/a	n/a	1
338.7040000000	n/a	338704	FrequentFixedSOA	1633	n/a	n/a	1
340.3370000000	n/a	340337	FrequentFixedSOA	1633	n/a	n/a	1
341.9710000000	n/a	341971	FrequentFixedSOA	1633	n/a	n/a	1
343.6040000000	n/a	343604	FrequentFixedSOA	1633	n/a	n/a	1
345.2370000000	n/a	345237	FrequentFixedSOA	1633	n/a	n/a	1
346.8710000000	n/a	346871	FrequentVariableSOA	1600	n/a	n/a	1
348.4710000000	n/a	348471	FrequentVariableSOA	1683	n/a	n/a	1
350.1540000000	n/a	350154	FrequentVariableSOA	1716	n/a	n/a	1
351.8710000000	n/a	351871	GoVariableSOA	556	n/a	n/a	1
353.5540000000	n/a	353554	FrequentVariableSOA	1583	n/a	n/a	1
355.1370000000	n/a	355137	FrequentVariableSOA	1616	n/a	n/a	1
356.7540000000	n/a	356754	FrequentVariableSOA	1516	n/a	n/a	1
358.2710000000	n/a	358271	GoVariableSOA	455	n/a	n/a	1
359.8040000000	n/a	359804	FrequentVariableSOA	1783	n/a	n/a	1
361.5870000000	n/a	361587	FrequentVariableSOA	1550	n/a	n/a	1
363.1370000000	n/a	363137	FrequentVariableSOA	1600	n/a	n/a	1
364.7370000000	n/a	364737	NovelVariableSOA	1533	n/a	n/a	1
366.2710000000	n/a	366271	FrequentVariableSOA	1700	n/a	n/a	1
367.9710000000	n/a	367971	NovelVariableSOA	1516	n/a	n/a	1
369.4870000000	n/a	369487	FrequentVariableSOA	1633	n/a	n/a	1
371.1210000000	n/a	371121	FrequentVariableSOA	1550	n/a	n/a	1
372.6710000000	n/a	372671	NovelVariableSOA	1783	n/a	n/a	1
374.4540000000	n/a	374454	FrequentVariableSOA	1583	n/a	n/a	1
376.0370000000	n/a	376037	FrequentVariableSOA	1633	n/a	n/a	1
377.6710000000	n/a	377671	FrequentVariableSOA	1716	n/a	n/a	1
379.3870000000	n/a	379387	FrequentVariableSOA	1650	n/a	n/a	1
381.0370000000	n/a	381037	FrequentVariableSOA	1516	n/a	n/a	1
382.5540000000	n/a	382554	NovelVariableSOA	1650	n/a	n/a	1
384.2040000000	n/a	384204	FrequentVariableSOA	1700	n/a	n/a	1
385.9040000000	n/a	385904	FrequentVariableSOA	1600	n/a	n/a	1
387.5040000000	n/a	387504	FrequentVariableSOA	1716	n/a	n/a	1
389.2210000000	n/a	389221	FrequentVariableSOA	1616	n/a	n/a	1
390.8370000000	n/a	390837	FrequentVariableSOA	1533	n/a	n/a	1
392.3710000000	n/a	392371	GoVariableSOA	362	n/a	n/a	1
394.0040000000	n/a	394004	FrequentVariableSOA	1516	n/a	n/a	1
395.5210000000	n/a	395521	FrequentVariableSOA	1633	n/a	n/a	1
397.1540000000	n/a	397154	GoVariableSOA	369	n/a	n/a	1
398.9370000000	n/a	398937	FrequentVariableSOA	1550	n/a	n/a	1
400.4870000000	n/a	400487	NovelVariableSOA	1550	n/a	n/a	1
402.0370000000	n/a	402037	FrequentVariableSOA	1633	n/a	n/a	1
403.6710000000	n/a	403671	GoVariableSOA	337	n/a	n/a	1
405.2870000000	n/a	405287	FrequentVariableSOA	1633	n/a	n/a	1
406.9210000000	n/a	406921	GoVariableSOA	485	n/a	n/a	1
408.5370000000	n/a	408537	FrequentVariableSOA	1633	n/a	n/a	1
410.1710000000	n/a	410171	FrequentVariableSOA	1650	n/a	n/a	1
411.8210000000	n/a	411821	FrequentVariableSOA	1683	n/a	n/a	1
413.5040000000	n/a	413504	FrequentVariableSOA	1566	n/a	n/a	1
415.0710000000	n/a	415071	GoVariableSOA	404	n/a	n/a	1
416.7540000000	n/a	416754	FrequentVariableSOA	1516	n/a	n/a	1
418.2710000000	n/a	418271	FrequentVariableSOA	1783	n/a	n/a	1
420.0540000000	n/a	420054	FrequentVariableSOA	1633	n/a	n/a	1
421.6870000000	n/a	421687	NovelVariableSOA	1566	n/a	n/a	1
423.2540000000	n/a	423254	FrequentVariableSOA	1700	n/a	n/a	1
424.9540000000	n/a	424954	FrequentVariableSOA	1766	n/a	n/a	1
426.7210000000	n/a	426721	FrequentVariableSOA	1566	n/a	n/a	1
428.2870000000	n/a	428287	FrequentVariableSOA	1633	n/a	n/a	1
429.9210000000	n/a	429921	NovelVariableSOA	1616	n/a	n/a	1
431.5370000000	n/a	431537	FrequentVariableSOA	1516	n/a	n/a	1
433.0540000000	n/a	433054	FrequentVariableSOA	1633	n/a	n/a	1
434.6870000000	n/a	434687	FrequentVariableSOA	1616	n/a	n/a	1
436.3040000000	n/a	436304	FrequentVariableSOA	1750	n/a	n/a	1
438.0540000000	n/a	438054	NovelVariableSOA	1700	n/a	n/a	1
439.7540000000	n/a	439754	FrequentVariableSOA	1633	n/a	n/a	1
441.3870000000	n/a	441387	FrequentVariableSOA	1666	n/a	n/a	1
443.0540000000	n/a	443054	GoVariableSOA	476	n/a	n/a	1
444.6210000000	n/a	444621	FrequentVariableSOA	1750	n/a	n/a	1
446.3710000000	n/a	446371	FrequentVariableSOA	1583	n/a	n/a	1
447.9540000000	n/a	447954	FrequentVariableSOA	1600	n/a	n/a	1
449.5540000000	n/a	449554	FrequentVariableSOA	1633	n/a	n/a	1
451.1870000000	n/a	451187	NovelVariableSOA	1633	n/a	n/a	1
452.8210000000	n/a	452821	FrequentVariableSOA	1750	n/a	n/a	1
454.5710000000	n/a	454571	FrequentVariableSOA	1666	n/a	n/a	1
456.2370000000	n/a	456237	FrequentVariableSOA	1583	n/a	n/a	1
457.8210000000	n/a	457821	FrequentVariableSOA	1700	n/a	n/a	1
459.5210000000	n/a	459521	FrequentVariableSOA	1650	n/a	n/a	1
461.1710000000	n/a	461171	GoFixedSOA	379	n/a	n/a	1
462.8040000000	n/a	462804	FrequentFixedSOA	1633	n/a	n/a	1
464.4370000000	n/a	464437	FrequentFixedSOA	1633	n/a	n/a	1
466.0710000000	n/a	466071	FrequentFixedSOA	1633	n/a	n/a	1
467.7040000000	n/a	467704	FrequentFixedSOA	1633	n/a	n/a	1
469.3370000000	n/a	469337	FrequentFixedSOA	1633	n/a	n/a	1
470.9710000000	n/a	470971	FrequentFixedSOA	1633	n/a	n/a	1
472.6040000000	n/a	472604	NovelFixedSOA	1633	n/a	n/a	1
474.2370000000	n/a	474237	FrequentFixedSOA	1633	n/a	n/a	1
475.8710000000	n/a	475871	FrequentFixedSOA	1633	n/a	n/a	1
477.5040000000	n/a	477504	FrequentFixedSOA	1633	n/a	n/a	1
479.1370000000	n/a	479137	NovelFixedSOA	1633	n/a	n/a	1
480.7710000000	n/a	480771	FrequentFixedSOA	1633	n/a	n/a	1
482.4040000000	n/a	482404	GoFixedSOA	380	n/a	n/a	1
484.0370000000	n/a	484037	FrequentFixedSOA	1633	n/a	n/a	1
485.6710000000	n/a	485671	FrequentFixedSOA	1633	n/a	n/a	1
487.3040000000	n/a	487304	GoFixedSOA	474	n/a	n/a	1
488.9370000000	n/a	488937	FrequentFixedSOA	1633	n/a	n/a	1
490.5710000000	n/a	490571	NovelFixedSOA	1633	n/a	n/a	1
492.2040000000	n/a	492204	FrequentFixedSOA	1633	n/a	n/a	1
493.8370000000	n/a	493837	FrequentFixedSOA	1633	n/a	n/a	1
495.4710000000	n/a	495471	FrequentFixedSOA	1633	n/a	n/a	1
497.1040000000	n/a	497104	FrequentFixedSOA	1633	n/a	n/a	1
498.7370000000	n/a	498737	FrequentFixedSOA	1633	n/a	n/a	1
500.3710000000	n/a	500371	GoFixedSOA	483	n/a	n/a	1
502.0040000000	n/a	502004	FrequentFixedSOA	1633	n/a	n/a	1
503.6370000000	n/a	503637	FrequentFixedSOA	1633	n/a	n/a	1
505.2710000000	n/a	505271	NovelFixedSOA	1633	n/a	n/a	1
506.9040000000	n/a	506904	FrequentFixedSOA	1633	n/a	n/a	1
508.5370000000	n/a	508537	FrequentFixedSOA	1633	n/a	n/a	1
510.1710000000	n/a	510171	FrequentFixedSOA	1633	n/a	n/a	1
511.8040000000	n/a	511804	FrequentFixedSOA	1633	n/a	n/a	1
513.4370000000	n/a	513437	FrequentFixedSOA	1633	n/a	n/a	1
515.0710000000	n/a	515071	NovelFixedSOA	1633	n/a	n/a	1
516.7040000000	n/a	516704	FrequentFixedSOA	1633	n/a	n/a	1
518.3370000000	n/a	518337	FrequentFixedSOA	1633	n/a	n/a	1
519.9710000000	n/a	519971	FrequentFixedSOA	1633	n/a	n/a	1
521.6040000000	n/a	521604	FrequentFixedSOA	1633	n/a	n/a	1
523.2370000000	n/a	523237	GoFixedSOA	456	n/a	n/a	1
524.8710000000	n/a	524871	FrequentFixedSOA	1633	n/a	n/a	1
526.5040000000	n/a	526504	FrequentFixedSOA	1633	n/a	n/a	1
528.1370000000	n/a	528137	NovelFixedSOA	1633	n/a	n/a	1
529.7710000000	n/a	529771	FrequentFixedSOA	1633	n/a	n/a	1
531.4040000000	n/a	531404	FrequentFixedSOA	1633	n/a	n/a	1
533.0370000000	n/a	533037	NovelFixedSOA	1633	n/a	n/a	1
534.6710000000	n/a	534671	FrequentFixedSOA	1633	n/a	n/a	1
536.3040000000	n/a	536304	FrequentFixedSOA	1633	n/a	n/a	1
537.9370000000	n/a	537937	FrequentFixedSOA	1633	n/a	n/a	1
539.5710000000	n/a	539571	FrequentFixedSOA	1633	n/a	n/a	1
541.2040000000	n/a	541204	FrequentFixedSOA	1633	n/a	n/a	1
542.8370000000	n/a	542837	GoFixedSOA	473	n/a	n/a	1
544.4710000000	n/a	544471	FrequentFixedSOA	1633	n/a	n/a	1
546.1040000000	n/a	546104	FrequentFixedSOA	1633	n/a	n/a	1
547.7370000000	n/a	547737	FrequentFixedSOA	1633	n/a	n/a	1
549.3710000000	n/a	549371	FrequentFixedSOA	1633	n/a	n/a	1
551.0040000000	n/a	551004	FrequentFixedSOA	1633	n/a	n/a	1
552.6370000000	n/a	552637	NovelFixedSOA	1633	n/a	n/a	1
554.2710000000	n/a	554271	FrequentFixedSOA	1633	n/a	n/a	1
555.9040000000	n/a	555904	GoFixedSOA	477	n/a	n/a	1
557.5370000000	n/a	557537	FrequentFixedSOA	1633	n/a	n/a	1
559.1700000000	n/a	559170	FrequentFixedSOA	1633	n/a	n/a	1
560.8040000000	n/a	560804	FrequentFixedSOA	1633	n/a	n/a	1
562.4370000000	n/a	562437	FrequentFixedSOA	1633	n/a	n/a	1
564.0700000000	n/a	564070	FrequentFixedSOA	1633	n/a	n/a	1
565.7040000000	n/a	565704	FrequentFixedSOA	1633	n/a	n/a	1
567.3370000000	n/a	567337	FrequentFixedSOA	1633	n/a	n/a	1
568.9700000000	n/a	568970	FrequentFixedSOA	1633	n/a	n/a	1
570.6040000000	n/a	570604	NovelFixedSOA	1633	n/a	n/a	1
572.2370000000	n/a	572237	FrequentFixedSOA	1633	n/a	n/a	1
573.8700000000	n/a	573870	FrequentFixedSOA	1633	n/a	n/a	1
575.5040000000	n/a	575504	GoVariableSOA	350	n/a	n/a	1
577.2700000000	n/a	577270	FrequentVariableSOA	1566	n/a	n/a	1
578.8370000000	n/a	578837	FrequentVariableSOA	1783	n/a	n/a	1
580.6200000000	n/a	580620	FrequentVariableSOA	1783	n/a	n/a	1
582.4040000000	n/a	582404	FrequentVariableSOA	1683	n/a	n/a	1
584.0870000000	n/a	584087	FrequentVariableSOA	1716	n/a	n/a	1
585.8040000000	n/a	585804	FrequentVariableSOA	1766	n/a	n/a	1
587.5700000000	n/a	587570	NovelVariableSOA	1616	n/a	n/a	1
589.1870000000	n/a	589187	FrequentVariableSOA	1683	n/a	n/a	1
590.8700000000	n/a	590870	FrequentVariableSOA	1700	n/a	n/a	1
592.5700000000	n/a	592570	FrequentVariableSOA	1683	n/a	n/a	1
594.2540000000	n/a	594254	NovelVariableSOA	1716	n/a	n/a	1
595.9700000000	n/a	595970	FrequentVariableSOA	1750	n/a	n/a	1
597.7200000000	n/a	597720	GoVariableSOA	425	n/a	n/a	1
599.4700000000	n/a	599470	FrequentVariableSOA	1633	n/a	n/a	1
601.1040000000	n/a	601104	FrequentVariableSOA	1566	n/a	n/a	1
602.6700000000	n/a	602670	GoVariableSOA	459	n/a	n/a	1
604.3370000000	n/a	604337	FrequentVariableSOA	1633	n/a	n/a	1
605.9700000000	n/a	605970	NovelVariableSOA	1716	n/a	n/a	1
607.6870000000	n/a	607687	FrequentVariableSOA	1600	n/a	n/a	1
609.2870000000	n/a	609287	FrequentVariableSOA	1550	n/a	n/a	1
610.8370000000	n/a	610837	FrequentVariableSOA	1766	n/a	n/a	1
612.6040000000	n/a	612604	FrequentVariableSOA	1683	n/a	n/a	1
614.2870000000	n/a	614287	FrequentVariableSOA	1666	n/a	n/a	1
615.9540000000	n/a	615954	GoVariableSOA	1633	n/a	n/a	0
617.5870000000	n/a	617587	FrequentVariableSOA	1516	n/a	n/a	1
619.1040000000	n/a	619104	FrequentVariableSOA	1750	n/a	n/a	1
620.8540000000	n/a	620854	NovelVariableSOA	1766	n/a	n/a	1
622.6200000000	n/a	622620	FrequentVariableSOA	1783	n/a	n/a	1
624.4040000000	n/a	624404	FrequentVariableSOA	1783	n/a	n/a	1
626.1870000000	n/a	626187	FrequentVariableSOA	1500	n/a	n/a	1
627.6870000000	n/a	627687	FrequentVariableSOA	1733	n/a	n/a	1
629.4200000000	n/a	629420	FrequentVariableSOA	1600	n/a	n/a	1
631.0200000000	n/a	631020	NovelVariableSOA	1716	n/a	n/a	1
632.7370000000	n/a	632737	FrequentVariableSOA	1533	n/a	n/a	1
634.2700000000	n/a	634270	FrequentVariableSOA	1533	n/a	n/a	1
635.8040000000	n/a	635804	FrequentVariableSOA	1733	n/a	n/a	1
637.5370000000	n/a	637537	FrequentVariableSOA	1550	n/a	n/a	1
639.0870000000	n/a	639087	GoVariableSOA	394	n/a	n/a	1
640.8040000000	n/a	640804	FrequentVariableSOA	1666	n/a	n/a	1
642.4700000000	n/a	642470	FrequentVariableSOA	1733	n/a	n/a	1
644.2040000000	n/a	644204	NovelVariableSOA	1783	n/a	n/a	1
645.9870000000	n/a	645987	FrequentVariableSOA	1533	n/a	n/a	1
647.5200000000	n/a	647520	FrequentVariableSOA	1533	n/a	n/a	1
649.0540000000	n/a	649054	NovelVariableSOA	1733	n/a	n/a	1
650.7870000000	n/a	650787	FrequentVariableSOA	1716	n/a	n/a	1
652.5040000000	n/a	652504	FrequentVariableSOA	1566	n/a	n/a	1
654.0700000000	n/a	654070	FrequentVariableSOA	1783	n/a	n/a	1
655.8540000000	n/a	655854	FrequentVariableSOA	1650	n/a	n/a	1
657.5040000000	n/a	657504	FrequentVariableSOA	1766	n/a	n/a	1
659.2700000000	n/a	659270	GoVariableSOA	667	n/a	n/a	1
660.8870000000	n/a	660887	FrequentVariableSOA	1750	n/a	n/a	1
662.6370000000	n/a	662637	FrequentVariableSOA	1633	n/a	n/a	1
664.2700000000	n/a	664270	FrequentVariableSOA	1616	n/a	n/a	1
665.8870000000	n/a	665887	FrequentVariableSOA	1783	n/a	n/a	1
667.6700000000	n/a	667670	FrequentVariableSOA	1650	n/a	n/a	1
669.3200000000	n/a	669320	NovelVariableSOA	1533	n/a	n/a	1
670.8540000000	n/a	670854	FrequentVariableSOA	1550	n/a	n/a	1
672.4040000000	n/a	672404	GoVariableSOA	426	n/a	n/a	1
674.0700000000	n/a	674070	FrequentVariableSOA	1733	n/a	n/a	1
675.8040000000	n/a	675804	FrequentVariableSOA	1550	n/a	n/a	1
677.3540000000	n/a	677354	FrequentVariableSOA	1733	n/a	n/a	1
679.0870000000	n/a	679087	FrequentVariableSOA	1666	n/a	n/a	1
680.7540000000	n/a	680754	FrequentVariableSOA	1566	n/a	n/a	1
682.3200000000	n/a	682320	FrequentVariableSOA	1783	n/a	n/a	1
684.1040000000	n/a	684104	FrequentVariableSOA	1633	n/a	n/a	1
685.7370000000	n/a	685737	FrequentVariableSOA	1766	n/a	n/a	1
687.5040000000	n/a	687504	NovelVariableSOA	1666	n/a	n/a	1
689.1700000000	n/a	689170	FrequentVariableSOA	1616	n/a	n/a	1
690.7870000000	n/a	690787	FrequentVariableSOA	1783	n/a	n/a	1
692.5700000000	n/a	692570	GoFixedSOA	470	n/a	n/a	1
694.2040000000	n/a	694204	FrequentFixedSOA	1633	n/a	n/a	1
695.8370000000	n/a	695837	FrequentFixedSOA	1633	n/a	n/a	1
697.4700000000	n/a	697470	FrequentFixedSOA	1633	n/a	n/a	1
699.1040000000	n/a	699104	GoFixedSOA	1633	n/a	n/a	0
700.7370000000	n/a	700737	FrequentFixedSOA	1633	n/a	n/a	1
702.3700000000	n/a	702370	FrequentFixedSOA	1633	n/a	n/a	1
704.0040000000	n/a	704004	FrequentFixedSOA	1633	n/a	n/a	1
705.6370000000	n/a	705637	FrequentFixedSOA	1633	n/a	n/a	1
707.2700000000	n/a	707270	GoFixedSOA	434	n/a	n/a	1
708.9040000000	n/a	708904	FrequentFixedSOA	1633	n/a	n/a	1
710.5370000000	n/a	710537	FrequentFixedSOA	1633	n/a	n/a	1
712.1700000000	n/a	712170	NovelFixedSOA	1633	n/a	n/a	1
713.8040000000	n/a	713804	FrequentFixedSOA	1633	n/a	n/a	1
715.4370000000	n/a	715437	FrequentFixedSOA	1633	n/a	n/a	1
717.0700000000	n/a	717070	GoFixedSOA	605	n/a	n/a	1
718.7040000000	n/a	718704	FrequentFixedSOA	1633	n/a	n/a	1
720.3370000000	n/a	720337	FrequentFixedSOA	1633	n/a	n/a	1
721.9700000000	n/a	721970	FrequentFixedSOA	1633	n/a	n/a	1
723.6040000000	n/a	723604	NovelFixedSOA	1633	n/a	n/a	1
725.2370000000	n/a	725237	FrequentFixedSOA	1633	n/a	n/a	1
726.8700000000	n/a	726870	NovelFixedSOA	1633	n/a	n/a	1
728.5040000000	n/a	728504	FrequentFixedSOA	1633	n/a	n/a	1
730.1370000000	n/a	730137	FrequentFixedSOA	1633	n/a	n/a	1
731.7700000000	n/a	731770	FrequentFixedSOA	1633	n/a	n/a	1
733.4040000000	n/a	733404	GoFixedSOA	743	n/a	n/a	1
735.0370000000	n/a	735037	FrequentFixedSOA	1633	n/a	n/a	1
736.6700000000	n/a	736670	FrequentFixedSOA	1633	n/a	n/a	1
738.3040000000	n/a	738304	FrequentFixedSOA	1633	n/a	n/a	1
739.9370000000	n/a	739937	GoFixedSOA	408	n/a	n/a	1
741.5700000000	n/a	741570	FrequentFixedSOA	1633	n/a	n/a	1
743.2040000000	n/a	743204	FrequentFixedSOA	1633	n/a	n/a	1
744.8370000000	n/a	744837	NovelFixedSOA	1633	n/a	n/a	1
746.4700000000	n/a	746470	FrequentFixedSOA	1633	n/a	n/a	1
748.1040000000	n/a	748104	GoFixedSOA	373	n/a	n/a	1
749.7370000000	n/a	749737	FrequentFixedSOA	1633	n/a	n/a	1
751.3700000000	n/a	751370	FrequentFixedSOA	1633	n/a	n/a	1
753.0040000000	n/a	753004	FrequentFixedSOA	1633	n/a	n/a	1
754.6370000000	n/a	754637	FrequentFixedSOA	1633	n/a	n/a	1
756.2700000000	n/a	756270	FrequentFixedSOA	1633	n/a	n/a	1
757.9040000000	n/a	757904	FrequentFixedSOA	1633	n/a	n/a	1
759.5370000000	n/a	759537	NovelFixedSOA	1633	n/a	n/a	1
761.1700000000	n/a	761170	FrequentFixedSOA	1633	n/a	n/a	1
762.8040000000	n/a	762804	FrequentFixedSOA	1633	n/a	n/a	1
764.4370000000	n/a	764437	FrequentFixedSOA	1633	n/a	n/a	1
766.0700000000	n/a	766070	GoFixedSOA	1633	n/a	n/a	0
767.7040000000	n/a	767704	FrequentFixedSOA	1633	n/a	n/a	1
769.3370000000	n/a	769337	FrequentFixedSOA	1633	n/a	n/a	1
770.9700000000	n/a	770970	FrequentFixedSOA	1633	n/a	n/a	1
772.6040000000	n/a	772604	FrequentFixedSOA	1633	n/a	n/a	1
774.2370000000	n/a	774237	NovelFixedSOA	1633	n/a	n/a	1
775.8700000000	n/a	775870	FrequentFixedSOA	1633	n/a	n/a	1
777.5030000000	n/a	777503	FrequentFixedSOA	1633	n/a	n/a	1
779.1370000000	n/a	779137	NovelFixedSOA	1633	n/a	n/a	1
780.7700000000	n/a	780770	FrequentFixedSOA	1633	n/a	n/a	1
782.4030000000	n/a	782403	NovelFixedSOA	1633	n/a	n/a	1
784.0370000000	n/a	784037	FrequentFixedSOA	1633	n/a	n/a	1
785.6700000000	n/a	785670	FrequentFixedSOA	1633	n/a	n/a	1
787.3030000000	n/a	787303	FrequentFixedSOA	1633	n/a	n/a	1
788.9370000000	n/a	788937	FrequentFixedSOA	1633	n/a	n/a	1
790.5700000000	n/a	790570	FrequentFixedSOA	1633	n/a	n/a	1
792.2030000000	n/a	792203	FrequentFixedSOA	1633	n/a	n/a	1
793.8370000000	n/a	793837	FrequentFixedSOA	1633	n/a	n/a	1
795.4700000000	n/a	795470	GoFixedSOA	402	n/a	n/a	1
797.1030000000	n/a	797103	FrequentFixedSOA	1633	n/a	n/a	1
798.7370000000	n/a	798737	GoFixedSOA	573	n/a	n/a	1
800.3700000000	n/a	800370	FrequentFixedSOA	1633	n/a	n/a	1
802.0030000000	n/a	802003	FrequentFixedSOA	1633	n/a	n/a	1
803.6370000000	n/a	803637	NovelFixedSOA	1633	n/a	n/a	1
805.2700000000	n/a	805270	FrequentFixedSOA	1633	n/a	n/a	1
806.9030000000	n/a	806903	GoVariableSOA	437	n/a	n/a	1
808.5870000000	n/a	808587	FrequentVariableSOA	1700	n/a	n/a	1
810.2870000000	n/a	810287	FrequentVariableSOA	1516	n/a	n/a	1
811.8030000000	n/a	811803	FrequentVariableSOA	1616	n/a	n/a	1
813.4200000000	n/a	813420	GoVariableSOA	486	n/a	n/a	1
815.2030000000	n/a	815203	FrequentVariableSOA	1550	n/a	n/a	1
816.7530000000	n/a	816753	FrequentVariableSOA	1600	n/a	n/a	1
818.3530000000	n/a	818353	FrequentVariableSOA	1566	n/a	n/a	1
819.9200000000	n/a	819920	FrequentVariableSOA	1500	n/a	n/a	1
821.4200000000	n/a	821420	GoVariableSOA	536	n/a	n/a	1
822.9200000000	n/a	822920	FrequentVariableSOA	1550	n/a	n/a	1
824.4700000000	n/a	824470	FrequentVariableSOA	1716	n/a	n/a	1
826.1870000000	n/a	826187	NovelVariableSOA	1583	n/a	n/a	1
827.7700000000	n/a	827770	FrequentVariableSOA	1683	n/a	n/a	1
829.4530000000	n/a	829453	FrequentVariableSOA	1666	n/a	n/a	1
831.1200000000	n/a	831120	GoVariableSOA	1733	n/a	n/a	0
832.8530000000	n/a	832853	FrequentVariableSOA	1533	n/a	n/a	1
834.3870000000	n/a	834387	FrequentVariableSOA	1716	n/a	n/a	1
836.1030000000	n/a	836103	FrequentVariableSOA	1766	n/a	n/a	1
837.8700000000	n/a	837870	NovelVariableSOA	1566	n/a	n/a	1
839.4370000000	n/a	839437	FrequentVariableSOA	1616	n/a	n/a	1
841.0530000000	n/a	841053	NovelVariableSOA	1633	n/a	n/a	1
842.6870000000	n/a	842687	FrequentVariableSOA	1700	n/a	n/a	1
844.3870000000	n/a	844387	FrequentVariableSOA	1750	n/a	n/a	1
846.1370000000	n/a	846137	FrequentVariableSOA	1633	n/a	n/a	1
847.7700000000	n/a	847770	GoVariableSOA	440	n/a	n/a	1
849.4870000000	n/a	849487	FrequentVariableSOA	1616	n/a	n/a	1
851.1030000000	n/a	851103	FrequentVariableSOA	1500	n/a	n/a	1
852.6030000000	n/a	852603	FrequentVariableSOA	1666	n/a	n/a	1
854.2700000000	n/a	854270	GoVariableSOA	533	n/a	n/a	1
856.0200000000	n/a	856020	FrequentVariableSOA	1600	n/a	n/a	1
857.6200000000	n/a	857620	FrequentVariableSOA	1666	n/a	n/a	1
859.2870000000	n/a	859287	NovelVariableSOA	1733	n/a	n/a	1
861.0200000000	n/a	861020	FrequentVariableSOA	1516	n/a	n/a	1
862.5370000000	n/a	862537	GoVariableSOA	400	n/a	n/a	1
864.1200000000	n/a	864120	FrequentVariableSOA	1533	n/a	n/a	1
865.6530000000	n/a	865653	FrequentVariableSOA	1516	n/a	n/a	1
867.1700000000	n/a	867170	FrequentVariableSOA	1500	n/a	n/a	1
868.6700000000	n/a	868670	FrequentVariableSOA	1566	n/a	n/a	1
870.2370000000	n/a	870237	FrequentVariableSOA	1550	n/a	n/a	1
871.7870000000	n/a	871787	FrequentVariableSOA	1633	n/a	n/a	1
873.4200000000	n/a	873420	NovelVariableSOA	1750	n/a	n/a	1
875.1700000000	n/a	875170	FrequentVariableSOA	1700	n/a	n/a	1
876.8700000000	n/a	876870	FrequentVariableSOA	1716	n/a	n/a	1
878.5870000000	n/a	878587	FrequentVariableSOA	1600	n/a	n/a	1
880.1870000000	n/a	880187	GoVariableSOA	339	n/a	n/a	1
881.9200000000	n/a	881920	FrequentVariableSOA	1566	n/a	n/a	1
883.4870000000	n/a	883487	FrequentVariableSOA	1716	n/a	n/a	1
885.2030000000	n/a	885203	FrequentVariableSOA	1616	n/a	n/a	1
886.8200000000	n/a	886820	FrequentVariableSOA	1700	n/a	n/a	1
888.5200000000	n/a	888520	NovelVariableSOA	1716	n/a	n/a	1
890.2370000000	n/a	890237	FrequentVariableSOA	1766	n/a	n/a	1
892.0030000000	n/a	892003	FrequentVariableSOA	1683	n/a	n/a	1
893.6870000000	n/a	893687	NovelVariableSOA	1600	n/a	n/a	1
895.2870000000	n/a	895287	FrequentVariableSOA	1666	n/a	n/a	1
896.9530000000	n/a	896953	NovelVariableSOA	1750	n/a	n/a	1
898.7030000000	n/a	898703	FrequentVariableSOA	1733	n/a	n/a	1
900.4370000000	n/a	900437	FrequentVariableSOA	1516	n/a	n/a	1
901.9530000000	n/a	901953	FrequentVariableSOA	1600	n/a	n/a	1
903.5530000000	n/a	903553	FrequentVariableSOA	1600	n/a	n/a	1
905.1530000000	n/a	905153	FrequentVariableSOA	1766	n/a	n/a	1
906.9200000000	n/a	906920	FrequentVariableSOA	1716	n/a	n/a	1
908.6370000000	n/a	908637	FrequentVariableSOA	1616	n/a	n/a	1
910.2530000000	n/a	910253	GoVariableSOA	404	n/a	n/a	1
912.0030000000	n/a	912003	FrequentVariableSOA	1683	n/a	n/a	1
913.6870000000	n/a	913687	GoVariableSOA	505	n/a	n/a	1
915.2700000000	n/a	915270	FrequentVariableSOA	1616	n/a	n/a	1
916.8870000000	n/a	916887	FrequentVariableSOA	1600	n/a	n/a	1
918.4870000000	n/a	918487	NovelVariableSOA	1500	n/a	n/a	1
919.9870000000	n/a	919987	FrequentVariableSOA	1566	n/a	n/a	1
