onset	duration	sample	trial_type	response_time	stim_file	value	correct
5.7720000000	n/a	5772	ignore	n/a	n/a	n/a	n/a
8.8720000000	n/a	8872	ignore	n/a	n/a	n/a	n/a
11.8850000000	n/a	11885	ignore	n/a	n/a	n/a	n/a
28.9550000000	n/a	28955	ignore	n/a	n/a	n/a	n/a
32.0550000000	n/a	32055	ignore	n/a	n/a	n/a	n/a
35.0420000000	n/a	35042	ignore	n/a	n/a	n/a	n/a
51.6720000000	n/a	51672	PosStim	n/a	n/a	n/a	n/a
54.7050000000	n/a	54705	PosNonAlcStimWithoutStartle	n/a	n/a	n/a	n/a
71.5720000000	n/a	71572	NegStim	n/a	n/a	n/a	n/a
74.6050000000	n/a	74605	NegNonAlcStimWithoutStartle	n/a	n/a	n/a	n/a
88.1890000000	n/a	88189	NeuStim	n/a	n/a	n/a	n/a
91.2890000000	n/a	91289	NeuNonAlcP2000	n/a	n/a	n/a	n/a
95.2760000000	n/a	95276	NeuNonAlcP2000	n/a	n/a	n/a	n/a
104.7720000000	n/a	104772	NegStim	n/a	n/a	n/a	n/a
107.8720000000	n/a	107872	NegAlcP2000	n/a	n/a	n/a	n/a
111.8590000000	n/a	111859	NegAlcP2000	n/a	n/a	n/a	n/a
121.8550000000	n/a	121855	NeuStim	n/a	n/a	n/a	n/a
124.8880000000	n/a	124888	NeuAlcStimWithoutStartle	n/a	n/a	n/a	n/a
140.2380000000	n/a	140238	PosStim	n/a	n/a	n/a	n/a
143.3380000000	n/a	143338	PosAlcP1000	n/a	n/a	n/a	n/a
148.3260000000	n/a	148326	PosAlcP1000	n/a	n/a	n/a	n/a
157.7050000000	n/a	157705	NeuStim	n/a	n/a	n/a	n/a
160.8050000000	n/a	160805	NeuAlcP2000	n/a	n/a	n/a	n/a
164.7920000000	n/a	164792	NeuAlcP2000	n/a	n/a	n/a	n/a
175.5720000000	n/a	175572	NegStim	n/a	n/a	n/a	n/a
178.6720000000	n/a	178672	NegAlcP3000	n/a	n/a	n/a	n/a
181.6590000000	n/a	181659	NegAlcP3000	n/a	n/a	n/a	n/a
193.7220000000	n/a	193722	PosStim	n/a	n/a	n/a	n/a
196.7550000000	n/a	196755	PosNonAlcStimWithoutStartle	n/a	n/a	n/a	n/a
211.4880000000	n/a	211488	NeuStim	n/a	n/a	n/a	n/a
214.5880000000	n/a	214588	NeuAlcP1000	n/a	n/a	n/a	n/a
219.5750000000	n/a	219575	NeuAlcP1000	n/a	n/a	n/a	n/a
231.5050000000	n/a	231505	NegStim	n/a	n/a	n/a	n/a
234.6050000000	n/a	234605	NegNonAlcP3000	n/a	n/a	n/a	n/a
237.5920000000	n/a	237592	NegNonAlcP3000	n/a	n/a	n/a	n/a
250.2550000000	n/a	250255	PosStim	n/a	n/a	n/a	n/a
253.3550000000	n/a	253355	PosAlcP2000	n/a	n/a	n/a	n/a
257.3420000000	n/a	257342	PosAlcP2000	n/a	n/a	n/a	n/a
267.7220000000	n/a	267722	NegStim	n/a	n/a	n/a	n/a
270.7550000000	n/a	270755	NegNonAlcStimWithoutStartle	n/a	n/a	n/a	n/a
286.3880000000	n/a	286388	PosStim	n/a	n/a	n/a	n/a
289.4220000000	n/a	289422	PosAlcStimWithoutStartle	n/a	n/a	n/a	n/a
304.5550000000	n/a	304555	NeuStim	n/a	n/a	n/a	n/a
307.6550000000	n/a	307655	NeuNonAlcP3000	n/a	n/a	n/a	n/a
310.6420000000	n/a	310642	NeuNonAlcP3000	n/a	n/a	n/a	n/a
321.2220000000	n/a	321222	NegStim	n/a	n/a	n/a	n/a
324.3220000000	n/a	324322	NegAlcP1000	n/a	n/a	n/a	n/a
329.3090000000	n/a	329309	NegAlcP1000	n/a	n/a	n/a	n/a
341.1050000000	n/a	341105	NeuStim	n/a	n/a	n/a	n/a
344.2050000000	n/a	344205	NeuAlcP3000	n/a	n/a	n/a	n/a
347.1920000000	n/a	347192	NeuAlcP3000	n/a	n/a	n/a	n/a
358.5550000000	n/a	358555	PosStim	n/a	n/a	n/a	n/a
361.6550000000	n/a	361655	PosAlcP3000	n/a	n/a	n/a	n/a
364.6420000000	n/a	364642	PosAlcP3000	n/a	n/a	n/a	n/a
375.4380000000	n/a	375438	NeuStim	n/a	n/a	n/a	n/a
378.4710000000	n/a	378471	NeuAlcStimWithoutStartle	n/a	n/a	n/a	n/a
393.9050000000	n/a	393905	NegStim	n/a	n/a	n/a	n/a
397.0050000000	n/a	397005	NegAlcP1000	n/a	n/a	n/a	n/a
401.9920000000	n/a	401992	NegAlcP1000	n/a	n/a	n/a	n/a
412.6710000000	n/a	412671	NeuStim	n/a	n/a	n/a	n/a
415.7710000000	n/a	415771	NeuNonAlcP3000	n/a	n/a	n/a	n/a
418.7580000000	n/a	418758	NeuNonAlcP3000	n/a	n/a	n/a	n/a
429.9050000000	n/a	429905	NegStim	n/a	n/a	n/a	n/a
433.0050000000	n/a	433005	NegNonAlcP2000	n/a	n/a	n/a	n/a
436.9920000000	n/a	436992	NegNonAlcP2000	n/a	n/a	n/a	n/a
447.9550000000	n/a	447955	PosStim	n/a	n/a	n/a	n/a
450.9880000000	n/a	450988	PosNonAlcStimWithoutStartle	n/a	n/a	n/a	n/a
464.0380000000	n/a	464038	NeuStim	n/a	n/a	n/a	n/a
467.0710000000	n/a	467071	NeuNonAlcStimWithoutStartle	n/a	n/a	n/a	n/a
482.6880000000	n/a	482688	PosStim	n/a	n/a	n/a	n/a
485.7880000000	n/a	485788	PosNonAlcP1000	n/a	n/a	n/a	n/a
490.7750000000	n/a	490775	PosNonAlcP1000	n/a	n/a	n/a	n/a
501.2710000000	n/a	501271	NegStim	n/a	n/a	n/a	n/a
504.3050000000	n/a	504305	NegAlcStimWithoutStartle	n/a	n/a	n/a	n/a
520.3880000000	n/a	520388	NeuStim	n/a	n/a	n/a	n/a
523.4880000000	n/a	523488	NeuAlcP2000	n/a	n/a	n/a	n/a
527.4750000000	n/a	527475	NeuAlcP2000	n/a	n/a	n/a	n/a
538.7710000000	n/a	538771	PosStim	n/a	n/a	n/a	n/a
541.8710000000	n/a	541871	PosNonAlcP1000	n/a	n/a	n/a	n/a
546.8580000000	n/a	546858	PosNonAlcP1000	n/a	n/a	n/a	n/a
557.9550000000	n/a	557955	NeuStim	n/a	n/a	n/a	n/a
561.0550000000	n/a	561055	NeuNonAlcP1000	n/a	n/a	n/a	n/a
566.0420000000	n/a	566042	NeuNonAlcP1000	n/a	n/a	n/a	n/a
577.1380000000	n/a	577138	PosStim	n/a	n/a	n/a	n/a
580.1710000000	n/a	580171	PosNonAlcStimWithoutStartle	n/a	n/a	n/a	n/a
594.5880000000	n/a	594588	NegStim	n/a	n/a	n/a	n/a
597.6880000000	n/a	597688	NegAlcP2000	n/a	n/a	n/a	n/a
601.6750000000	n/a	601675	NegAlcP2000	n/a	n/a	n/a	n/a
611.3880000000	n/a	611388	NeuStim	n/a	n/a	n/a	n/a
614.4880000000	n/a	614488	NeuAlcP3000	n/a	n/a	n/a	n/a
617.4750000000	n/a	617475	NeuAlcP3000	n/a	n/a	n/a	n/a
629.4710000000	n/a	629471	NegStim	n/a	n/a	n/a	n/a
632.5040000000	n/a	632504	NegAlcStimWithoutStartle	n/a	n/a	n/a	n/a
646.4880000000	n/a	646488	NeuStim	n/a	n/a	n/a	n/a
649.5880000000	n/a	649588	NeuNonAlcP2000	n/a	n/a	n/a	n/a
653.5750000000	n/a	653575	NeuNonAlcP2000	n/a	n/a	n/a	n/a
663.6040000000	n/a	663604	PosStim	n/a	n/a	n/a	n/a
666.7040000000	n/a	666704	PosNonAlcP3000	n/a	n/a	n/a	n/a
669.6910000000	n/a	669691	PosNonAlcP3000	n/a	n/a	n/a	n/a
682.1710000000	n/a	682171	NegStim	n/a	n/a	n/a	n/a
685.2710000000	n/a	685271	NegAlcP3000	n/a	n/a	n/a	n/a
688.2580000000	n/a	688258	NegAlcP3000	n/a	n/a	n/a	n/a
699.8710000000	n/a	699871	PosStim	n/a	n/a	n/a	n/a
702.9040000000	n/a	702904	PosAlcStimWithoutStartle	n/a	n/a	n/a	n/a
719.7710000000	n/a	719771	NegStim	n/a	n/a	n/a	n/a
722.8710000000	n/a	722871	NegAlcP1000	n/a	n/a	n/a	n/a
727.8580000000	n/a	727858	NegAlcP1000	n/a	n/a	n/a	n/a
737.3540000000	n/a	737354	PosStim	n/a	n/a	n/a	n/a
740.3880000000	n/a	740388	PosAlcStimWithoutStartle	n/a	n/a	n/a	n/a
756.2040000000	n/a	756204	NegStim	n/a	n/a	n/a	n/a
759.3040000000	n/a	759304	NegNonAlcP2000	n/a	n/a	n/a	n/a
763.2910000000	n/a	763291	NegNonAlcP2000	n/a	n/a	n/a	n/a
776.1210000000	n/a	776121	PosStim	n/a	n/a	n/a	n/a
779.2210000000	n/a	779221	PosAlcP2000	n/a	n/a	n/a	n/a
783.2080000000	n/a	783208	PosAlcP2000	n/a	n/a	n/a	n/a
793.7710000000	n/a	793771	NeuStim	n/a	n/a	n/a	n/a
796.8040000000	n/a	796804	NeuNonAlcStimWithoutStartle	n/a	n/a	n/a	n/a
810.7210000000	n/a	810721	PosStim	n/a	n/a	n/a	n/a
813.8210000000	n/a	813821	PosNonAlcP2000	n/a	n/a	n/a	n/a
817.8080000000	n/a	817808	PosNonAlcP2000	n/a	n/a	n/a	n/a
829.7880000000	n/a	829788	NegStim	n/a	n/a	n/a	n/a
832.8210000000	n/a	832821	NegAlcStimWithoutStartle	n/a	n/a	n/a	n/a
846.4880000000	n/a	846488	PosStim	n/a	n/a	n/a	n/a
849.5880000000	n/a	849588	PosAlcP3000	n/a	n/a	n/a	n/a
852.5750000000	n/a	852575	PosAlcP3000	n/a	n/a	n/a	n/a
863.5210000000	n/a	863521	PosStim	n/a	n/a	n/a	n/a
866.6210000000	n/a	866621	PosNonAlcP3000	n/a	n/a	n/a	n/a
869.6080000000	n/a	869608	PosNonAlcP3000	n/a	n/a	n/a	n/a
883.0710000000	n/a	883071	NeuStim	n/a	n/a	n/a	n/a
886.1040000000	n/a	886104	NeuNonAlcStimWithoutStartle	n/a	n/a	n/a	n/a
900.9210000000	n/a	900921	NeuStim	n/a	n/a	n/a	n/a
904.0210000000	n/a	904021	NeuNonAlcP3000	n/a	n/a	n/a	n/a
907.0080000000	n/a	907008	NeuNonAlcP3000	n/a	n/a	n/a	n/a
920.6870000000	n/a	920687	PosStim	n/a	n/a	n/a	n/a
923.7870000000	n/a	923787	PosAlcP2000	n/a	n/a	n/a	n/a
927.7740000000	n/a	927774	PosAlcP2000	n/a	n/a	n/a	n/a
937.4040000000	n/a	937404	NegStim	n/a	n/a	n/a	n/a
940.5040000000	n/a	940504	NegAlcP1000	n/a	n/a	n/a	n/a
945.4910000000	n/a	945491	NegAlcP1000	n/a	n/a	n/a	n/a
953.6210000000	n/a	953621	PosStim	n/a	n/a	n/a	n/a
956.7210000000	n/a	956721	PosNonAlcP2000	n/a	n/a	n/a	n/a
960.7080000000	n/a	960708	PosNonAlcP2000	n/a	n/a	n/a	n/a
973.4040000000	n/a	973404	NeuStim	n/a	n/a	n/a	n/a
976.4370000000	n/a	976437	NeuNonAlcStimWithoutStartle	n/a	n/a	n/a	n/a
990.9370000000	n/a	990937	NegStim	n/a	n/a	n/a	n/a
994.0370000000	n/a	994037	NegAlcP2000	n/a	n/a	n/a	n/a
998.0240000000	n/a	998024	NegAlcP2000	n/a	n/a	n/a	n/a
1011.0210000000	n/a	1011021	PosStim	n/a	n/a	n/a	n/a
1014.1210000000	n/a	1014121	PosAlcP3000	n/a	n/a	n/a	n/a
1017.1080000000	n/a	1017108	PosAlcP3000	n/a	n/a	n/a	n/a
1029.1370000000	n/a	1029137	NeuStim	n/a	n/a	n/a	n/a
1032.1710000000	n/a	1032171	NeuAlcStimWithoutStartle	n/a	n/a	n/a	n/a
1046.7540000000	n/a	1046754	NegStim	n/a	n/a	n/a	n/a
1049.8540000000	n/a	1049854	NegNonAlcP3000	n/a	n/a	n/a	n/a
1052.8410000000	n/a	1052841	NegNonAlcP3000	n/a	n/a	n/a	n/a
