onset	duration	sample	trial_type	response_time	stim_file	value	correct
3.7990000000	n/a	3799	FrequentFixedSOA	648	n/a	n/a	0
5.4320000000	n/a	5432	FrequentFixedSOA	283	n/a	n/a	0
7.0650000000	n/a	7065	FrequentFixedSOA	1633	n/a	n/a	1
8.6990000000	n/a	8699	FrequentFixedSOA	1633	n/a	n/a	1
10.3320000000	n/a	10332	FrequentFixedSOA	1633	n/a	n/a	1
11.9650000000	n/a	11965	FrequentFixedSOA	1633	n/a	n/a	1
13.5990000000	n/a	13599	FrequentFixedSOA	1633	n/a	n/a	1
15.2320000000	n/a	15232	FrequentFixedSOA	1633	n/a	n/a	1
16.8650000000	n/a	16865	FrequentFixedSOA	1633	n/a	n/a	1
18.4990000000	n/a	18499	FrequentFixedSOA	1633	n/a	n/a	1
20.1320000000	n/a	20132	NovelFixedSOA	1633	n/a	n/a	1
21.7650000000	n/a	21765	FrequentFixedSOA	1633	n/a	n/a	1
23.3980000000	n/a	23398	GoFixedSOA	527	n/a	n/a	1
25.0320000000	n/a	25032	FrequentFixedSOA	1633	n/a	n/a	1
26.6650000000	n/a	26665	FrequentFixedSOA	1633	n/a	n/a	1
28.2980000000	n/a	28298	FrequentFixedSOA	1633	n/a	n/a	1
29.9320000000	n/a	29932	GoFixedSOA	365	n/a	n/a	1
31.5650000000	n/a	31565	FrequentFixedSOA	1633	n/a	n/a	1
33.1980000000	n/a	33198	FrequentFixedSOA	1633	n/a	n/a	1
34.8320000000	n/a	34832	FrequentFixedSOA	1633	n/a	n/a	1
36.4650000000	n/a	36465	NovelFixedSOA	1633	n/a	n/a	1
38.0980000000	n/a	38098	FrequentFixedSOA	1633	n/a	n/a	1
39.7320000000	n/a	39732	FrequentFixedSOA	1633	n/a	n/a	1
41.3650000000	n/a	41365	FrequentFixedSOA	1633	n/a	n/a	1
42.9980000000	n/a	42998	GoFixedSOA	377	n/a	n/a	1
44.6320000000	n/a	44632	FrequentFixedSOA	1633	n/a	n/a	1
46.2650000000	n/a	46265	NovelFixedSOA	1633	n/a	n/a	1
47.8980000000	n/a	47898	FrequentFixedSOA	1633	n/a	n/a	1
49.5320000000	n/a	49532	FrequentFixedSOA	1633	n/a	n/a	1
51.1650000000	n/a	51165	FrequentFixedSOA	1633	n/a	n/a	1
52.7980000000	n/a	52798	GoFixedSOA	487	n/a	n/a	1
54.4320000000	n/a	54432	FrequentFixedSOA	1633	n/a	n/a	1
56.0650000000	n/a	56065	GoFixedSOA	538	n/a	n/a	1
57.6980000000	n/a	57698	FrequentFixedSOA	1633	n/a	n/a	1
59.3320000000	n/a	59332	FrequentFixedSOA	1633	n/a	n/a	1
60.9650000000	n/a	60965	GoFixedSOA	407	n/a	n/a	1
62.5980000000	n/a	62598	FrequentFixedSOA	1633	n/a	n/a	1
64.2320000000	n/a	64232	FrequentFixedSOA	1633	n/a	n/a	1
65.8650000000	n/a	65865	FrequentFixedSOA	1633	n/a	n/a	1
67.4980000000	n/a	67498	FrequentFixedSOA	1633	n/a	n/a	1
69.1320000000	n/a	69132	NovelFixedSOA	1633	n/a	n/a	1
70.7650000000	n/a	70765	FrequentFixedSOA	1633	n/a	n/a	1
72.3980000000	n/a	72398	NovelFixedSOA	1633	n/a	n/a	1
74.0320000000	n/a	74032	FrequentFixedSOA	1633	n/a	n/a	1
75.6650000000	n/a	75665	FrequentFixedSOA	1633	n/a	n/a	1
77.2980000000	n/a	77298	GoFixedSOA	424	n/a	n/a	1
78.9320000000	n/a	78932	FrequentFixedSOA	1633	n/a	n/a	1
80.5650000000	n/a	80565	FrequentFixedSOA	1633	n/a	n/a	1
82.1980000000	n/a	82198	FrequentFixedSOA	1633	n/a	n/a	1
83.8320000000	n/a	83832	FrequentFixedSOA	1633	n/a	n/a	1
85.4650000000	n/a	85465	NovelFixedSOA	1633	n/a	n/a	1
87.0980000000	n/a	87098	FrequentFixedSOA	1633	n/a	n/a	1
88.7320000000	n/a	88732	FrequentFixedSOA	1633	n/a	n/a	1
90.3650000000	n/a	90365	FrequentFixedSOA	1633	n/a	n/a	1
91.9980000000	n/a	91998	FrequentFixedSOA	1633	n/a	n/a	1
93.6320000000	n/a	93632	GoFixedSOA	355	n/a	n/a	1
95.2650000000	n/a	95265	FrequentFixedSOA	1633	n/a	n/a	1
96.8980000000	n/a	96898	FrequentFixedSOA	1633	n/a	n/a	1
98.5320000000	n/a	98532	NovelFixedSOA	1633	n/a	n/a	1
100.1650000000	n/a	100165	FrequentFixedSOA	1633	n/a	n/a	1
101.7980000000	n/a	101798	FrequentFixedSOA	1633	n/a	n/a	1
103.4320000000	n/a	103432	GoFixedSOA	348	n/a	n/a	1
105.0650000000	n/a	105065	FrequentFixedSOA	1633	n/a	n/a	1
106.6980000000	n/a	106698	FrequentFixedSOA	1633	n/a	n/a	1
108.3320000000	n/a	108332	FrequentFixedSOA	1633	n/a	n/a	1
109.9650000000	n/a	109965	FrequentFixedSOA	1633	n/a	n/a	1
111.5980000000	n/a	111598	NovelFixedSOA	1633	n/a	n/a	1
113.2320000000	n/a	113232	FrequentFixedSOA	1633	n/a	n/a	1
114.8650000000	n/a	114865	FrequentFixedSOA	1633	n/a	n/a	1
116.4980000000	n/a	116498	GoFixedSOA	506	n/a	n/a	1
118.1320000000	n/a	118132	FrequentVariableSOA	1783	n/a	n/a	1
119.9150000000	n/a	119915	FrequentVariableSOA	1583	n/a	n/a	1
121.4980000000	n/a	121498	FrequentVariableSOA	1733	n/a	n/a	1
123.2320000000	n/a	123232	FrequentVariableSOA	1800	n/a	n/a	1
125.0320000000	n/a	125032	FrequentVariableSOA	1516	n/a	n/a	1
126.5480000000	n/a	126548	FrequentVariableSOA	1750	n/a	n/a	1
128.2980000000	n/a	128298	FrequentVariableSOA	1700	n/a	n/a	1
129.9980000000	n/a	129998	FrequentVariableSOA	1766	n/a	n/a	1
131.7650000000	n/a	131765	FrequentVariableSOA	1633	n/a	n/a	1
133.3980000000	n/a	133398	FrequentVariableSOA	1650	n/a	n/a	1
135.0480000000	n/a	135048	NovelVariableSOA	1583	n/a	n/a	1
136.6320000000	n/a	136632	FrequentVariableSOA	1500	n/a	n/a	1
138.1320000000	n/a	138132	GoVariableSOA	1583	n/a	n/a	0
139.7150000000	n/a	139715	FrequentVariableSOA	1550	n/a	n/a	1
141.2650000000	n/a	141265	FrequentVariableSOA	1516	n/a	n/a	1
142.7820000000	n/a	142782	FrequentVariableSOA	1766	n/a	n/a	1
144.5480000000	n/a	144548	GoVariableSOA	421	n/a	n/a	1
146.2480000000	n/a	146248	FrequentVariableSOA	1566	n/a	n/a	1
147.8150000000	n/a	147815	FrequentVariableSOA	1583	n/a	n/a	1
149.3980000000	n/a	149398	FrequentVariableSOA	1566	n/a	n/a	1
150.9650000000	n/a	150965	NovelVariableSOA	1633	n/a	n/a	1
152.5980000000	n/a	152598	FrequentVariableSOA	1666	n/a	n/a	1
154.2650000000	n/a	154265	FrequentVariableSOA	1683	n/a	n/a	1
155.9480000000	n/a	155948	FrequentVariableSOA	1516	n/a	n/a	1
157.4650000000	n/a	157465	GoVariableSOA	405	n/a	n/a	1
159.0320000000	n/a	159032	FrequentVariableSOA	1516	n/a	n/a	1
160.5480000000	n/a	160548	NovelVariableSOA	1716	n/a	n/a	1
162.2650000000	n/a	162265	FrequentVariableSOA	1783	n/a	n/a	1
164.0480000000	n/a	164048	FrequentVariableSOA	1566	n/a	n/a	1
165.6150000000	n/a	165615	FrequentVariableSOA	1683	n/a	n/a	1
167.2980000000	n/a	167298	GoVariableSOA	334	n/a	n/a	1
168.9480000000	n/a	168948	FrequentVariableSOA	1516	n/a	n/a	1
170.4650000000	n/a	170465	GoVariableSOA	454	n/a	n/a	1
172.2480000000	n/a	172248	FrequentVariableSOA	1533	n/a	n/a	1
173.7820000000	n/a	173782	FrequentVariableSOA	1783	n/a	n/a	1
175.5650000000	n/a	175565	GoVariableSOA	486	n/a	n/a	1
177.2980000000	n/a	177298	FrequentVariableSOA	1783	n/a	n/a	1
179.0820000000	n/a	179082	FrequentVariableSOA	1616	n/a	n/a	1
180.6980000000	n/a	180698	FrequentVariableSOA	1533	n/a	n/a	1
182.2320000000	n/a	182232	FrequentVariableSOA	1783	n/a	n/a	1
184.0150000000	n/a	184015	NovelVariableSOA	1500	n/a	n/a	1
185.5150000000	n/a	185515	FrequentVariableSOA	1800	n/a	n/a	1
187.3150000000	n/a	187315	NovelVariableSOA	1600	n/a	n/a	1
188.9150000000	n/a	188915	FrequentVariableSOA	1516	n/a	n/a	1
190.4320000000	n/a	190432	FrequentVariableSOA	1650	n/a	n/a	1
192.0820000000	n/a	192082	GoVariableSOA	408	n/a	n/a	1
193.5820000000	n/a	193582	FrequentVariableSOA	1533	n/a	n/a	1
195.1150000000	n/a	195115	FrequentVariableSOA	1550	n/a	n/a	1
196.6650000000	n/a	196665	FrequentVariableSOA	1783	n/a	n/a	1
198.4480000000	n/a	198448	FrequentVariableSOA	1666	n/a	n/a	1
200.1150000000	n/a	200115	NovelVariableSOA	1516	n/a	n/a	1
201.6320000000	n/a	201632	FrequentVariableSOA	1783	n/a	n/a	1
203.4150000000	n/a	203415	FrequentVariableSOA	1683	n/a	n/a	1
205.0980000000	n/a	205098	FrequentVariableSOA	1550	n/a	n/a	1
206.6480000000	n/a	206648	FrequentVariableSOA	1633	n/a	n/a	1
208.2820000000	n/a	208282	GoVariableSOA	466	n/a	n/a	1
209.8650000000	n/a	209865	FrequentVariableSOA	1633	n/a	n/a	1
211.4980000000	n/a	211498	FrequentVariableSOA	1566	n/a	n/a	1
213.0650000000	n/a	213065	NovelVariableSOA	1516	n/a	n/a	1
214.5820000000	n/a	214582	FrequentVariableSOA	1633	n/a	n/a	1
216.2150000000	n/a	216215	FrequentVariableSOA	1650	n/a	n/a	1
217.8650000000	n/a	217865	GoVariableSOA	459	n/a	n/a	1
219.6150000000	n/a	219615	FrequentVariableSOA	1700	n/a	n/a	1
221.3150000000	n/a	221315	FrequentVariableSOA	1616	n/a	n/a	1
222.9320000000	n/a	222932	FrequentVariableSOA	1600	n/a	n/a	1
224.5320000000	n/a	224532	FrequentVariableSOA	1550	n/a	n/a	1
226.0820000000	n/a	226082	NovelVariableSOA	1800	n/a	n/a	1
227.8820000000	n/a	227882	FrequentVariableSOA	1650	n/a	n/a	1
229.5320000000	n/a	229532	FrequentVariableSOA	1766	n/a	n/a	1
231.2980000000	n/a	231298	GoVariableSOA	459	n/a	n/a	1
233.0650000000	n/a	233065	FrequentFixedSOA	1633	n/a	n/a	1
234.6980000000	n/a	234698	FrequentFixedSOA	1633	n/a	n/a	1
236.3320000000	n/a	236332	FrequentFixedSOA	1633	n/a	n/a	1
237.9650000000	n/a	237965	GoFixedSOA	545	n/a	n/a	1
239.5980000000	n/a	239598	FrequentFixedSOA	1633	n/a	n/a	1
241.2320000000	n/a	241232	FrequentFixedSOA	1633	n/a	n/a	1
242.8650000000	n/a	242865	FrequentFixedSOA	1633	n/a	n/a	1
244.4980000000	n/a	244498	GoFixedSOA	405	n/a	n/a	1
246.1310000000	n/a	246131	FrequentFixedSOA	1633	n/a	n/a	1
247.7650000000	n/a	247765	FrequentFixedSOA	1633	n/a	n/a	1
249.3980000000	n/a	249398	FrequentFixedSOA	1633	n/a	n/a	1
251.0310000000	n/a	251031	NovelFixedSOA	1633	n/a	n/a	1
252.6650000000	n/a	252665	FrequentFixedSOA	1633	n/a	n/a	1
254.2980000000	n/a	254298	NovelFixedSOA	1633	n/a	n/a	1
255.9310000000	n/a	255931	FrequentFixedSOA	1633	n/a	n/a	1
257.5650000000	n/a	257565	FrequentFixedSOA	1633	n/a	n/a	1
259.1980000000	n/a	259198	NovelFixedSOA	1633	n/a	n/a	1
260.8310000000	n/a	260831	FrequentFixedSOA	1633	n/a	n/a	1
262.4650000000	n/a	262465	FrequentFixedSOA	1633	n/a	n/a	1
264.0980000000	n/a	264098	FrequentFixedSOA	1633	n/a	n/a	1
265.7310000000	n/a	265731	FrequentFixedSOA	1633	n/a	n/a	1
267.3650000000	n/a	267365	FrequentFixedSOA	1633	n/a	n/a	1
268.9980000000	n/a	268998	NovelFixedSOA	1633	n/a	n/a	1
270.6310000000	n/a	270631	FrequentFixedSOA	1633	n/a	n/a	1
272.2650000000	n/a	272265	FrequentFixedSOA	1633	n/a	n/a	1
273.8980000000	n/a	273898	FrequentFixedSOA	1633	n/a	n/a	1
275.5310000000	n/a	275531	FrequentFixedSOA	1633	n/a	n/a	1
277.1650000000	n/a	277165	FrequentFixedSOA	1633	n/a	n/a	1
278.7980000000	n/a	278798	GoFixedSOA	421	n/a	n/a	1
280.4310000000	n/a	280431	FrequentFixedSOA	1633	n/a	n/a	1
282.0650000000	n/a	282065	FrequentFixedSOA	1633	n/a	n/a	1
283.6980000000	n/a	283698	GoFixedSOA	1633	n/a	n/a	0
285.3310000000	n/a	285331	FrequentFixedSOA	1633	n/a	n/a	1
286.9650000000	n/a	286965	NovelFixedSOA	1633	n/a	n/a	1
288.5980000000	n/a	288598	FrequentFixedSOA	1633	n/a	n/a	1
290.2310000000	n/a	290231	GoFixedSOA	507	n/a	n/a	1
291.8650000000	n/a	291865	FrequentFixedSOA	1633	n/a	n/a	1
293.4980000000	n/a	293498	GoFixedSOA	483	n/a	n/a	1
295.1310000000	n/a	295131	FrequentFixedSOA	1633	n/a	n/a	1
296.7650000000	n/a	296765	FrequentFixedSOA	1633	n/a	n/a	1
298.3980000000	n/a	298398	FrequentFixedSOA	1633	n/a	n/a	1
300.0310000000	n/a	300031	FrequentFixedSOA	1633	n/a	n/a	1
301.6650000000	n/a	301665	GoFixedSOA	456	n/a	n/a	1
303.2980000000	n/a	303298	FrequentFixedSOA	1633	n/a	n/a	1
304.9310000000	n/a	304931	FrequentFixedSOA	1633	n/a	n/a	1
306.5650000000	n/a	306565	FrequentFixedSOA	1633	n/a	n/a	1
308.1980000000	n/a	308198	NovelFixedSOA	1633	n/a	n/a	1
309.8310000000	n/a	309831	FrequentFixedSOA	1633	n/a	n/a	1
311.4650000000	n/a	311465	FrequentFixedSOA	1633	n/a	n/a	1
313.0980000000	n/a	313098	FrequentFixedSOA	1633	n/a	n/a	1
314.7310000000	n/a	314731	FrequentFixedSOA	1633	n/a	n/a	1
316.3650000000	n/a	316365	NovelFixedSOA	1633	n/a	n/a	1
317.9980000000	n/a	317998	FrequentFixedSOA	1633	n/a	n/a	1
319.6310000000	n/a	319631	FrequentFixedSOA	1633	n/a	n/a	1
321.2650000000	n/a	321265	FrequentFixedSOA	1633	n/a	n/a	1
322.8980000000	n/a	322898	FrequentFixedSOA	1633	n/a	n/a	1
324.5310000000	n/a	324531	NovelFixedSOA	1633	n/a	n/a	1
326.1650000000	n/a	326165	FrequentFixedSOA	1633	n/a	n/a	1
327.7980000000	n/a	327798	FrequentFixedSOA	1633	n/a	n/a	1
329.4310000000	n/a	329431	GoFixedSOA	504	n/a	n/a	1
331.0650000000	n/a	331065	FrequentFixedSOA	1633	n/a	n/a	1
332.6980000000	n/a	332698	FrequentFixedSOA	1633	n/a	n/a	1
334.3310000000	n/a	334331	FrequentFixedSOA	1633	n/a	n/a	1
335.9650000000	n/a	335965	FrequentFixedSOA	1633	n/a	n/a	1
337.5980000000	n/a	337598	NovelFixedSOA	1633	n/a	n/a	1
339.2310000000	n/a	339231	FrequentFixedSOA	1633	n/a	n/a	1
340.8650000000	n/a	340865	FrequentFixedSOA	1633	n/a	n/a	1
342.4980000000	n/a	342498	FrequentFixedSOA	1633	n/a	n/a	1
344.1310000000	n/a	344131	FrequentFixedSOA	1633	n/a	n/a	1
345.7650000000	n/a	345765	FrequentFixedSOA	1633	n/a	n/a	1
347.3980000000	n/a	347398	FrequentVariableSOA	1533	n/a	n/a	1
348.9310000000	n/a	348931	FrequentVariableSOA	1800	n/a	n/a	1
350.7310000000	n/a	350731	FrequentVariableSOA	1716	n/a	n/a	1
352.4480000000	n/a	352448	GoVariableSOA	432	n/a	n/a	1
354.1650000000	n/a	354165	FrequentVariableSOA	1650	n/a	n/a	1
355.8150000000	n/a	355815	FrequentVariableSOA	1583	n/a	n/a	1
357.3980000000	n/a	357398	FrequentVariableSOA	1750	n/a	n/a	1
359.1480000000	n/a	359148	GoVariableSOA	565	n/a	n/a	1
360.7480000000	n/a	360748	FrequentVariableSOA	1683	n/a	n/a	1
362.4310000000	n/a	362431	FrequentVariableSOA	1716	n/a	n/a	1
364.1480000000	n/a	364148	FrequentVariableSOA	1616	n/a	n/a	1
365.7650000000	n/a	365765	NovelVariableSOA	1716	n/a	n/a	1
367.4810000000	n/a	367481	FrequentVariableSOA	1616	n/a	n/a	1
369.0980000000	n/a	369098	NovelVariableSOA	1650	n/a	n/a	1
370.7480000000	n/a	370748	FrequentVariableSOA	1733	n/a	n/a	1
372.4810000000	n/a	372481	FrequentVariableSOA	1783	n/a	n/a	1
374.2650000000	n/a	374265	NovelVariableSOA	1766	n/a	n/a	1
376.0310000000	n/a	376031	FrequentVariableSOA	1583	n/a	n/a	1
377.6150000000	n/a	377615	FrequentVariableSOA	1783	n/a	n/a	1
379.3980000000	n/a	379398	FrequentVariableSOA	1583	n/a	n/a	1
380.9810000000	n/a	380981	FrequentVariableSOA	1550	n/a	n/a	1
382.5310000000	n/a	382531	FrequentVariableSOA	1533	n/a	n/a	1
384.0650000000	n/a	384065	NovelVariableSOA	1733	n/a	n/a	1
385.7980000000	n/a	385798	FrequentVariableSOA	1500	n/a	n/a	1
387.2980000000	n/a	387298	FrequentVariableSOA	1633	n/a	n/a	1
388.9310000000	n/a	388931	FrequentVariableSOA	1683	n/a	n/a	1
390.6150000000	n/a	390615	FrequentVariableSOA	1616	n/a	n/a	1
392.2310000000	n/a	392231	FrequentVariableSOA	1616	n/a	n/a	1
393.8480000000	n/a	393848	GoVariableSOA	511	n/a	n/a	1
395.4650000000	n/a	395465	FrequentVariableSOA	1716	n/a	n/a	1
397.1810000000	n/a	397181	FrequentVariableSOA	1733	n/a	n/a	1
398.9150000000	n/a	398915	GoVariableSOA	476	n/a	n/a	1
400.7150000000	n/a	400715	FrequentVariableSOA	1516	n/a	n/a	1
402.2310000000	n/a	402231	NovelVariableSOA	1800	n/a	n/a	1
404.0310000000	n/a	404031	FrequentVariableSOA	1783	n/a	n/a	1
405.8150000000	n/a	405815	GoVariableSOA	373	n/a	n/a	1
407.5810000000	n/a	407581	FrequentVariableSOA	1650	n/a	n/a	1
409.2310000000	n/a	409231	GoVariableSOA	508	n/a	n/a	1
410.8980000000	n/a	410898	FrequentVariableSOA	1566	n/a	n/a	1
412.4650000000	n/a	412465	FrequentVariableSOA	1650	n/a	n/a	1
414.1150000000	n/a	414115	FrequentVariableSOA	1616	n/a	n/a	1
415.7310000000	n/a	415731	FrequentVariableSOA	1633	n/a	n/a	1
417.3650000000	n/a	417365	GoVariableSOA	449	n/a	n/a	1
419.0150000000	n/a	419015	FrequentVariableSOA	1650	n/a	n/a	1
420.6650000000	n/a	420665	FrequentVariableSOA	1683	n/a	n/a	1
422.3480000000	n/a	422348	FrequentVariableSOA	1583	n/a	n/a	1
423.9310000000	n/a	423931	NovelVariableSOA	1566	n/a	n/a	1
425.4980000000	n/a	425498	FrequentVariableSOA	1633	n/a	n/a	1
427.1310000000	n/a	427131	FrequentVariableSOA	1616	n/a	n/a	1
428.7480000000	n/a	428748	FrequentVariableSOA	1566	n/a	n/a	1
430.3150000000	n/a	430315	FrequentVariableSOA	1700	n/a	n/a	1
432.0150000000	n/a	432015	NovelVariableSOA	1700	n/a	n/a	1
433.7150000000	n/a	433715	FrequentVariableSOA	1533	n/a	n/a	1
435.2480000000	n/a	435248	FrequentVariableSOA	1500	n/a	n/a	1
436.7480000000	n/a	436748	FrequentVariableSOA	1750	n/a	n/a	1
438.4980000000	n/a	438498	FrequentVariableSOA	1516	n/a	n/a	1
440.0150000000	n/a	440015	NovelVariableSOA	1516	n/a	n/a	1
441.5310000000	n/a	441531	FrequentVariableSOA	1583	n/a	n/a	1
443.1150000000	n/a	443115	FrequentVariableSOA	1766	n/a	n/a	1
444.8810000000	n/a	444881	GoVariableSOA	490	n/a	n/a	1
446.4150000000	n/a	446415	FrequentVariableSOA	1566	n/a	n/a	1
447.9810000000	n/a	447981	FrequentVariableSOA	1650	n/a	n/a	1
449.6310000000	n/a	449631	FrequentVariableSOA	1566	n/a	n/a	1
451.1980000000	n/a	451198	FrequentVariableSOA	1583	n/a	n/a	1
452.7810000000	n/a	452781	NovelVariableSOA	1616	n/a	n/a	1
454.3980000000	n/a	454398	FrequentVariableSOA	1550	n/a	n/a	1
455.9480000000	n/a	455948	FrequentVariableSOA	1566	n/a	n/a	1
457.5150000000	n/a	457515	FrequentVariableSOA	1550	n/a	n/a	1
459.0650000000	n/a	459065	FrequentVariableSOA	1700	n/a	n/a	1
460.7650000000	n/a	460765	FrequentVariableSOA	1600	n/a	n/a	1
462.3650000000	n/a	462365	GoFixedSOA	573	n/a	n/a	1
463.9980000000	n/a	463998	FrequentFixedSOA	1633	n/a	n/a	1
465.6310000000	n/a	465631	FrequentFixedSOA	1633	n/a	n/a	1
467.2650000000	n/a	467265	FrequentFixedSOA	1633	n/a	n/a	1
468.8980000000	n/a	468898	FrequentFixedSOA	1633	n/a	n/a	1
470.5310000000	n/a	470531	FrequentFixedSOA	1633	n/a	n/a	1
472.1640000000	n/a	472164	FrequentFixedSOA	1633	n/a	n/a	1
473.7980000000	n/a	473798	NovelFixedSOA	1633	n/a	n/a	1
475.4310000000	n/a	475431	FrequentFixedSOA	1633	n/a	n/a	1
477.0640000000	n/a	477064	FrequentFixedSOA	1633	n/a	n/a	1
478.6980000000	n/a	478698	FrequentFixedSOA	1633	n/a	n/a	1
480.3310000000	n/a	480331	NovelFixedSOA	1633	n/a	n/a	1
481.9640000000	n/a	481964	FrequentFixedSOA	1633	n/a	n/a	1
483.5980000000	n/a	483598	GoFixedSOA	500	n/a	n/a	1
485.2310000000	n/a	485231	FrequentFixedSOA	1633	n/a	n/a	1
486.8640000000	n/a	486864	FrequentFixedSOA	1633	n/a	n/a	1
488.4980000000	n/a	488498	GoFixedSOA	499	n/a	n/a	1
490.1310000000	n/a	490131	FrequentFixedSOA	1633	n/a	n/a	1
491.7640000000	n/a	491764	NovelFixedSOA	1633	n/a	n/a	1
493.3980000000	n/a	493398	FrequentFixedSOA	1633	n/a	n/a	1
495.0310000000	n/a	495031	FrequentFixedSOA	1633	n/a	n/a	1
496.6640000000	n/a	496664	FrequentFixedSOA	1633	n/a	n/a	1
498.2980000000	n/a	498298	FrequentFixedSOA	1633	n/a	n/a	1
499.9310000000	n/a	499931	FrequentFixedSOA	1633	n/a	n/a	1
501.5640000000	n/a	501564	GoFixedSOA	314	n/a	n/a	1
503.1980000000	n/a	503198	FrequentFixedSOA	1633	n/a	n/a	1
504.8310000000	n/a	504831	FrequentFixedSOA	1633	n/a	n/a	1
506.4640000000	n/a	506464	NovelFixedSOA	1633	n/a	n/a	1
508.0980000000	n/a	508098	FrequentFixedSOA	1633	n/a	n/a	1
509.7310000000	n/a	509731	FrequentFixedSOA	1633	n/a	n/a	1
511.3640000000	n/a	511364	FrequentFixedSOA	1633	n/a	n/a	1
512.9980000000	n/a	512998	FrequentFixedSOA	1633	n/a	n/a	1
514.6310000000	n/a	514631	FrequentFixedSOA	1633	n/a	n/a	1
516.2640000000	n/a	516264	NovelFixedSOA	1633	n/a	n/a	1
517.8980000000	n/a	517898	FrequentFixedSOA	1633	n/a	n/a	1
519.5310000000	n/a	519531	FrequentFixedSOA	1633	n/a	n/a	1
521.1640000000	n/a	521164	FrequentFixedSOA	1633	n/a	n/a	1
522.7980000000	n/a	522798	FrequentFixedSOA	1633	n/a	n/a	1
524.4310000000	n/a	524431	GoFixedSOA	455	n/a	n/a	1
526.0640000000	n/a	526064	FrequentFixedSOA	1633	n/a	n/a	1
527.6980000000	n/a	527698	FrequentFixedSOA	1633	n/a	n/a	1
529.3310000000	n/a	529331	NovelFixedSOA	1633	n/a	n/a	1
530.9640000000	n/a	530964	FrequentFixedSOA	1633	n/a	n/a	1
532.5980000000	n/a	532598	FrequentFixedSOA	1633	n/a	n/a	1
534.2310000000	n/a	534231	NovelFixedSOA	1633	n/a	n/a	1
535.8640000000	n/a	535864	FrequentFixedSOA	1633	n/a	n/a	1
537.4980000000	n/a	537498	FrequentFixedSOA	1633	n/a	n/a	1
539.1310000000	n/a	539131	FrequentFixedSOA	1633	n/a	n/a	1
540.7640000000	n/a	540764	FrequentFixedSOA	1633	n/a	n/a	1
542.3980000000	n/a	542398	FrequentFixedSOA	1633	n/a	n/a	1
544.0310000000	n/a	544031	GoFixedSOA	478	n/a	n/a	1
545.6640000000	n/a	545664	FrequentFixedSOA	1633	n/a	n/a	1
547.2980000000	n/a	547298	FrequentFixedSOA	1633	n/a	n/a	1
548.9310000000	n/a	548931	FrequentFixedSOA	1633	n/a	n/a	1
550.5640000000	n/a	550564	FrequentFixedSOA	1633	n/a	n/a	1
552.1980000000	n/a	552198	FrequentFixedSOA	1633	n/a	n/a	1
553.8310000000	n/a	553831	NovelFixedSOA	1633	n/a	n/a	1
555.4640000000	n/a	555464	FrequentFixedSOA	1633	n/a	n/a	1
557.0980000000	n/a	557098	GoFixedSOA	518	n/a	n/a	1
558.7310000000	n/a	558731	FrequentFixedSOA	1633	n/a	n/a	1
560.3640000000	n/a	560364	FrequentFixedSOA	1633	n/a	n/a	1
561.9980000000	n/a	561998	FrequentFixedSOA	1633	n/a	n/a	1
563.6310000000	n/a	563631	FrequentFixedSOA	1633	n/a	n/a	1
565.2640000000	n/a	565264	FrequentFixedSOA	1633	n/a	n/a	1
566.8980000000	n/a	566898	FrequentFixedSOA	1633	n/a	n/a	1
568.5310000000	n/a	568531	FrequentFixedSOA	1633	n/a	n/a	1
570.1640000000	n/a	570164	FrequentFixedSOA	1633	n/a	n/a	1
571.7980000000	n/a	571798	NovelFixedSOA	1633	n/a	n/a	1
573.4310000000	n/a	573431	FrequentFixedSOA	1633	n/a	n/a	1
575.0640000000	n/a	575064	FrequentFixedSOA	1633	n/a	n/a	1
576.6980000000	n/a	576698	GoVariableSOA	449	n/a	n/a	1
578.2480000000	n/a	578248	FrequentVariableSOA	1550	n/a	n/a	1
579.7980000000	n/a	579798	FrequentVariableSOA	1533	n/a	n/a	1
581.3310000000	n/a	581331	FrequentVariableSOA	1650	n/a	n/a	1
582.9810000000	n/a	582981	FrequentVariableSOA	1783	n/a	n/a	1
584.7640000000	n/a	584764	FrequentVariableSOA	1766	n/a	n/a	1
586.5310000000	n/a	586531	FrequentVariableSOA	1600	n/a	n/a	1
588.1310000000	n/a	588131	NovelVariableSOA	1600	n/a	n/a	1
589.7310000000	n/a	589731	FrequentVariableSOA	1750	n/a	n/a	1
591.4810000000	n/a	591481	FrequentVariableSOA	1616	n/a	n/a	1
593.0980000000	n/a	593098	FrequentVariableSOA	1566	n/a	n/a	1
594.6640000000	n/a	594664	NovelVariableSOA	1633	n/a	n/a	1
596.2980000000	n/a	596298	FrequentVariableSOA	1750	n/a	n/a	1
598.0480000000	n/a	598048	GoVariableSOA	585	n/a	n/a	1
599.6310000000	n/a	599631	FrequentVariableSOA	1600	n/a	n/a	1
601.2310000000	n/a	601231	FrequentVariableSOA	1566	n/a	n/a	1
602.7980000000	n/a	602798	GoVariableSOA	611	n/a	n/a	1
604.5810000000	n/a	604581	FrequentVariableSOA	1533	n/a	n/a	1
606.1140000000	n/a	606114	NovelVariableSOA	1716	n/a	n/a	1
607.8310000000	n/a	607831	FrequentVariableSOA	1583	n/a	n/a	1
609.4140000000	n/a	609414	FrequentVariableSOA	1650	n/a	n/a	1
611.0640000000	n/a	611064	FrequentVariableSOA	1616	n/a	n/a	1
612.6810000000	n/a	612681	FrequentVariableSOA	1750	n/a	n/a	1
614.4310000000	n/a	614431	FrequentVariableSOA	1800	n/a	n/a	1
616.2310000000	n/a	616231	GoVariableSOA	515	n/a	n/a	1
617.8140000000	n/a	617814	FrequentVariableSOA	1650	n/a	n/a	1
619.4640000000	n/a	619464	FrequentVariableSOA	1566	n/a	n/a	1
621.0310000000	n/a	621031	NovelVariableSOA	1500	n/a	n/a	1
622.5310000000	n/a	622531	FrequentVariableSOA	1550	n/a	n/a	1
624.0810000000	n/a	624081	FrequentVariableSOA	1700	n/a	n/a	1
625.7810000000	n/a	625781	FrequentVariableSOA	1683	n/a	n/a	1
627.4640000000	n/a	627464	FrequentVariableSOA	1500	n/a	n/a	1
628.9640000000	n/a	628964	FrequentVariableSOA	1800	n/a	n/a	1
630.7640000000	n/a	630764	NovelVariableSOA	1733	n/a	n/a	1
632.4980000000	n/a	632498	FrequentVariableSOA	1616	n/a	n/a	1
634.1140000000	n/a	634114	FrequentVariableSOA	1616	n/a	n/a	1
635.7310000000	n/a	635731	FrequentVariableSOA	1683	n/a	n/a	1
637.4140000000	n/a	637414	FrequentVariableSOA	1733	n/a	n/a	1
639.1480000000	n/a	639148	GoVariableSOA	508	n/a	n/a	1
640.8640000000	n/a	640864	FrequentVariableSOA	1683	n/a	n/a	1
642.5480000000	n/a	642548	FrequentVariableSOA	1516	n/a	n/a	1
644.0640000000	n/a	644064	NovelVariableSOA	1633	n/a	n/a	1
645.6980000000	n/a	645698	FrequentVariableSOA	1683	n/a	n/a	1
647.3810000000	n/a	647381	FrequentVariableSOA	1683	n/a	n/a	1
649.0640000000	n/a	649064	NovelVariableSOA	1666	n/a	n/a	1
650.7310000000	n/a	650731	FrequentVariableSOA	1666	n/a	n/a	1
652.3980000000	n/a	652398	FrequentVariableSOA	1683	n/a	n/a	1
654.0810000000	n/a	654081	FrequentVariableSOA	1600	n/a	n/a	1
655.6810000000	n/a	655681	FrequentVariableSOA	1600	n/a	n/a	1
657.2810000000	n/a	657281	FrequentVariableSOA	1550	n/a	n/a	1
658.8310000000	n/a	658831	GoVariableSOA	574	n/a	n/a	1
660.4480000000	n/a	660448	FrequentVariableSOA	1716	n/a	n/a	1
662.1640000000	n/a	662164	FrequentVariableSOA	1550	n/a	n/a	1
663.7140000000	n/a	663714	FrequentVariableSOA	1683	n/a	n/a	1
665.3980000000	n/a	665398	FrequentVariableSOA	1533	n/a	n/a	1
666.9310000000	n/a	666931	FrequentVariableSOA	1783	n/a	n/a	1
668.7140000000	n/a	668714	NovelVariableSOA	1766	n/a	n/a	1
670.4810000000	n/a	670481	FrequentVariableSOA	1583	n/a	n/a	1
672.0640000000	n/a	672064	GoVariableSOA	366	n/a	n/a	1
673.7980000000	n/a	673798	FrequentVariableSOA	1616	n/a	n/a	1
675.4140000000	n/a	675414	FrequentVariableSOA	1716	n/a	n/a	1
677.1310000000	n/a	677131	FrequentVariableSOA	1566	n/a	n/a	1
678.6980000000	n/a	678698	FrequentVariableSOA	1583	n/a	n/a	1
680.2810000000	n/a	680281	FrequentVariableSOA	1716	n/a	n/a	1
681.9980000000	n/a	681998	FrequentVariableSOA	1650	n/a	n/a	1
683.6480000000	n/a	683648	FrequentVariableSOA	1500	n/a	n/a	1
685.1480000000	n/a	685148	FrequentVariableSOA	1716	n/a	n/a	1
686.8640000000	n/a	686864	NovelVariableSOA	1750	n/a	n/a	1
688.6140000000	n/a	688614	FrequentVariableSOA	1650	n/a	n/a	1
690.2640000000	n/a	690264	FrequentVariableSOA	1583	n/a	n/a	1
691.8480000000	n/a	691848	GoFixedSOA	470	n/a	n/a	1
693.4810000000	n/a	693481	FrequentFixedSOA	1633	n/a	n/a	1
695.1140000000	n/a	695114	FrequentFixedSOA	1633	n/a	n/a	1
696.7480000000	n/a	696748	FrequentFixedSOA	1633	n/a	n/a	1
698.3810000000	n/a	698381	GoFixedSOA	476	n/a	n/a	1
700.0140000000	n/a	700014	FrequentFixedSOA	1633	n/a	n/a	1
701.6480000000	n/a	701648	FrequentFixedSOA	1633	n/a	n/a	1
703.2810000000	n/a	703281	FrequentFixedSOA	1633	n/a	n/a	1
704.9140000000	n/a	704914	FrequentFixedSOA	1633	n/a	n/a	1
706.5470000000	n/a	706547	GoFixedSOA	577	n/a	n/a	1
708.1810000000	n/a	708181	FrequentFixedSOA	1633	n/a	n/a	1
709.8140000000	n/a	709814	FrequentFixedSOA	1633	n/a	n/a	1
711.4470000000	n/a	711447	NovelFixedSOA	1633	n/a	n/a	1
713.0810000000	n/a	713081	FrequentFixedSOA	1633	n/a	n/a	1
714.7140000000	n/a	714714	FrequentFixedSOA	1633	n/a	n/a	1
716.3470000000	n/a	716347	GoFixedSOA	627	n/a	n/a	1
717.9810000000	n/a	717981	FrequentFixedSOA	1633	n/a	n/a	1
719.6140000000	n/a	719614	FrequentFixedSOA	1633	n/a	n/a	1
721.2470000000	n/a	721247	FrequentFixedSOA	1633	n/a	n/a	1
722.8810000000	n/a	722881	NovelFixedSOA	1633	n/a	n/a	1
724.5140000000	n/a	724514	FrequentFixedSOA	1633	n/a	n/a	1
726.1470000000	n/a	726147	NovelFixedSOA	1633	n/a	n/a	1
727.7810000000	n/a	727781	FrequentFixedSOA	1633	n/a	n/a	1
729.4140000000	n/a	729414	FrequentFixedSOA	1633	n/a	n/a	1
731.0470000000	n/a	731047	FrequentFixedSOA	1633	n/a	n/a	1
732.6810000000	n/a	732681	GoFixedSOA	515	n/a	n/a	1
734.3140000000	n/a	734314	FrequentFixedSOA	1633	n/a	n/a	1
735.9470000000	n/a	735947	FrequentFixedSOA	1633	n/a	n/a	1
737.5810000000	n/a	737581	FrequentFixedSOA	1633	n/a	n/a	1
739.2140000000	n/a	739214	GoFixedSOA	642	n/a	n/a	1
740.8470000000	n/a	740847	FrequentFixedSOA	1633	n/a	n/a	1
742.4810000000	n/a	742481	FrequentFixedSOA	1633	n/a	n/a	1
744.1140000000	n/a	744114	NovelFixedSOA	1633	n/a	n/a	1
745.7470000000	n/a	745747	FrequentFixedSOA	1633	n/a	n/a	1
747.3810000000	n/a	747381	GoFixedSOA	685	n/a	n/a	1
749.0140000000	n/a	749014	FrequentFixedSOA	1633	n/a	n/a	1
750.6470000000	n/a	750647	FrequentFixedSOA	1633	n/a	n/a	1
752.2810000000	n/a	752281	FrequentFixedSOA	1633	n/a	n/a	1
753.9140000000	n/a	753914	FrequentFixedSOA	1633	n/a	n/a	1
755.5470000000	n/a	755547	FrequentFixedSOA	1633	n/a	n/a	1
757.1810000000	n/a	757181	FrequentFixedSOA	1633	n/a	n/a	1
758.8140000000	n/a	758814	NovelFixedSOA	1633	n/a	n/a	1
760.4470000000	n/a	760447	FrequentFixedSOA	1633	n/a	n/a	1
762.0810000000	n/a	762081	FrequentFixedSOA	1633	n/a	n/a	1
763.7140000000	n/a	763714	FrequentFixedSOA	1633	n/a	n/a	1
765.3470000000	n/a	765347	GoFixedSOA	567	n/a	n/a	1
766.9810000000	n/a	766981	FrequentFixedSOA	1633	n/a	n/a	1
768.6140000000	n/a	768614	FrequentFixedSOA	1633	n/a	n/a	1
770.2470000000	n/a	770247	FrequentFixedSOA	1633	n/a	n/a	1
771.8810000000	n/a	771881	FrequentFixedSOA	1633	n/a	n/a	1
773.5140000000	n/a	773514	NovelFixedSOA	1633	n/a	n/a	1
775.1470000000	n/a	775147	FrequentFixedSOA	1633	n/a	n/a	1
776.7810000000	n/a	776781	FrequentFixedSOA	1633	n/a	n/a	1
778.4140000000	n/a	778414	NovelFixedSOA	1633	n/a	n/a	1
780.0470000000	n/a	780047	FrequentFixedSOA	1633	n/a	n/a	1
781.6810000000	n/a	781681	NovelFixedSOA	1633	n/a	n/a	1
783.3140000000	n/a	783314	FrequentFixedSOA	1633	n/a	n/a	1
784.9470000000	n/a	784947	FrequentFixedSOA	1633	n/a	n/a	1
786.5810000000	n/a	786581	FrequentFixedSOA	1633	n/a	n/a	1
788.2140000000	n/a	788214	FrequentFixedSOA	1633	n/a	n/a	1
789.8470000000	n/a	789847	FrequentFixedSOA	1633	n/a	n/a	1
791.4810000000	n/a	791481	FrequentFixedSOA	1633	n/a	n/a	1
793.1140000000	n/a	793114	FrequentFixedSOA	1633	n/a	n/a	1
794.7470000000	n/a	794747	GoFixedSOA	555	n/a	n/a	1
796.3810000000	n/a	796381	FrequentFixedSOA	1633	n/a	n/a	1
798.0140000000	n/a	798014	GoFixedSOA	477	n/a	n/a	1
799.6470000000	n/a	799647	FrequentFixedSOA	1633	n/a	n/a	1
801.2810000000	n/a	801281	FrequentFixedSOA	1633	n/a	n/a	1
802.9140000000	n/a	802914	NovelFixedSOA	1633	n/a	n/a	1
804.5470000000	n/a	804547	FrequentFixedSOA	1633	n/a	n/a	1
806.1810000000	n/a	806181	GoVariableSOA	1600	n/a	n/a	0
807.7810000000	n/a	807781	FrequentVariableSOA	1750	n/a	n/a	1
809.5310000000	n/a	809531	FrequentVariableSOA	1533	n/a	n/a	1
811.0640000000	n/a	811064	FrequentVariableSOA	1600	n/a	n/a	1
812.6640000000	n/a	812664	GoVariableSOA	411	n/a	n/a	1
814.3310000000	n/a	814331	FrequentVariableSOA	1700	n/a	n/a	1
816.0310000000	n/a	816031	FrequentVariableSOA	1600	n/a	n/a	1
817.6310000000	n/a	817631	FrequentVariableSOA	1683	n/a	n/a	1
819.3140000000	n/a	819314	FrequentVariableSOA	1583	n/a	n/a	1
820.8970000000	n/a	820897	GoVariableSOA	1500	n/a	n/a	0
822.3970000000	n/a	822397	FrequentVariableSOA	1666	n/a	n/a	1
824.0640000000	n/a	824064	FrequentVariableSOA	1616	n/a	n/a	1
825.6810000000	n/a	825681	NovelVariableSOA	1533	n/a	n/a	1
827.2140000000	n/a	827214	FrequentVariableSOA	1766	n/a	n/a	1
828.9810000000	n/a	828981	FrequentVariableSOA	1783	n/a	n/a	1
830.7640000000	n/a	830764	GoVariableSOA	371	n/a	n/a	1
832.4970000000	n/a	832497	FrequentVariableSOA	1566	n/a	n/a	1
834.0640000000	n/a	834064	FrequentVariableSOA	1783	n/a	n/a	1
835.8470000000	n/a	835847	FrequentVariableSOA	1666	n/a	n/a	1
837.5140000000	n/a	837514	NovelVariableSOA	1600	n/a	n/a	1
839.1140000000	n/a	839114	FrequentVariableSOA	1533	n/a	n/a	1
840.6470000000	n/a	840647	NovelVariableSOA	1616	n/a	n/a	1
842.2640000000	n/a	842264	FrequentVariableSOA	1750	n/a	n/a	1
844.0140000000	n/a	844014	FrequentVariableSOA	1516	n/a	n/a	1
845.5310000000	n/a	845531	FrequentVariableSOA	1583	n/a	n/a	1
847.1140000000	n/a	847114	GoVariableSOA	1600	n/a	n/a	0
848.7140000000	n/a	848714	FrequentVariableSOA	1583	n/a	n/a	1
850.2970000000	n/a	850297	FrequentVariableSOA	1616	n/a	n/a	1
851.9140000000	n/a	851914	FrequentVariableSOA	1633	n/a	n/a	1
853.5470000000	n/a	853547	GoVariableSOA	1766	n/a	n/a	0
855.3140000000	n/a	855314	FrequentVariableSOA	1716	n/a	n/a	1
857.0310000000	n/a	857031	FrequentVariableSOA	1566	n/a	n/a	1
858.5970000000	n/a	858597	NovelVariableSOA	1516	n/a	n/a	1
860.1140000000	n/a	860114	FrequentVariableSOA	1633	n/a	n/a	1
861.7470000000	n/a	861747	GoVariableSOA	659	n/a	n/a	1
863.4970000000	n/a	863497	FrequentVariableSOA	1733	n/a	n/a	1
865.2310000000	n/a	865231	FrequentVariableSOA	1550	n/a	n/a	1
866.7810000000	n/a	866781	FrequentVariableSOA	1750	n/a	n/a	1
868.5310000000	n/a	868531	FrequentVariableSOA	1733	n/a	n/a	1
870.2640000000	n/a	870264	FrequentVariableSOA	1766	n/a	n/a	1
872.0310000000	n/a	872031	FrequentVariableSOA	1783	n/a	n/a	1
873.8140000000	n/a	873814	NovelVariableSOA	1633	n/a	n/a	1
875.4470000000	n/a	875447	FrequentVariableSOA	1533	n/a	n/a	1
876.9810000000	n/a	876981	FrequentVariableSOA	1750	n/a	n/a	1
878.7310000000	n/a	878731	FrequentVariableSOA	1700	n/a	n/a	1
880.4310000000	n/a	880431	GoVariableSOA	485	n/a	n/a	1
882.0970000000	n/a	882097	FrequentVariableSOA	1533	n/a	n/a	1
883.6310000000	n/a	883631	FrequentVariableSOA	1650	n/a	n/a	1
885.2810000000	n/a	885281	FrequentVariableSOA	1733	n/a	n/a	1
887.0140000000	n/a	887014	FrequentVariableSOA	1616	n/a	n/a	1
888.6310000000	n/a	888631	NovelVariableSOA	1633	n/a	n/a	1
890.2640000000	n/a	890264	FrequentVariableSOA	1650	n/a	n/a	1
891.9140000000	n/a	891914	FrequentVariableSOA	1550	n/a	n/a	1
893.4640000000	n/a	893464	NovelVariableSOA	1600	n/a	n/a	1
895.0640000000	n/a	895064	FrequentVariableSOA	1700	n/a	n/a	1
896.7640000000	n/a	896764	NovelVariableSOA	1800	n/a	n/a	1
898.5640000000	n/a	898564	FrequentVariableSOA	1600	n/a	n/a	1
900.1640000000	n/a	900164	FrequentVariableSOA	1650	n/a	n/a	1
901.8140000000	n/a	901814	FrequentVariableSOA	1666	n/a	n/a	1
903.4810000000	n/a	903481	FrequentVariableSOA	1700	n/a	n/a	1
905.1810000000	n/a	905181	FrequentVariableSOA	1800	n/a	n/a	1
906.9810000000	n/a	906981	FrequentVariableSOA	1766	n/a	n/a	1
908.7470000000	n/a	908747	FrequentVariableSOA	1683	n/a	n/a	1
910.4310000000	n/a	910431	GoVariableSOA	650	n/a	n/a	1
912.2140000000	n/a	912214	FrequentVariableSOA	1566	n/a	n/a	1
913.7810000000	n/a	913781	GoVariableSOA	483	n/a	n/a	1
915.4810000000	n/a	915481	FrequentVariableSOA	1716	n/a	n/a	1
917.1970000000	n/a	917197	FrequentVariableSOA	1666	n/a	n/a	1
918.8640000000	n/a	918864	NovelVariableSOA	1600	n/a	n/a	1
920.4640000000	n/a	920464	FrequentVariableSOA	1700	n/a	n/a	1
