onset	duration	sample	trial_type	response_time	stim_file	value	correct
7.0570000000	n/a	7057	ignore	n/a	n/a	n/a	n/a
10.1570000000	n/a	10157	ignore	n/a	n/a	n/a	n/a
13.1610000000	n/a	13161	ignore	n/a	n/a	n/a	n/a
29.5910000000	n/a	29591	ignore	n/a	n/a	n/a	n/a
32.6910000000	n/a	32691	ignore	n/a	n/a	n/a	n/a
35.6780000000	n/a	35678	ignore	n/a	n/a	n/a	n/a
52.7900000000	n/a	52790	NeuStim	n/a	n/a	n/a	n/a
55.8900000000	n/a	55890	NeuNonAlcP1000	n/a	n/a	n/a	n/a
60.8780000000	n/a	60878	NeuNonAlcP1000	n/a	n/a	n/a	n/a
69.0400000000	n/a	69040	PosStim	n/a	n/a	n/a	n/a
72.0740000000	n/a	72074	PosAlcStimWithoutStartle	n/a	n/a	n/a	n/a
88.0900000000	n/a	88090	NeuStim	n/a	n/a	n/a	n/a
91.1900000000	n/a	91190	NeuAlcP2000	n/a	n/a	n/a	n/a
95.1770000000	n/a	95177	NeuAlcP2000	n/a	n/a	n/a	n/a
105.7570000000	n/a	105757	NegStim	n/a	n/a	n/a	n/a
108.8570000000	n/a	108857	NegNonAlcP2000	n/a	n/a	n/a	n/a
112.8440000000	n/a	112844	NegNonAlcP2000	n/a	n/a	n/a	n/a
124.0240000000	n/a	124024	NeuStim	n/a	n/a	n/a	n/a
127.0570000000	n/a	127057	NeuNonAlcStimWithoutStartle	n/a	n/a	n/a	n/a
140.7070000000	n/a	140707	PosStim	n/a	n/a	n/a	n/a
143.8070000000	n/a	143807	PosNonAlcP1000	n/a	n/a	n/a	n/a
148.7940000000	n/a	148794	PosNonAlcP1000	n/a	n/a	n/a	n/a
160.5570000000	n/a	160557	NeuStim	n/a	n/a	n/a	n/a
163.6570000000	n/a	163657	NeuAlcP1000	n/a	n/a	n/a	n/a
168.6440000000	n/a	168644	NeuAlcP1000	n/a	n/a	n/a	n/a
178.8070000000	n/a	178807	NegStim	n/a	n/a	n/a	n/a
181.8400000000	n/a	181840	NegNonAlcStimWithoutStartle	n/a	n/a	n/a	n/a
198.5070000000	n/a	198507	NeuStim	n/a	n/a	n/a	n/a
201.6070000000	n/a	201607	NeuNonAlcP1000	n/a	n/a	n/a	n/a
206.5940000000	n/a	206594	NeuNonAlcP1000	n/a	n/a	n/a	n/a
218.4240000000	n/a	218424	NegStim	n/a	n/a	n/a	n/a
221.5240000000	n/a	221524	NegNonAlcP3000	n/a	n/a	n/a	n/a
224.5110000000	n/a	224511	NegNonAlcP3000	n/a	n/a	n/a	n/a
236.9900000000	n/a	236990	PosStim	n/a	n/a	n/a	n/a
240.0900000000	n/a	240090	PosNonAlcP3000	n/a	n/a	n/a	n/a
243.0770000000	n/a	243077	PosNonAlcP3000	n/a	n/a	n/a	n/a
256.6570000000	n/a	256657	NeuStim	n/a	n/a	n/a	n/a
259.7570000000	n/a	259757	NeuAlcP1000	n/a	n/a	n/a	n/a
264.7440000000	n/a	264744	NeuAlcP1000	n/a	n/a	n/a	n/a
273.0900000000	n/a	273090	NegStim	n/a	n/a	n/a	n/a
276.1230000000	n/a	276123	NegAlcStimWithoutStartle	n/a	n/a	n/a	n/a
291.4900000000	n/a	291490	PosStim	n/a	n/a	n/a	n/a
294.5230000000	n/a	294523	PosNonAlcStimWithoutStartle	n/a	n/a	n/a	n/a
311.1900000000	n/a	311190	NegStim	n/a	n/a	n/a	n/a
314.2900000000	n/a	314290	NegAlcP3000	n/a	n/a	n/a	n/a
317.2770000000	n/a	317277	NegAlcP3000	n/a	n/a	n/a	n/a
329.3070000000	n/a	329307	NeuStim	n/a	n/a	n/a	n/a
332.3400000000	n/a	332340	NeuAlcStimWithoutStartle	n/a	n/a	n/a	n/a
345.7230000000	n/a	345723	PosStim	n/a	n/a	n/a	n/a
348.8230000000	n/a	348823	PosNonAlcP1000	n/a	n/a	n/a	n/a
353.8100000000	n/a	353810	PosNonAlcP1000	n/a	n/a	n/a	n/a
364.6070000000	n/a	364607	NegStim	n/a	n/a	n/a	n/a
367.7070000000	n/a	367707	NegAlcP3000	n/a	n/a	n/a	n/a
370.6940000000	n/a	370694	NegAlcP3000	n/a	n/a	n/a	n/a
380.9230000000	n/a	380923	NegStim	n/a	n/a	n/a	n/a
383.9570000000	n/a	383957	NegNonAlcStimWithoutStartle	n/a	n/a	n/a	n/a
397.4730000000	n/a	397473	PosStim	n/a	n/a	n/a	n/a
400.5730000000	n/a	400573	PosAlcP1000	n/a	n/a	n/a	n/a
405.5600000000	n/a	405560	PosAlcP1000	n/a	n/a	n/a	n/a
413.8900000000	n/a	413890	NeuStim	n/a	n/a	n/a	n/a
416.9230000000	n/a	416923	NeuAlcStimWithoutStartle	n/a	n/a	n/a	n/a
430.9230000000	n/a	430923	NegStim	n/a	n/a	n/a	n/a
434.0230000000	n/a	434023	NegNonAlcP1000	n/a	n/a	n/a	n/a
439.0100000000	n/a	439010	NegNonAlcP1000	n/a	n/a	n/a	n/a
449.2560000000	n/a	449256	PosStim	n/a	n/a	n/a	n/a
452.3560000000	n/a	452356	PosAlcP3000	n/a	n/a	n/a	n/a
455.3430000000	n/a	455343	PosAlcP3000	n/a	n/a	n/a	n/a
465.7400000000	n/a	465740	NeuStim	n/a	n/a	n/a	n/a
468.8400000000	n/a	468840	NeuAlcP3000	n/a	n/a	n/a	n/a
471.8270000000	n/a	471827	NeuAlcP3000	n/a	n/a	n/a	n/a
484.8900000000	n/a	484890	NegStim	n/a	n/a	n/a	n/a
487.9230000000	n/a	487923	NegAlcStimWithoutStartle	n/a	n/a	n/a	n/a
502.9400000000	n/a	502940	PosStim	n/a	n/a	n/a	n/a
506.0400000000	n/a	506040	PosNonAlcP2000	n/a	n/a	n/a	n/a
510.0270000000	n/a	510027	PosNonAlcP2000	n/a	n/a	n/a	n/a
522.3400000000	n/a	522340	NegStim	n/a	n/a	n/a	n/a
525.4400000000	n/a	525440	NegAlcP2000	n/a	n/a	n/a	n/a
529.4270000000	n/a	529427	NegAlcP2000	n/a	n/a	n/a	n/a
539.8400000000	n/a	539840	PosStim	n/a	n/a	n/a	n/a
542.9400000000	n/a	542940	PosAlcP2000	n/a	n/a	n/a	n/a
546.9270000000	n/a	546927	PosAlcP2000	n/a	n/a	n/a	n/a
557.4060000000	n/a	557406	NeuStim	n/a	n/a	n/a	n/a
560.4400000000	n/a	560440	NeuAlcStimWithoutStartle	n/a	n/a	n/a	n/a
573.5230000000	n/a	573523	NegStim	n/a	n/a	n/a	n/a
576.6230000000	n/a	576623	NegNonAlcP1000	n/a	n/a	n/a	n/a
581.6100000000	n/a	581610	NegNonAlcP1000	n/a	n/a	n/a	n/a
589.6900000000	n/a	589690	NeuStim	n/a	n/a	n/a	n/a
592.7900000000	n/a	592790	NeuNonAlcP1000	n/a	n/a	n/a	n/a
597.7770000000	n/a	597777	NeuNonAlcP1000	n/a	n/a	n/a	n/a
607.2560000000	n/a	607256	PosStim	n/a	n/a	n/a	n/a
610.3560000000	n/a	610356	PosNonAlcP3000	n/a	n/a	n/a	n/a
613.3430000000	n/a	613343	PosNonAlcP3000	n/a	n/a	n/a	n/a
623.8060000000	n/a	623806	NeuStim	n/a	n/a	n/a	n/a
626.8390000000	n/a	626839	NeuNonAlcStimWithoutStartle	n/a	n/a	n/a	n/a
642.7560000000	n/a	642756	NegStim	n/a	n/a	n/a	n/a
645.7890000000	n/a	645789	NegNonAlcStimWithoutStartle	n/a	n/a	n/a	n/a
658.9730000000	n/a	658973	NeuStim	n/a	n/a	n/a	n/a
662.0730000000	n/a	662073	NeuNonAlcP3000	n/a	n/a	n/a	n/a
665.0600000000	n/a	665060	NeuNonAlcP3000	n/a	n/a	n/a	n/a
678.2560000000	n/a	678256	PosStim	n/a	n/a	n/a	n/a
681.3560000000	n/a	681356	PosAlcP1000	n/a	n/a	n/a	n/a
686.3430000000	n/a	686343	PosAlcP1000	n/a	n/a	n/a	n/a
695.7390000000	n/a	695739	NegStim	n/a	n/a	n/a	n/a
698.8390000000	n/a	698839	NegNonAlcP1000	n/a	n/a	n/a	n/a
703.8260000000	n/a	703826	NegNonAlcP1000	n/a	n/a	n/a	n/a
712.7560000000	n/a	712756	PosStim	n/a	n/a	n/a	n/a
715.7890000000	n/a	715789	PosNonAlcStimWithoutStartle	n/a	n/a	n/a	n/a
731.9560000000	n/a	731956	NeuStim	n/a	n/a	n/a	n/a
735.0560000000	n/a	735056	NeuAlcP2000	n/a	n/a	n/a	n/a
739.0430000000	n/a	739043	NeuAlcP2000	n/a	n/a	n/a	n/a
750.0060000000	n/a	750006	PosStim	n/a	n/a	n/a	n/a
753.1060000000	n/a	753106	PosAlcP1000	n/a	n/a	n/a	n/a
758.0930000000	n/a	758093	PosAlcP1000	n/a	n/a	n/a	n/a
768.4890000000	n/a	768489	NegStim	n/a	n/a	n/a	n/a
771.5230000000	n/a	771523	NegNonAlcStimWithoutStartle	n/a	n/a	n/a	n/a
785.0390000000	n/a	785039	PosStim	n/a	n/a	n/a	n/a
788.1390000000	n/a	788139	PosNonAlcP2000	n/a	n/a	n/a	n/a
792.1260000000	n/a	792126	PosNonAlcP2000	n/a	n/a	n/a	n/a
801.8230000000	n/a	801823	NegStim	n/a	n/a	n/a	n/a
804.9230000000	n/a	804923	NegNonAlcP3000	n/a	n/a	n/a	n/a
807.9100000000	n/a	807910	NegNonAlcP3000	n/a	n/a	n/a	n/a
821.3890000000	n/a	821389	NeuStim	n/a	n/a	n/a	n/a
824.4890000000	n/a	824489	NeuNonAlcP2000	n/a	n/a	n/a	n/a
828.4760000000	n/a	828476	NeuNonAlcP2000	n/a	n/a	n/a	n/a
839.8720000000	n/a	839872	NegStim	n/a	n/a	n/a	n/a
842.9060000000	n/a	842906	NegAlcStimWithoutStartle	n/a	n/a	n/a	n/a
858.9390000000	n/a	858939	PosStim	n/a	n/a	n/a	n/a
861.9720000000	n/a	861972	PosAlcStimWithoutStartle	n/a	n/a	n/a	n/a
875.9220000000	n/a	875922	NeuStim	n/a	n/a	n/a	n/a
879.0220000000	n/a	879022	NeuAlcP3000	n/a	n/a	n/a	n/a
882.0090000000	n/a	882009	NeuAlcP3000	n/a	n/a	n/a	n/a
892.8720000000	n/a	892872	NegStim	n/a	n/a	n/a	n/a
895.9720000000	n/a	895972	NegNonAlcP1000	n/a	n/a	n/a	n/a
900.9590000000	n/a	900959	NegNonAlcP1000	n/a	n/a	n/a	n/a
911.1720000000	n/a	911172	NeuStim	n/a	n/a	n/a	n/a
914.2720000000	n/a	914272	NeuNonAlcP2000	n/a	n/a	n/a	n/a
918.2590000000	n/a	918259	NeuNonAlcP2000	n/a	n/a	n/a	n/a
930.8390000000	n/a	930839	PosStim	n/a	n/a	n/a	n/a
933.8720000000	n/a	933872	PosAlcStimWithoutStartle	n/a	n/a	n/a	n/a
947.0220000000	n/a	947022	NegStim	n/a	n/a	n/a	n/a
950.1220000000	n/a	950122	NegNonAlcP2000	n/a	n/a	n/a	n/a
954.1090000000	n/a	954109	NegNonAlcP2000	n/a	n/a	n/a	n/a
966.6060000000	n/a	966606	NeuStim	n/a	n/a	n/a	n/a
969.7060000000	n/a	969706	NeuAlcP1000	n/a	n/a	n/a	n/a
974.6930000000	n/a	974693	NeuAlcP1000	n/a	n/a	n/a	n/a
