onset	duration	sample	trial_type	response_time	stim_file	value	correct
6.4790000000	n/a	6479	ignore	n/a	n/a	n/a	n/a
9.5790000000	n/a	9579	ignore	n/a	n/a	n/a	n/a
12.5870000000	n/a	12587	ignore	n/a	n/a	n/a	n/a
28.9960000000	n/a	28996	ignore	n/a	n/a	n/a	n/a
32.0960000000	n/a	32096	ignore	n/a	n/a	n/a	n/a
35.0830000000	n/a	35083	ignore	n/a	n/a	n/a	n/a
51.2960000000	n/a	51296	NeuStim	n/a	n/a	n/a	n/a
54.3960000000	n/a	54396	NeuNonAlcP1000	n/a	n/a	n/a	n/a
59.3830000000	n/a	59383	NeuNonAlcP1000	n/a	n/a	n/a	n/a
69.4630000000	n/a	69463	PosStim	n/a	n/a	n/a	n/a
72.4960000000	n/a	72496	PosAlcStimWithoutStartle	n/a	n/a	n/a	n/a
89.3960000000	n/a	89396	NeuStim	n/a	n/a	n/a	n/a
92.4960000000	n/a	92496	NeuAlcP2000	n/a	n/a	n/a	n/a
96.4830000000	n/a	96483	NeuAlcP2000	n/a	n/a	n/a	n/a
108.3290000000	n/a	108329	NegStim	n/a	n/a	n/a	n/a
111.4290000000	n/a	111429	NegNonAlcP2000	n/a	n/a	n/a	n/a
115.4160000000	n/a	115416	NegNonAlcP2000	n/a	n/a	n/a	n/a
128.0290000000	n/a	128029	NeuStim	n/a	n/a	n/a	n/a
131.0620000000	n/a	131062	NeuNonAlcStimWithoutStartle	n/a	n/a	n/a	n/a
145.8120000000	n/a	145812	PosStim	n/a	n/a	n/a	n/a
148.9120000000	n/a	148912	PosNonAlcP1000	n/a	n/a	n/a	n/a
153.8990000000	n/a	153899	PosNonAlcP1000	n/a	n/a	n/a	n/a
162.5620000000	n/a	162562	NeuStim	n/a	n/a	n/a	n/a
165.6620000000	n/a	165662	NeuAlcP1000	n/a	n/a	n/a	n/a
170.6490000000	n/a	170649	NeuAlcP1000	n/a	n/a	n/a	n/a
180.1620000000	n/a	180162	NegStim	n/a	n/a	n/a	n/a
183.1960000000	n/a	183196	NegNonAlcStimWithoutStartle	n/a	n/a	n/a	n/a
199.6290000000	n/a	199629	NeuStim	n/a	n/a	n/a	n/a
202.7290000000	n/a	202729	NeuNonAlcP1000	n/a	n/a	n/a	n/a
207.7160000000	n/a	207716	NeuNonAlcP1000	n/a	n/a	n/a	n/a
219.0290000000	n/a	219029	NegStim	n/a	n/a	n/a	n/a
222.1290000000	n/a	222129	NegNonAlcP3000	n/a	n/a	n/a	n/a
225.1160000000	n/a	225116	NegNonAlcP3000	n/a	n/a	n/a	n/a
238.3120000000	n/a	238312	PosStim	n/a	n/a	n/a	n/a
241.4120000000	n/a	241412	PosNonAlcP3000	n/a	n/a	n/a	n/a
244.3990000000	n/a	244399	PosNonAlcP3000	n/a	n/a	n/a	n/a
256.1290000000	n/a	256129	NeuStim	n/a	n/a	n/a	n/a
259.2290000000	n/a	259229	NeuAlcP1000	n/a	n/a	n/a	n/a
264.2160000000	n/a	264216	NeuAlcP1000	n/a	n/a	n/a	n/a
276.1460000000	n/a	276146	NegStim	n/a	n/a	n/a	n/a
279.1790000000	n/a	279179	NegAlcStimWithoutStartle	n/a	n/a	n/a	n/a
292.8790000000	n/a	292879	PosStim	n/a	n/a	n/a	n/a
295.9120000000	n/a	295912	PosNonAlcStimWithoutStartle	n/a	n/a	n/a	n/a
312.6450000000	n/a	312645	NegStim	n/a	n/a	n/a	n/a
315.7450000000	n/a	315745	NegAlcP3000	n/a	n/a	n/a	n/a
318.7330000000	n/a	318733	NegAlcP3000	n/a	n/a	n/a	n/a
329.9950000000	n/a	329995	NeuStim	n/a	n/a	n/a	n/a
333.0290000000	n/a	333029	NeuAlcStimWithoutStartle	n/a	n/a	n/a	n/a
348.3950000000	n/a	348395	PosStim	n/a	n/a	n/a	n/a
351.4950000000	n/a	351495	PosNonAlcP1000	n/a	n/a	n/a	n/a
356.4820000000	n/a	356482	PosNonAlcP1000	n/a	n/a	n/a	n/a
368.5120000000	n/a	368512	NegStim	n/a	n/a	n/a	n/a
371.6120000000	n/a	371612	NegAlcP3000	n/a	n/a	n/a	n/a
374.5990000000	n/a	374599	NegAlcP3000	n/a	n/a	n/a	n/a
384.9950000000	n/a	384995	NegStim	n/a	n/a	n/a	n/a
388.0290000000	n/a	388029	NegNonAlcStimWithoutStartle	n/a	n/a	n/a	n/a
401.2120000000	n/a	401212	PosStim	n/a	n/a	n/a	n/a
404.3120000000	n/a	404312	PosAlcP1000	n/a	n/a	n/a	n/a
409.2990000000	n/a	409299	PosAlcP1000	n/a	n/a	n/a	n/a
419.1290000000	n/a	419129	NeuStim	n/a	n/a	n/a	n/a
422.1620000000	n/a	422162	NeuAlcStimWithoutStartle	n/a	n/a	n/a	n/a
435.3950000000	n/a	435395	NegStim	n/a	n/a	n/a	n/a
438.4950000000	n/a	438495	NegNonAlcP1000	n/a	n/a	n/a	n/a
443.4820000000	n/a	443482	NegNonAlcP1000	n/a	n/a	n/a	n/a
453.1620000000	n/a	453162	PosStim	n/a	n/a	n/a	n/a
456.2620000000	n/a	456262	PosAlcP3000	n/a	n/a	n/a	n/a
459.2490000000	n/a	459249	PosAlcP3000	n/a	n/a	n/a	n/a
470.6120000000	n/a	470612	NeuStim	n/a	n/a	n/a	n/a
473.7120000000	n/a	473712	NeuAlcP3000	n/a	n/a	n/a	n/a
476.6990000000	n/a	476699	NeuAlcP3000	n/a	n/a	n/a	n/a
489.0950000000	n/a	489095	NegStim	n/a	n/a	n/a	n/a
492.1290000000	n/a	492129	NegAlcStimWithoutStartle	n/a	n/a	n/a	n/a
506.6950000000	n/a	506695	PosStim	n/a	n/a	n/a	n/a
509.7950000000	n/a	509795	PosNonAlcP2000	n/a	n/a	n/a	n/a
513.7820000000	n/a	513782	PosNonAlcP2000	n/a	n/a	n/a	n/a
526.2450000000	n/a	526245	NegStim	n/a	n/a	n/a	n/a
529.3450000000	n/a	529345	NegAlcP2000	n/a	n/a	n/a	n/a
533.3320000000	n/a	533332	NegAlcP2000	n/a	n/a	n/a	n/a
544.7780000000	n/a	544778	PosStim	n/a	n/a	n/a	n/a
547.8780000000	n/a	547878	PosAlcP2000	n/a	n/a	n/a	n/a
551.8650000000	n/a	551865	PosAlcP2000	n/a	n/a	n/a	n/a
561.8620000000	n/a	561862	NeuStim	n/a	n/a	n/a	n/a
564.8950000000	n/a	564895	NeuAlcStimWithoutStartle	n/a	n/a	n/a	n/a
578.7450000000	n/a	578745	NegStim	n/a	n/a	n/a	n/a
581.8450000000	n/a	581845	NegNonAlcP1000	n/a	n/a	n/a	n/a
586.8320000000	n/a	586832	NegNonAlcP1000	n/a	n/a	n/a	n/a
597.0450000000	n/a	597045	NeuStim	n/a	n/a	n/a	n/a
600.1450000000	n/a	600145	NeuNonAlcP1000	n/a	n/a	n/a	n/a
605.1320000000	n/a	605132	NeuNonAlcP1000	n/a	n/a	n/a	n/a
615.7120000000	n/a	615712	PosStim	n/a	n/a	n/a	n/a
618.8120000000	n/a	618812	PosNonAlcP3000	n/a	n/a	n/a	n/a
621.7990000000	n/a	621799	PosNonAlcP3000	n/a	n/a	n/a	n/a
632.4120000000	n/a	632412	NeuStim	n/a	n/a	n/a	n/a
635.4450000000	n/a	635445	NeuNonAlcStimWithoutStartle	n/a	n/a	n/a	n/a
650.8120000000	n/a	650812	NegStim	n/a	n/a	n/a	n/a
653.8450000000	n/a	653845	NegNonAlcStimWithoutStartle	n/a	n/a	n/a	n/a
670.5280000000	n/a	670528	NeuStim	n/a	n/a	n/a	n/a
673.6280000000	n/a	673628	NeuNonAlcP3000	n/a	n/a	n/a	n/a
676.6150000000	n/a	676615	NeuNonAlcP3000	n/a	n/a	n/a	n/a
689.4780000000	n/a	689478	PosStim	n/a	n/a	n/a	n/a
692.5780000000	n/a	692578	PosAlcP1000	n/a	n/a	n/a	n/a
697.5650000000	n/a	697565	PosAlcP1000	n/a	n/a	n/a	n/a
706.4120000000	n/a	706412	NegStim	n/a	n/a	n/a	n/a
709.5120000000	n/a	709512	NegNonAlcP1000	n/a	n/a	n/a	n/a
714.4990000000	n/a	714499	NegNonAlcP1000	n/a	n/a	n/a	n/a
722.9450000000	n/a	722945	PosStim	n/a	n/a	n/a	n/a
725.9780000000	n/a	725978	PosNonAlcStimWithoutStartle	n/a	n/a	n/a	n/a
742.4110000000	n/a	742411	NeuStim	n/a	n/a	n/a	n/a
745.5110000000	n/a	745511	NeuAlcP2000	n/a	n/a	n/a	n/a
749.4980000000	n/a	749498	NeuAlcP2000	n/a	n/a	n/a	n/a
761.8610000000	n/a	761861	PosStim	n/a	n/a	n/a	n/a
764.9610000000	n/a	764961	PosAlcP1000	n/a	n/a	n/a	n/a
769.9480000000	n/a	769948	PosAlcP1000	n/a	n/a	n/a	n/a
781.4780000000	n/a	781478	NegStim	n/a	n/a	n/a	n/a
784.5110000000	n/a	784511	NegNonAlcStimWithoutStartle	n/a	n/a	n/a	n/a
798.7110000000	n/a	798711	PosStim	n/a	n/a	n/a	n/a
801.8110000000	n/a	801811	PosNonAlcP2000	n/a	n/a	n/a	n/a
805.7980000000	n/a	805798	PosNonAlcP2000	n/a	n/a	n/a	n/a
816.5450000000	n/a	816545	NegStim	n/a	n/a	n/a	n/a
819.6450000000	n/a	819645	NegNonAlcP3000	n/a	n/a	n/a	n/a
822.6320000000	n/a	822632	NegNonAlcP3000	n/a	n/a	n/a	n/a
833.2610000000	n/a	833261	NeuStim	n/a	n/a	n/a	n/a
836.3610000000	n/a	836361	NeuNonAlcP2000	n/a	n/a	n/a	n/a
840.3480000000	n/a	840348	NeuNonAlcP2000	n/a	n/a	n/a	n/a
850.2280000000	n/a	850228	NegStim	n/a	n/a	n/a	n/a
853.2610000000	n/a	853261	NegAlcStimWithoutStartle	n/a	n/a	n/a	n/a
867.1610000000	n/a	867161	PosStim	n/a	n/a	n/a	n/a
870.1950000000	n/a	870195	PosAlcStimWithoutStartle	n/a	n/a	n/a	n/a
884.9780000000	n/a	884978	NeuStim	n/a	n/a	n/a	n/a
888.0780000000	n/a	888078	NeuAlcP3000	n/a	n/a	n/a	n/a
891.0650000000	n/a	891065	NeuAlcP3000	n/a	n/a	n/a	n/a
904.7450000000	n/a	904745	NegStim	n/a	n/a	n/a	n/a
907.8450000000	n/a	907845	NegNonAlcP1000	n/a	n/a	n/a	n/a
912.8320000000	n/a	912832	NegNonAlcP1000	n/a	n/a	n/a	n/a
924.5780000000	n/a	924578	NeuStim	n/a	n/a	n/a	n/a
927.6780000000	n/a	927678	NeuNonAlcP2000	n/a	n/a	n/a	n/a
931.6650000000	n/a	931665	NeuNonAlcP2000	n/a	n/a	n/a	n/a
943.9110000000	n/a	943911	PosStim	n/a	n/a	n/a	n/a
946.9440000000	n/a	946944	PosAlcStimWithoutStartle	n/a	n/a	n/a	n/a
961.6440000000	n/a	961644	NegStim	n/a	n/a	n/a	n/a
964.7440000000	n/a	964744	NegNonAlcP2000	n/a	n/a	n/a	n/a
968.7310000000	n/a	968731	NegNonAlcP2000	n/a	n/a	n/a	n/a
978.5110000000	n/a	978511	NeuStim	n/a	n/a	n/a	n/a
981.6110000000	n/a	981611	NeuAlcP1000	n/a	n/a	n/a	n/a
986.5980000000	n/a	986598	NeuAlcP1000	n/a	n/a	n/a	n/a
