onset	duration	sample	trial_type	response_time	stim_file	value	correct
6.3810000000	n/a	6381	ignore	n/a	n/a	n/a	n/a
9.4810000000	n/a	9481	ignore	n/a	n/a	n/a	n/a
12.4940000000	n/a	12494	ignore	n/a	n/a	n/a	n/a
28.0640000000	n/a	28064	ignore	n/a	n/a	n/a	n/a
31.1640000000	n/a	31164	ignore	n/a	n/a	n/a	n/a
34.1510000000	n/a	34151	ignore	n/a	n/a	n/a	n/a
50.0310000000	n/a	50031	PosStim	n/a	n/a	n/a	n/a
53.0640000000	n/a	53064	PosNonAlcStimWithoutStartle	n/a	n/a	n/a	n/a
67.7310000000	n/a	67731	NegStim	n/a	n/a	n/a	n/a
70.7640000000	n/a	70764	NegNonAlcStimWithoutStartle	n/a	n/a	n/a	n/a
86.7800000000	n/a	86780	NeuStim	n/a	n/a	n/a	n/a
89.8800000000	n/a	89880	NeuNonAlcP2000	n/a	n/a	n/a	n/a
93.8680000000	n/a	93868	NeuNonAlcP2000	n/a	n/a	n/a	n/a
105.7640000000	n/a	105764	NegStim	n/a	n/a	n/a	n/a
108.8640000000	n/a	108864	NegAlcP2000	n/a	n/a	n/a	n/a
112.8510000000	n/a	112851	NegAlcP2000	n/a	n/a	n/a	n/a
124.7970000000	n/a	124797	NeuStim	n/a	n/a	n/a	n/a
127.8300000000	n/a	127830	NeuAlcStimWithoutStartle	n/a	n/a	n/a	n/a
144.7300000000	n/a	144730	PosStim	n/a	n/a	n/a	n/a
147.8300000000	n/a	147830	PosAlcP1000	n/a	n/a	n/a	n/a
152.8170000000	n/a	152817	PosAlcP1000	n/a	n/a	n/a	n/a
164.6640000000	n/a	164664	NeuStim	n/a	n/a	n/a	n/a
167.7640000000	n/a	167764	NeuAlcP2000	n/a	n/a	n/a	n/a
171.7510000000	n/a	171751	NeuAlcP2000	n/a	n/a	n/a	n/a
183.6300000000	n/a	183630	NegStim	n/a	n/a	n/a	n/a
186.7300000000	n/a	186730	NegAlcP3000	n/a	n/a	n/a	n/a
189.7170000000	n/a	189717	NegAlcP3000	n/a	n/a	n/a	n/a
201.0800000000	n/a	201080	PosStim	n/a	n/a	n/a	n/a
204.1140000000	n/a	204114	PosNonAlcStimWithoutStartle	n/a	n/a	n/a	n/a
218.4140000000	n/a	218414	NeuStim	n/a	n/a	n/a	n/a
221.5140000000	n/a	221514	NeuAlcP1000	n/a	n/a	n/a	n/a
226.5010000000	n/a	226501	NeuAlcP1000	n/a	n/a	n/a	n/a
237.1640000000	n/a	237164	NegStim	n/a	n/a	n/a	n/a
240.2640000000	n/a	240264	NegNonAlcP3000	n/a	n/a	n/a	n/a
243.2510000000	n/a	243251	NegNonAlcP3000	n/a	n/a	n/a	n/a
255.5640000000	n/a	255564	PosStim	n/a	n/a	n/a	n/a
258.6640000000	n/a	258664	PosAlcP2000	n/a	n/a	n/a	n/a
262.6510000000	n/a	262651	PosAlcP2000	n/a	n/a	n/a	n/a
272.1640000000	n/a	272164	NegStim	n/a	n/a	n/a	n/a
275.1970000000	n/a	275197	NegNonAlcStimWithoutStartle	n/a	n/a	n/a	n/a
288.4800000000	n/a	288480	PosStim	n/a	n/a	n/a	n/a
291.5130000000	n/a	291513	PosAlcStimWithoutStartle	n/a	n/a	n/a	n/a
306.5970000000	n/a	306597	NeuStim	n/a	n/a	n/a	n/a
309.6970000000	n/a	309697	NeuNonAlcP3000	n/a	n/a	n/a	n/a
312.6840000000	n/a	312684	NeuNonAlcP3000	n/a	n/a	n/a	n/a
324.6630000000	n/a	324663	NegStim	n/a	n/a	n/a	n/a
327.7630000000	n/a	327763	NegAlcP1000	n/a	n/a	n/a	n/a
332.7500000000	n/a	332750	NegAlcP1000	n/a	n/a	n/a	n/a
342.9630000000	n/a	342963	NeuStim	n/a	n/a	n/a	n/a
346.0630000000	n/a	346063	NeuAlcP3000	n/a	n/a	n/a	n/a
349.0500000000	n/a	349050	NeuAlcP3000	n/a	n/a	n/a	n/a
360.0970000000	n/a	360097	PosStim	n/a	n/a	n/a	n/a
363.1970000000	n/a	363197	PosAlcP3000	n/a	n/a	n/a	n/a
366.1840000000	n/a	366184	PosAlcP3000	n/a	n/a	n/a	n/a
378.8630000000	n/a	378863	NeuStim	n/a	n/a	n/a	n/a
381.8970000000	n/a	381897	NeuAlcStimWithoutStartle	n/a	n/a	n/a	n/a
398.0300000000	n/a	398030	NegStim	n/a	n/a	n/a	n/a
401.1300000000	n/a	401130	NegAlcP1000	n/a	n/a	n/a	n/a
406.1170000000	n/a	406117	NegAlcP1000	n/a	n/a	n/a	n/a
414.3470000000	n/a	414347	NeuStim	n/a	n/a	n/a	n/a
417.4470000000	n/a	417447	NeuNonAlcP3000	n/a	n/a	n/a	n/a
420.4340000000	n/a	420434	NeuNonAlcP3000	n/a	n/a	n/a	n/a
433.7130000000	n/a	433713	NegStim	n/a	n/a	n/a	n/a
436.8130000000	n/a	436813	NegNonAlcP2000	n/a	n/a	n/a	n/a
440.8000000000	n/a	440800	NegNonAlcP2000	n/a	n/a	n/a	n/a
453.8130000000	n/a	453813	PosStim	n/a	n/a	n/a	n/a
456.8470000000	n/a	456847	PosNonAlcStimWithoutStartle	n/a	n/a	n/a	n/a
470.2470000000	n/a	470247	NeuStim	n/a	n/a	n/a	n/a
473.2800000000	n/a	473280	NeuNonAlcStimWithoutStartle	n/a	n/a	n/a	n/a
486.8300000000	n/a	486830	PosStim	n/a	n/a	n/a	n/a
489.9300000000	n/a	489930	PosNonAlcP1000	n/a	n/a	n/a	n/a
494.9170000000	n/a	494917	PosNonAlcP1000	n/a	n/a	n/a	n/a
504.8460000000	n/a	504846	NegStim	n/a	n/a	n/a	n/a
507.8800000000	n/a	507880	NegAlcStimWithoutStartle	n/a	n/a	n/a	n/a
521.3130000000	n/a	521313	NeuStim	n/a	n/a	n/a	n/a
524.4130000000	n/a	524413	NeuAlcP2000	n/a	n/a	n/a	n/a
528.4000000000	n/a	528400	NeuAlcP2000	n/a	n/a	n/a	n/a
540.6960000000	n/a	540696	PosStim	n/a	n/a	n/a	n/a
543.7960000000	n/a	543796	PosNonAlcP1000	n/a	n/a	n/a	n/a
548.7830000000	n/a	548783	PosNonAlcP1000	n/a	n/a	n/a	n/a
559.7460000000	n/a	559746	NeuStim	n/a	n/a	n/a	n/a
562.8460000000	n/a	562846	NeuNonAlcP1000	n/a	n/a	n/a	n/a
567.8330000000	n/a	567833	NeuNonAlcP1000	n/a	n/a	n/a	n/a
579.0960000000	n/a	579096	PosStim	n/a	n/a	n/a	n/a
582.1300000000	n/a	582130	PosNonAlcStimWithoutStartle	n/a	n/a	n/a	n/a
598.3300000000	n/a	598330	NegStim	n/a	n/a	n/a	n/a
601.4300000000	n/a	601430	NegAlcP2000	n/a	n/a	n/a	n/a
605.4170000000	n/a	605417	NegAlcP2000	n/a	n/a	n/a	n/a
616.8460000000	n/a	616846	NeuStim	n/a	n/a	n/a	n/a
619.9460000000	n/a	619946	NeuAlcP3000	n/a	n/a	n/a	n/a
622.9330000000	n/a	622933	NeuAlcP3000	n/a	n/a	n/a	n/a
633.4460000000	n/a	633446	NegStim	n/a	n/a	n/a	n/a
636.4800000000	n/a	636480	NegAlcStimWithoutStartle	n/a	n/a	n/a	n/a
651.5300000000	n/a	651530	NeuStim	n/a	n/a	n/a	n/a
654.6300000000	n/a	654630	NeuNonAlcP2000	n/a	n/a	n/a	n/a
658.6170000000	n/a	658617	NeuNonAlcP2000	n/a	n/a	n/a	n/a
670.5960000000	n/a	670596	PosStim	n/a	n/a	n/a	n/a
673.6960000000	n/a	673696	PosNonAlcP3000	n/a	n/a	n/a	n/a
676.6830000000	n/a	676683	PosNonAlcP3000	n/a	n/a	n/a	n/a
688.8790000000	n/a	688879	NegStim	n/a	n/a	n/a	n/a
691.9790000000	n/a	691979	NegAlcP3000	n/a	n/a	n/a	n/a
694.9660000000	n/a	694966	NegAlcP3000	n/a	n/a	n/a	n/a
705.9630000000	n/a	705963	PosStim	n/a	n/a	n/a	n/a
708.9960000000	n/a	708996	PosAlcStimWithoutStartle	n/a	n/a	n/a	n/a
724.8460000000	n/a	724846	NegStim	n/a	n/a	n/a	n/a
727.9460000000	n/a	727946	NegAlcP1000	n/a	n/a	n/a	n/a
732.9330000000	n/a	732933	NegAlcP1000	n/a	n/a	n/a	n/a
742.2460000000	n/a	742246	PosStim	n/a	n/a	n/a	n/a
745.2790000000	n/a	745279	PosAlcStimWithoutStartle	n/a	n/a	n/a	n/a
761.0960000000	n/a	761096	NegStim	n/a	n/a	n/a	n/a
764.1960000000	n/a	764196	NegNonAlcP2000	n/a	n/a	n/a	n/a
768.1830000000	n/a	768183	NegNonAlcP2000	n/a	n/a	n/a	n/a
779.5960000000	n/a	779596	PosStim	n/a	n/a	n/a	n/a
782.6960000000	n/a	782696	PosAlcP2000	n/a	n/a	n/a	n/a
786.6830000000	n/a	786683	PosAlcP2000	n/a	n/a	n/a	n/a
796.8130000000	n/a	796813	NeuStim	n/a	n/a	n/a	n/a
799.8460000000	n/a	799846	NeuNonAlcStimWithoutStartle	n/a	n/a	n/a	n/a
813.8460000000	n/a	813846	PosStim	n/a	n/a	n/a	n/a
816.9460000000	n/a	816946	PosNonAlcP2000	n/a	n/a	n/a	n/a
820.9330000000	n/a	820933	PosNonAlcP2000	n/a	n/a	n/a	n/a
832.2130000000	n/a	832213	NegStim	n/a	n/a	n/a	n/a
835.2460000000	n/a	835246	NegAlcStimWithoutStartle	n/a	n/a	n/a	n/a
850.6790000000	n/a	850679	PosStim	n/a	n/a	n/a	n/a
853.7790000000	n/a	853779	PosAlcP3000	n/a	n/a	n/a	n/a
856.7660000000	n/a	856766	PosAlcP3000	n/a	n/a	n/a	n/a
870.5460000000	n/a	870546	PosStim	n/a	n/a	n/a	n/a
873.6460000000	n/a	873646	PosNonAlcP3000	n/a	n/a	n/a	n/a
876.6330000000	n/a	876633	PosNonAlcP3000	n/a	n/a	n/a	n/a
889.9460000000	n/a	889946	NeuStim	n/a	n/a	n/a	n/a
892.9790000000	n/a	892979	NeuNonAlcStimWithoutStartle	n/a	n/a	n/a	n/a
906.7290000000	n/a	906729	NeuStim	n/a	n/a	n/a	n/a
909.8290000000	n/a	909829	NeuNonAlcP3000	n/a	n/a	n/a	n/a
912.8160000000	n/a	912816	NeuNonAlcP3000	n/a	n/a	n/a	n/a
925.4290000000	n/a	925429	PosStim	n/a	n/a	n/a	n/a
928.5290000000	n/a	928529	PosAlcP2000	n/a	n/a	n/a	n/a
932.5160000000	n/a	932516	PosAlcP2000	n/a	n/a	n/a	n/a
942.8120000000	n/a	942812	NegStim	n/a	n/a	n/a	n/a
945.9120000000	n/a	945912	NegAlcP1000	n/a	n/a	n/a	n/a
950.8990000000	n/a	950899	NegAlcP1000	n/a	n/a	n/a	n/a
961.0120000000	n/a	961012	PosStim	n/a	n/a	n/a	n/a
964.1120000000	n/a	964112	PosNonAlcP2000	n/a	n/a	n/a	n/a
968.0990000000	n/a	968099	PosNonAlcP2000	n/a	n/a	n/a	n/a
979.6290000000	n/a	979629	NeuStim	n/a	n/a	n/a	n/a
982.6620000000	n/a	982662	NeuNonAlcStimWithoutStartle	n/a	n/a	n/a	n/a
997.8290000000	n/a	997829	NegStim	n/a	n/a	n/a	n/a
1000.9290000000	n/a	1000929	NegAlcP2000	n/a	n/a	n/a	n/a
1004.9160000000	n/a	1004916	NegAlcP2000	n/a	n/a	n/a	n/a
1015.8790000000	n/a	1015879	PosStim	n/a	n/a	n/a	n/a
1018.9790000000	n/a	1018979	PosAlcP3000	n/a	n/a	n/a	n/a
1021.9660000000	n/a	1021966	PosAlcP3000	n/a	n/a	n/a	n/a
1035.6620000000	n/a	1035662	NeuStim	n/a	n/a	n/a	n/a
1038.6960000000	n/a	1038696	NeuAlcStimWithoutStartle	n/a	n/a	n/a	n/a
1053.0960000000	n/a	1053096	NegStim	n/a	n/a	n/a	n/a
1056.1960000000	n/a	1056196	NegNonAlcP3000	n/a	n/a	n/a	n/a
1059.1830000000	n/a	1059183	NegNonAlcP3000	n/a	n/a	n/a	n/a
