onset	duration	sample	trial_type	response_time	stim_file	value	correct
4.3370000000	n/a	4337	FrequentFixedSOA	1633	n/a	n/a	1
5.9700000000	n/a	5970	FrequentFixedSOA	1633	n/a	n/a	1
7.6040000000	n/a	7604	FrequentFixedSOA	1633	n/a	n/a	1
9.2370000000	n/a	9237	FrequentFixedSOA	1633	n/a	n/a	1
10.8700000000	n/a	10870	FrequentFixedSOA	1633	n/a	n/a	1
12.5040000000	n/a	12504	FrequentFixedSOA	1633	n/a	n/a	1
14.1370000000	n/a	14137	FrequentFixedSOA	1633	n/a	n/a	1
15.7700000000	n/a	15770	FrequentFixedSOA	1633	n/a	n/a	1
17.4040000000	n/a	17404	FrequentFixedSOA	1633	n/a	n/a	1
19.0370000000	n/a	19037	FrequentFixedSOA	1633	n/a	n/a	1
20.6700000000	n/a	20670	NovelFixedSOA	1633	n/a	n/a	1
22.3040000000	n/a	22304	FrequentFixedSOA	1633	n/a	n/a	1
23.9370000000	n/a	23937	GoFixedSOA	1633	n/a	n/a	0
25.5700000000	n/a	25570	FrequentFixedSOA	1633	n/a	n/a	1
27.2040000000	n/a	27204	FrequentFixedSOA	1633	n/a	n/a	1
28.8370000000	n/a	28837	FrequentFixedSOA	1633	n/a	n/a	1
30.4700000000	n/a	30470	GoFixedSOA	837	n/a	n/a	1
32.1040000000	n/a	32104	FrequentFixedSOA	1633	n/a	n/a	1
33.7370000000	n/a	33737	FrequentFixedSOA	1633	n/a	n/a	1
35.3700000000	n/a	35370	FrequentFixedSOA	1633	n/a	n/a	1
37.0040000000	n/a	37004	NovelFixedSOA	1633	n/a	n/a	1
38.6370000000	n/a	38637	FrequentFixedSOA	1633	n/a	n/a	1
40.2700000000	n/a	40270	FrequentFixedSOA	1633	n/a	n/a	1
41.9040000000	n/a	41904	FrequentFixedSOA	1633	n/a	n/a	1
43.5370000000	n/a	43537	GoFixedSOA	745	n/a	n/a	1
45.1700000000	n/a	45170	FrequentFixedSOA	1633	n/a	n/a	1
46.8040000000	n/a	46804	NovelFixedSOA	1633	n/a	n/a	1
48.4370000000	n/a	48437	FrequentFixedSOA	1633	n/a	n/a	1
50.0700000000	n/a	50070	FrequentFixedSOA	1633	n/a	n/a	1
51.7040000000	n/a	51704	FrequentFixedSOA	1633	n/a	n/a	1
53.3370000000	n/a	53337	GoFixedSOA	413	n/a	n/a	1
54.9700000000	n/a	54970	FrequentFixedSOA	1633	n/a	n/a	1
56.6040000000	n/a	56604	GoFixedSOA	532	n/a	n/a	1
58.2370000000	n/a	58237	FrequentFixedSOA	1633	n/a	n/a	1
59.8700000000	n/a	59870	FrequentFixedSOA	1633	n/a	n/a	1
61.5040000000	n/a	61504	GoFixedSOA	394	n/a	n/a	1
63.1370000000	n/a	63137	FrequentFixedSOA	1633	n/a	n/a	1
64.7700000000	n/a	64770	FrequentFixedSOA	1633	n/a	n/a	1
66.4040000000	n/a	66404	FrequentFixedSOA	1633	n/a	n/a	1
68.0370000000	n/a	68037	FrequentFixedSOA	1633	n/a	n/a	1
69.6700000000	n/a	69670	NovelFixedSOA	1633	n/a	n/a	1
71.3040000000	n/a	71304	FrequentFixedSOA	1633	n/a	n/a	1
72.9370000000	n/a	72937	NovelFixedSOA	1633	n/a	n/a	1
74.5700000000	n/a	74570	FrequentFixedSOA	1633	n/a	n/a	1
76.2040000000	n/a	76204	FrequentFixedSOA	1633	n/a	n/a	1
77.8370000000	n/a	77837	GoFixedSOA	373	n/a	n/a	1
79.4700000000	n/a	79470	FrequentFixedSOA	1633	n/a	n/a	1
81.1040000000	n/a	81104	FrequentFixedSOA	1633	n/a	n/a	1
82.7370000000	n/a	82737	FrequentFixedSOA	1633	n/a	n/a	1
84.3700000000	n/a	84370	FrequentFixedSOA	1633	n/a	n/a	1
86.0040000000	n/a	86004	NovelFixedSOA	1633	n/a	n/a	1
87.6370000000	n/a	87637	FrequentFixedSOA	1633	n/a	n/a	1
89.2700000000	n/a	89270	FrequentFixedSOA	1633	n/a	n/a	1
90.9040000000	n/a	90904	FrequentFixedSOA	1633	n/a	n/a	1
92.5370000000	n/a	92537	FrequentFixedSOA	1633	n/a	n/a	1
94.1700000000	n/a	94170	GoFixedSOA	448	n/a	n/a	1
95.8040000000	n/a	95804	FrequentFixedSOA	1633	n/a	n/a	1
97.4370000000	n/a	97437	FrequentFixedSOA	1633	n/a	n/a	1
99.0700000000	n/a	99070	NovelFixedSOA	1633	n/a	n/a	1
100.7030000000	n/a	100703	FrequentFixedSOA	1633	n/a	n/a	1
102.3370000000	n/a	102337	FrequentFixedSOA	1633	n/a	n/a	1
103.9700000000	n/a	103970	GoFixedSOA	557	n/a	n/a	1
105.6030000000	n/a	105603	FrequentFixedSOA	1633	n/a	n/a	1
107.2370000000	n/a	107237	FrequentFixedSOA	1633	n/a	n/a	1
108.8700000000	n/a	108870	FrequentFixedSOA	1633	n/a	n/a	1
110.5030000000	n/a	110503	FrequentFixedSOA	1633	n/a	n/a	1
112.1370000000	n/a	112137	NovelFixedSOA	1633	n/a	n/a	1
113.7700000000	n/a	113770	FrequentFixedSOA	1633	n/a	n/a	1
115.4030000000	n/a	115403	FrequentFixedSOA	1633	n/a	n/a	1
117.0370000000	n/a	117037	GoFixedSOA	610	n/a	n/a	1
118.6700000000	n/a	118670	FrequentVariableSOA	1583	n/a	n/a	1
120.2530000000	n/a	120253	FrequentVariableSOA	1733	n/a	n/a	1
121.9870000000	n/a	121987	FrequentVariableSOA	1800	n/a	n/a	1
123.7870000000	n/a	123787	FrequentVariableSOA	1700	n/a	n/a	1
125.4870000000	n/a	125487	FrequentVariableSOA	1766	n/a	n/a	1
127.2530000000	n/a	127253	FrequentVariableSOA	1666	n/a	n/a	1
128.9200000000	n/a	128920	FrequentVariableSOA	1700	n/a	n/a	1
130.6200000000	n/a	130620	FrequentVariableSOA	1800	n/a	n/a	1
132.4200000000	n/a	132420	FrequentVariableSOA	1700	n/a	n/a	1
134.1200000000	n/a	134120	FrequentVariableSOA	1783	n/a	n/a	1
135.9030000000	n/a	135903	NovelVariableSOA	1666	n/a	n/a	1
137.5700000000	n/a	137570	FrequentVariableSOA	1550	n/a	n/a	1
139.1200000000	n/a	139120	GoVariableSOA	1783	n/a	n/a	0
140.9030000000	n/a	140903	FrequentVariableSOA	1750	n/a	n/a	1
142.6530000000	n/a	142653	FrequentVariableSOA	1600	n/a	n/a	1
144.2530000000	n/a	144253	FrequentVariableSOA	1666	n/a	n/a	1
145.9200000000	n/a	145920	GoVariableSOA	738	n/a	n/a	1
147.6530000000	n/a	147653	FrequentVariableSOA	1533	n/a	n/a	1
149.1870000000	n/a	149187	FrequentVariableSOA	1566	n/a	n/a	1
150.7530000000	n/a	150753	FrequentVariableSOA	1616	n/a	n/a	1
152.3700000000	n/a	152370	NovelVariableSOA	1800	n/a	n/a	1
154.1700000000	n/a	154170	FrequentVariableSOA	1733	n/a	n/a	1
155.9030000000	n/a	155903	FrequentVariableSOA	1766	n/a	n/a	1
157.6700000000	n/a	157670	FrequentVariableSOA	1633	n/a	n/a	1
159.3030000000	n/a	159303	GoVariableSOA	727	n/a	n/a	1
160.9030000000	n/a	160903	FrequentVariableSOA	1766	n/a	n/a	1
162.6700000000	n/a	162670	NovelVariableSOA	1666	n/a	n/a	1
164.3370000000	n/a	164337	FrequentVariableSOA	1750	n/a	n/a	1
166.0870000000	n/a	166087	FrequentVariableSOA	1700	n/a	n/a	1
167.7870000000	n/a	167787	FrequentVariableSOA	1633	n/a	n/a	1
169.4200000000	n/a	169420	GoVariableSOA	887	n/a	n/a	1
171.2200000000	n/a	171220	FrequentVariableSOA	1633	n/a	n/a	1
172.8530000000	n/a	172853	GoVariableSOA	741	n/a	n/a	1
174.5530000000	n/a	174553	FrequentVariableSOA	1650	n/a	n/a	1
176.2030000000	n/a	176203	FrequentVariableSOA	1750	n/a	n/a	1
177.9530000000	n/a	177953	GoVariableSOA	680	n/a	n/a	1
179.5700000000	n/a	179570	FrequentVariableSOA	1550	n/a	n/a	1
181.1200000000	n/a	181120	FrequentVariableSOA	1700	n/a	n/a	1
182.8200000000	n/a	182820	FrequentVariableSOA	1716	n/a	n/a	1
184.5370000000	n/a	184537	FrequentVariableSOA	1533	n/a	n/a	1
186.0700000000	n/a	186070	NovelVariableSOA	1650	n/a	n/a	1
187.7200000000	n/a	187720	FrequentVariableSOA	1700	n/a	n/a	1
189.4200000000	n/a	189420	NovelVariableSOA	1716	n/a	n/a	1
191.1370000000	n/a	191137	FrequentVariableSOA	1716	n/a	n/a	1
192.8530000000	n/a	192853	FrequentVariableSOA	1750	n/a	n/a	1
194.6030000000	n/a	194603	GoVariableSOA	738	n/a	n/a	1
196.3200000000	n/a	196320	FrequentVariableSOA	1600	n/a	n/a	1
197.9200000000	n/a	197920	FrequentVariableSOA	1650	n/a	n/a	1
199.5700000000	n/a	199570	FrequentVariableSOA	1766	n/a	n/a	1
201.3370000000	n/a	201337	FrequentVariableSOA	1766	n/a	n/a	1
203.1030000000	n/a	203103	NovelVariableSOA	1650	n/a	n/a	1
204.7530000000	n/a	204753	FrequentVariableSOA	1700	n/a	n/a	1
206.4530000000	n/a	206453	FrequentVariableSOA	1750	n/a	n/a	1
208.2030000000	n/a	208203	FrequentVariableSOA	1516	n/a	n/a	1
209.7200000000	n/a	209720	FrequentVariableSOA	1633	n/a	n/a	1
211.3530000000	n/a	211353	GoVariableSOA	707	n/a	n/a	1
212.9030000000	n/a	212903	FrequentVariableSOA	1750	n/a	n/a	1
214.6530000000	n/a	214653	FrequentVariableSOA	1783	n/a	n/a	1
216.4370000000	n/a	216437	NovelVariableSOA	1616	n/a	n/a	1
218.0530000000	n/a	218053	FrequentVariableSOA	1633	n/a	n/a	1
219.6870000000	n/a	219687	FrequentVariableSOA	1733	n/a	n/a	1
221.4200000000	n/a	221420	GoVariableSOA	619	n/a	n/a	1
223.0030000000	n/a	223003	FrequentVariableSOA	1716	n/a	n/a	1
224.7200000000	n/a	224720	FrequentVariableSOA	1783	n/a	n/a	1
226.5030000000	n/a	226503	FrequentVariableSOA	1783	n/a	n/a	1
228.2870000000	n/a	228287	FrequentVariableSOA	1766	n/a	n/a	1
230.0530000000	n/a	230053	NovelVariableSOA	1783	n/a	n/a	1
231.8370000000	n/a	231837	FrequentVariableSOA	1683	n/a	n/a	1
233.5200000000	n/a	233520	FrequentVariableSOA	1733	n/a	n/a	1
235.2530000000	n/a	235253	GoVariableSOA	697	n/a	n/a	1
237.0030000000	n/a	237003	FrequentFixedSOA	1633	n/a	n/a	1
238.6370000000	n/a	238637	FrequentFixedSOA	1633	n/a	n/a	1
240.2700000000	n/a	240270	FrequentFixedSOA	1633	n/a	n/a	1
241.9030000000	n/a	241903	GoFixedSOA	721	n/a	n/a	1
243.5370000000	n/a	243537	FrequentFixedSOA	1633	n/a	n/a	1
245.1700000000	n/a	245170	FrequentFixedSOA	1633	n/a	n/a	1
246.8030000000	n/a	246803	FrequentFixedSOA	1633	n/a	n/a	1
248.4370000000	n/a	248437	GoFixedSOA	630	n/a	n/a	1
250.0700000000	n/a	250070	FrequentFixedSOA	1633	n/a	n/a	1
251.7030000000	n/a	251703	FrequentFixedSOA	1633	n/a	n/a	1
253.3370000000	n/a	253337	FrequentFixedSOA	1633	n/a	n/a	1
254.9700000000	n/a	254970	NovelFixedSOA	1633	n/a	n/a	1
256.6030000000	n/a	256603	FrequentFixedSOA	1633	n/a	n/a	1
258.2370000000	n/a	258237	NovelFixedSOA	1633	n/a	n/a	1
259.8700000000	n/a	259870	FrequentFixedSOA	1633	n/a	n/a	1
261.5030000000	n/a	261503	FrequentFixedSOA	1633	n/a	n/a	1
263.1370000000	n/a	263137	NovelFixedSOA	1633	n/a	n/a	1
264.7700000000	n/a	264770	FrequentFixedSOA	1633	n/a	n/a	1
266.4030000000	n/a	266403	FrequentFixedSOA	1633	n/a	n/a	1
268.0370000000	n/a	268037	FrequentFixedSOA	1633	n/a	n/a	1
269.6700000000	n/a	269670	FrequentFixedSOA	1633	n/a	n/a	1
271.3030000000	n/a	271303	FrequentFixedSOA	1633	n/a	n/a	1
272.9370000000	n/a	272937	NovelFixedSOA	1633	n/a	n/a	1
274.5700000000	n/a	274570	FrequentFixedSOA	1633	n/a	n/a	1
276.2030000000	n/a	276203	FrequentFixedSOA	1633	n/a	n/a	1
277.8370000000	n/a	277837	FrequentFixedSOA	1633	n/a	n/a	1
279.4700000000	n/a	279470	FrequentFixedSOA	1633	n/a	n/a	1
281.1030000000	n/a	281103	FrequentFixedSOA	1633	n/a	n/a	1
282.7370000000	n/a	282737	GoFixedSOA	451	n/a	n/a	1
284.3700000000	n/a	284370	FrequentFixedSOA	1633	n/a	n/a	1
286.0030000000	n/a	286003	FrequentFixedSOA	1633	n/a	n/a	1
287.6370000000	n/a	287637	GoFixedSOA	692	n/a	n/a	1
289.2700000000	n/a	289270	FrequentFixedSOA	1633	n/a	n/a	1
290.9030000000	n/a	290903	NovelFixedSOA	1633	n/a	n/a	1
292.5370000000	n/a	292537	FrequentFixedSOA	1633	n/a	n/a	1
294.1700000000	n/a	294170	GoFixedSOA	683	n/a	n/a	1
295.8030000000	n/a	295803	FrequentFixedSOA	1633	n/a	n/a	1
297.4370000000	n/a	297437	GoFixedSOA	700	n/a	n/a	1
299.0700000000	n/a	299070	FrequentFixedSOA	1633	n/a	n/a	1
300.7030000000	n/a	300703	FrequentFixedSOA	1633	n/a	n/a	1
302.3370000000	n/a	302337	FrequentFixedSOA	1633	n/a	n/a	1
303.9700000000	n/a	303970	FrequentFixedSOA	1633	n/a	n/a	1
305.6030000000	n/a	305603	GoFixedSOA	652	n/a	n/a	1
307.2360000000	n/a	307236	FrequentFixedSOA	1633	n/a	n/a	1
308.8700000000	n/a	308870	FrequentFixedSOA	1633	n/a	n/a	1
310.5030000000	n/a	310503	FrequentFixedSOA	1633	n/a	n/a	1
312.1360000000	n/a	312136	NovelFixedSOA	1633	n/a	n/a	1
313.7700000000	n/a	313770	FrequentFixedSOA	1633	n/a	n/a	1
315.4030000000	n/a	315403	FrequentFixedSOA	1633	n/a	n/a	1
317.0360000000	n/a	317036	FrequentFixedSOA	1633	n/a	n/a	1
318.6700000000	n/a	318670	FrequentFixedSOA	1633	n/a	n/a	1
320.3030000000	n/a	320303	NovelFixedSOA	1633	n/a	n/a	1
321.9360000000	n/a	321936	FrequentFixedSOA	1633	n/a	n/a	1
323.5700000000	n/a	323570	FrequentFixedSOA	1633	n/a	n/a	1
325.2030000000	n/a	325203	FrequentFixedSOA	1633	n/a	n/a	1
326.8360000000	n/a	326836	FrequentFixedSOA	1633	n/a	n/a	1
328.4700000000	n/a	328470	NovelFixedSOA	1633	n/a	n/a	1
330.1030000000	n/a	330103	FrequentFixedSOA	1633	n/a	n/a	1
331.7360000000	n/a	331736	FrequentFixedSOA	1633	n/a	n/a	1
333.3700000000	n/a	333370	GoFixedSOA	929	n/a	n/a	1
335.0030000000	n/a	335003	FrequentFixedSOA	1633	n/a	n/a	1
336.6360000000	n/a	336636	FrequentFixedSOA	1633	n/a	n/a	1
338.2700000000	n/a	338270	FrequentFixedSOA	1633	n/a	n/a	1
339.9030000000	n/a	339903	FrequentFixedSOA	1633	n/a	n/a	1
341.5360000000	n/a	341536	NovelFixedSOA	1633	n/a	n/a	1
343.1700000000	n/a	343170	FrequentFixedSOA	1633	n/a	n/a	1
344.8030000000	n/a	344803	FrequentFixedSOA	1633	n/a	n/a	1
346.4360000000	n/a	346436	FrequentFixedSOA	1633	n/a	n/a	1
348.0700000000	n/a	348070	FrequentFixedSOA	1633	n/a	n/a	1
349.7030000000	n/a	349703	FrequentFixedSOA	1633	n/a	n/a	1
351.3360000000	n/a	351336	FrequentVariableSOA	1633	n/a	n/a	1
352.9700000000	n/a	352970	FrequentVariableSOA	1683	n/a	n/a	1
354.6530000000	n/a	354653	FrequentVariableSOA	1566	n/a	n/a	1
356.2200000000	n/a	356220	GoVariableSOA	436	n/a	n/a	1
357.7860000000	n/a	357786	FrequentVariableSOA	1616	n/a	n/a	1
359.4030000000	n/a	359403	FrequentVariableSOA	1650	n/a	n/a	1
361.0530000000	n/a	361053	FrequentVariableSOA	1633	n/a	n/a	1
362.6860000000	n/a	362686	GoVariableSOA	424	n/a	n/a	1
364.4200000000	n/a	364420	FrequentVariableSOA	1683	n/a	n/a	1
366.1030000000	n/a	366103	FrequentVariableSOA	1683	n/a	n/a	1
367.7860000000	n/a	367786	FrequentVariableSOA	1683	n/a	n/a	1
369.4700000000	n/a	369470	NovelVariableSOA	1533	n/a	n/a	1
371.0030000000	n/a	371003	FrequentVariableSOA	1633	n/a	n/a	1
372.6360000000	n/a	372636	NovelVariableSOA	1600	n/a	n/a	1
374.2360000000	n/a	374236	FrequentVariableSOA	1533	n/a	n/a	1
375.7700000000	n/a	375770	FrequentVariableSOA	1616	n/a	n/a	1
377.3860000000	n/a	377386	NovelVariableSOA	1616	n/a	n/a	1
379.0030000000	n/a	379003	FrequentVariableSOA	1516	n/a	n/a	1
380.5200000000	n/a	380520	FrequentVariableSOA	1566	n/a	n/a	1
382.0860000000	n/a	382086	FrequentVariableSOA	1683	n/a	n/a	1
383.7700000000	n/a	383770	FrequentVariableSOA	1783	n/a	n/a	1
385.5530000000	n/a	385553	FrequentVariableSOA	1516	n/a	n/a	1
387.0700000000	n/a	387070	NovelVariableSOA	1783	n/a	n/a	1
388.8530000000	n/a	388853	FrequentVariableSOA	1516	n/a	n/a	1
390.3700000000	n/a	390370	FrequentVariableSOA	1700	n/a	n/a	1
392.0700000000	n/a	392070	FrequentVariableSOA	1700	n/a	n/a	1
393.7700000000	n/a	393770	FrequentVariableSOA	1633	n/a	n/a	1
395.4030000000	n/a	395403	FrequentVariableSOA	1566	n/a	n/a	1
396.9700000000	n/a	396970	GoVariableSOA	890	n/a	n/a	1
398.6700000000	n/a	398670	FrequentVariableSOA	1650	n/a	n/a	1
400.3200000000	n/a	400320	FrequentVariableSOA	1700	n/a	n/a	1
402.0200000000	n/a	402020	GoVariableSOA	552	n/a	n/a	1
403.6530000000	n/a	403653	FrequentVariableSOA	1516	n/a	n/a	1
405.1700000000	n/a	405170	NovelVariableSOA	1533	n/a	n/a	1
406.7030000000	n/a	406703	FrequentVariableSOA	1783	n/a	n/a	1
408.4860000000	n/a	408486	GoVariableSOA	574	n/a	n/a	1
410.0860000000	n/a	410086	FrequentVariableSOA	1716	n/a	n/a	1
411.8030000000	n/a	411803	GoVariableSOA	576	n/a	n/a	1
413.4860000000	n/a	413486	FrequentVariableSOA	1683	n/a	n/a	1
415.1700000000	n/a	415170	FrequentVariableSOA	1616	n/a	n/a	1
416.7860000000	n/a	416786	FrequentVariableSOA	1516	n/a	n/a	1
418.3030000000	n/a	418303	FrequentVariableSOA	1566	n/a	n/a	1
419.8700000000	n/a	419870	GoVariableSOA	526	n/a	n/a	1
421.4530000000	n/a	421453	FrequentVariableSOA	1550	n/a	n/a	1
423.0030000000	n/a	423003	FrequentVariableSOA	1516	n/a	n/a	1
424.5200000000	n/a	424520	FrequentVariableSOA	1750	n/a	n/a	1
426.2700000000	n/a	426270	NovelVariableSOA	1766	n/a	n/a	1
428.0360000000	n/a	428036	FrequentVariableSOA	1650	n/a	n/a	1
429.6860000000	n/a	429686	FrequentVariableSOA	1733	n/a	n/a	1
431.4200000000	n/a	431420	FrequentVariableSOA	1600	n/a	n/a	1
433.0200000000	n/a	433020	FrequentVariableSOA	1566	n/a	n/a	1
434.5860000000	n/a	434586	NovelVariableSOA	1600	n/a	n/a	1
436.1860000000	n/a	436186	FrequentVariableSOA	1583	n/a	n/a	1
437.7700000000	n/a	437770	FrequentVariableSOA	1650	n/a	n/a	1
439.4200000000	n/a	439420	FrequentVariableSOA	1750	n/a	n/a	1
441.1700000000	n/a	441170	FrequentVariableSOA	1566	n/a	n/a	1
442.7360000000	n/a	442736	NovelVariableSOA	1583	n/a	n/a	1
444.3200000000	n/a	444320	FrequentVariableSOA	1783	n/a	n/a	1
446.1030000000	n/a	446103	FrequentVariableSOA	1600	n/a	n/a	1
447.7030000000	n/a	447703	GoVariableSOA	660	n/a	n/a	1
449.2200000000	n/a	449220	FrequentVariableSOA	1683	n/a	n/a	1
450.9030000000	n/a	450903	FrequentVariableSOA	1700	n/a	n/a	1
452.6030000000	n/a	452603	FrequentVariableSOA	1550	n/a	n/a	1
454.1530000000	n/a	454153	FrequentVariableSOA	1683	n/a	n/a	1
455.8360000000	n/a	455836	NovelVariableSOA	1600	n/a	n/a	1
457.4360000000	n/a	457436	FrequentVariableSOA	1633	n/a	n/a	1
459.0700000000	n/a	459070	FrequentVariableSOA	1733	n/a	n/a	1
460.8030000000	n/a	460803	FrequentVariableSOA	1800	n/a	n/a	1
462.6030000000	n/a	462603	FrequentVariableSOA	1750	n/a	n/a	1
464.3530000000	n/a	464353	FrequentVariableSOA	1700	n/a	n/a	1
466.0530000000	n/a	466053	GoFixedSOA	631	n/a	n/a	1
467.6860000000	n/a	467686	FrequentFixedSOA	1633	n/a	n/a	1
469.3200000000	n/a	469320	FrequentFixedSOA	1633	n/a	n/a	1
470.9530000000	n/a	470953	FrequentFixedSOA	1633	n/a	n/a	1
472.5860000000	n/a	472586	FrequentFixedSOA	1633	n/a	n/a	1
474.2200000000	n/a	474220	FrequentFixedSOA	1633	n/a	n/a	1
475.8530000000	n/a	475853	FrequentFixedSOA	1633	n/a	n/a	1
477.4860000000	n/a	477486	NovelFixedSOA	1633	n/a	n/a	1
479.1200000000	n/a	479120	FrequentFixedSOA	1633	n/a	n/a	1
480.7530000000	n/a	480753	FrequentFixedSOA	1633	n/a	n/a	1
482.3860000000	n/a	482386	FrequentFixedSOA	1633	n/a	n/a	1
484.0200000000	n/a	484020	NovelFixedSOA	1633	n/a	n/a	1
485.6530000000	n/a	485653	FrequentFixedSOA	1633	n/a	n/a	1
487.2860000000	n/a	487286	GoFixedSOA	585	n/a	n/a	1
488.9200000000	n/a	488920	FrequentFixedSOA	1633	n/a	n/a	1
490.5530000000	n/a	490553	FrequentFixedSOA	1633	n/a	n/a	1
492.1860000000	n/a	492186	GoFixedSOA	515	n/a	n/a	1
493.8200000000	n/a	493820	FrequentFixedSOA	1633	n/a	n/a	1
495.4530000000	n/a	495453	NovelFixedSOA	1633	n/a	n/a	1
497.0860000000	n/a	497086	FrequentFixedSOA	1633	n/a	n/a	1
498.7200000000	n/a	498720	FrequentFixedSOA	1633	n/a	n/a	1
500.3530000000	n/a	500353	FrequentFixedSOA	1633	n/a	n/a	1
501.9860000000	n/a	501986	FrequentFixedSOA	1633	n/a	n/a	1
503.6200000000	n/a	503620	FrequentFixedSOA	1633	n/a	n/a	1
505.2530000000	n/a	505253	GoFixedSOA	478	n/a	n/a	1
506.8860000000	n/a	506886	FrequentFixedSOA	1633	n/a	n/a	1
508.5200000000	n/a	508520	FrequentFixedSOA	1633	n/a	n/a	1
510.1530000000	n/a	510153	NovelFixedSOA	1633	n/a	n/a	1
511.7860000000	n/a	511786	FrequentFixedSOA	1633	n/a	n/a	1
513.4190000000	n/a	513419	FrequentFixedSOA	1633	n/a	n/a	1
515.0530000000	n/a	515053	FrequentFixedSOA	1633	n/a	n/a	1
516.6860000000	n/a	516686	FrequentFixedSOA	1633	n/a	n/a	1
518.3190000000	n/a	518319	FrequentFixedSOA	1633	n/a	n/a	1
519.9530000000	n/a	519953	NovelFixedSOA	1633	n/a	n/a	1
521.5860000000	n/a	521586	FrequentFixedSOA	1633	n/a	n/a	1
523.2190000000	n/a	523219	FrequentFixedSOA	1633	n/a	n/a	1
524.8530000000	n/a	524853	FrequentFixedSOA	1633	n/a	n/a	1
526.4860000000	n/a	526486	FrequentFixedSOA	1633	n/a	n/a	1
528.1190000000	n/a	528119	GoFixedSOA	387	n/a	n/a	1
529.7530000000	n/a	529753	FrequentFixedSOA	1633	n/a	n/a	1
531.3860000000	n/a	531386	FrequentFixedSOA	1633	n/a	n/a	1
533.0190000000	n/a	533019	NovelFixedSOA	1633	n/a	n/a	1
534.6530000000	n/a	534653	FrequentFixedSOA	1633	n/a	n/a	1
536.2860000000	n/a	536286	FrequentFixedSOA	1633	n/a	n/a	1
537.9190000000	n/a	537919	NovelFixedSOA	1633	n/a	n/a	1
539.5530000000	n/a	539553	FrequentFixedSOA	1633	n/a	n/a	1
541.1860000000	n/a	541186	FrequentFixedSOA	1633	n/a	n/a	1
542.8190000000	n/a	542819	FrequentFixedSOA	1633	n/a	n/a	1
544.4530000000	n/a	544453	FrequentFixedSOA	1633	n/a	n/a	1
546.0860000000	n/a	546086	FrequentFixedSOA	1633	n/a	n/a	1
547.7190000000	n/a	547719	GoFixedSOA	409	n/a	n/a	1
549.3530000000	n/a	549353	FrequentFixedSOA	1633	n/a	n/a	1
550.9860000000	n/a	550986	FrequentFixedSOA	1633	n/a	n/a	1
552.6190000000	n/a	552619	FrequentFixedSOA	1633	n/a	n/a	1
554.2530000000	n/a	554253	FrequentFixedSOA	1633	n/a	n/a	1
555.8860000000	n/a	555886	FrequentFixedSOA	1633	n/a	n/a	1
557.5190000000	n/a	557519	NovelFixedSOA	1633	n/a	n/a	1
559.1530000000	n/a	559153	FrequentFixedSOA	1633	n/a	n/a	1
560.7860000000	n/a	560786	GoFixedSOA	396	n/a	n/a	1
562.4190000000	n/a	562419	FrequentFixedSOA	1633	n/a	n/a	1
564.0530000000	n/a	564053	FrequentFixedSOA	1633	n/a	n/a	1
565.6860000000	n/a	565686	FrequentFixedSOA	1633	n/a	n/a	1
567.3190000000	n/a	567319	FrequentFixedSOA	1633	n/a	n/a	1
568.9530000000	n/a	568953	FrequentFixedSOA	1633	n/a	n/a	1
570.5860000000	n/a	570586	FrequentFixedSOA	1633	n/a	n/a	1
572.2190000000	n/a	572219	FrequentFixedSOA	1633	n/a	n/a	1
573.8530000000	n/a	573853	FrequentFixedSOA	1633	n/a	n/a	1
575.4860000000	n/a	575486	NovelFixedSOA	1633	n/a	n/a	1
577.1190000000	n/a	577119	FrequentFixedSOA	1633	n/a	n/a	1
578.7530000000	n/a	578753	FrequentFixedSOA	1633	n/a	n/a	1
580.3860000000	n/a	580386	GoVariableSOA	515	n/a	n/a	1
582.0860000000	n/a	582086	FrequentVariableSOA	1733	n/a	n/a	1
583.8190000000	n/a	583819	FrequentVariableSOA	1616	n/a	n/a	1
585.4360000000	n/a	585436	FrequentVariableSOA	1716	n/a	n/a	1
587.1530000000	n/a	587153	FrequentVariableSOA	1533	n/a	n/a	1
588.6860000000	n/a	588686	FrequentVariableSOA	1700	n/a	n/a	1
590.3860000000	n/a	590386	FrequentVariableSOA	1633	n/a	n/a	1
592.0190000000	n/a	592019	NovelVariableSOA	1783	n/a	n/a	1
593.8030000000	n/a	593803	FrequentVariableSOA	1750	n/a	n/a	1
595.5530000000	n/a	595553	FrequentVariableSOA	1766	n/a	n/a	1
597.3190000000	n/a	597319	FrequentVariableSOA	1583	n/a	n/a	1
598.9030000000	n/a	598903	NovelVariableSOA	1583	n/a	n/a	1
600.4860000000	n/a	600486	FrequentVariableSOA	1583	n/a	n/a	1
602.0690000000	n/a	602069	GoVariableSOA	327	n/a	n/a	1
603.7860000000	n/a	603786	FrequentVariableSOA	1716	n/a	n/a	1
605.5030000000	n/a	605503	FrequentVariableSOA	1550	n/a	n/a	1
607.0530000000	n/a	607053	GoVariableSOA	337	n/a	n/a	1
608.7190000000	n/a	608719	FrequentVariableSOA	1750	n/a	n/a	1
610.4690000000	n/a	610469	NovelVariableSOA	1616	n/a	n/a	1
612.0860000000	n/a	612086	FrequentVariableSOA	1550	n/a	n/a	1
613.6360000000	n/a	613636	FrequentVariableSOA	1716	n/a	n/a	1
615.3530000000	n/a	615353	FrequentVariableSOA	1566	n/a	n/a	1
616.9190000000	n/a	616919	FrequentVariableSOA	1633	n/a	n/a	1
618.5530000000	n/a	618553	FrequentVariableSOA	1583	n/a	n/a	1
620.1360000000	n/a	620136	GoVariableSOA	388	n/a	n/a	1
621.6860000000	n/a	621686	FrequentVariableSOA	1583	n/a	n/a	1
623.2690000000	n/a	623269	FrequentVariableSOA	1750	n/a	n/a	1
625.0190000000	n/a	625019	NovelVariableSOA	1583	n/a	n/a	1
626.6030000000	n/a	626603	FrequentVariableSOA	1700	n/a	n/a	1
628.3030000000	n/a	628303	FrequentVariableSOA	1666	n/a	n/a	1
629.9690000000	n/a	629969	FrequentVariableSOA	1550	n/a	n/a	1
631.5190000000	n/a	631519	FrequentVariableSOA	1750	n/a	n/a	1
633.2690000000	n/a	633269	FrequentVariableSOA	1650	n/a	n/a	1
634.9190000000	n/a	634919	NovelVariableSOA	1783	n/a	n/a	1
636.7030000000	n/a	636703	FrequentVariableSOA	1766	n/a	n/a	1
638.4690000000	n/a	638469	FrequentVariableSOA	1633	n/a	n/a	1
640.1030000000	n/a	640103	FrequentVariableSOA	1533	n/a	n/a	1
641.6360000000	n/a	641636	FrequentVariableSOA	1733	n/a	n/a	1
643.3690000000	n/a	643369	GoVariableSOA	390	n/a	n/a	1
645.1190000000	n/a	645119	FrequentVariableSOA	1533	n/a	n/a	1
646.6530000000	n/a	646653	FrequentVariableSOA	1750	n/a	n/a	1
648.4030000000	n/a	648403	NovelVariableSOA	1766	n/a	n/a	1
650.1690000000	n/a	650169	FrequentVariableSOA	1566	n/a	n/a	1
651.7360000000	n/a	651736	FrequentVariableSOA	1533	n/a	n/a	1
653.2690000000	n/a	653269	NovelVariableSOA	1766	n/a	n/a	1
655.0360000000	n/a	655036	FrequentVariableSOA	1716	n/a	n/a	1
656.7530000000	n/a	656753	FrequentVariableSOA	1700	n/a	n/a	1
658.4530000000	n/a	658453	FrequentVariableSOA	1783	n/a	n/a	1
660.2360000000	n/a	660236	FrequentVariableSOA	1633	n/a	n/a	1
661.8690000000	n/a	661869	FrequentVariableSOA	1700	n/a	n/a	1
663.5690000000	n/a	663569	GoVariableSOA	324	n/a	n/a	1
665.2690000000	n/a	665269	FrequentVariableSOA	1716	n/a	n/a	1
666.9860000000	n/a	666986	FrequentVariableSOA	1733	n/a	n/a	1
668.7190000000	n/a	668719	FrequentVariableSOA	1783	n/a	n/a	1
670.5030000000	n/a	670503	FrequentVariableSOA	1500	n/a	n/a	1
672.0030000000	n/a	672003	FrequentVariableSOA	1500	n/a	n/a	1
673.5030000000	n/a	673503	NovelVariableSOA	1733	n/a	n/a	1
675.2360000000	n/a	675236	FrequentVariableSOA	1516	n/a	n/a	1
676.7530000000	n/a	676753	GoVariableSOA	391	n/a	n/a	1
678.4530000000	n/a	678453	FrequentVariableSOA	1616	n/a	n/a	1
680.0690000000	n/a	680069	FrequentVariableSOA	1633	n/a	n/a	1
681.7030000000	n/a	681703	FrequentVariableSOA	1650	n/a	n/a	1
683.3530000000	n/a	683353	FrequentVariableSOA	1550	n/a	n/a	1
684.9030000000	n/a	684903	FrequentVariableSOA	1750	n/a	n/a	1
686.6530000000	n/a	686653	FrequentVariableSOA	1550	n/a	n/a	1
688.2030000000	n/a	688203	FrequentVariableSOA	1700	n/a	n/a	1
689.9030000000	n/a	689903	FrequentVariableSOA	1633	n/a	n/a	1
691.5360000000	n/a	691536	NovelVariableSOA	1750	n/a	n/a	1
693.2860000000	n/a	693286	FrequentVariableSOA	1583	n/a	n/a	1
694.8690000000	n/a	694869	FrequentVariableSOA	1683	n/a	n/a	1
696.5530000000	n/a	696553	GoFixedSOA	404	n/a	n/a	1
698.1860000000	n/a	698186	FrequentFixedSOA	1633	n/a	n/a	1
699.8190000000	n/a	699819	FrequentFixedSOA	1633	n/a	n/a	1
701.4530000000	n/a	701453	FrequentFixedSOA	1633	n/a	n/a	1
703.0860000000	n/a	703086	GoFixedSOA	337	n/a	n/a	1
704.7190000000	n/a	704719	FrequentFixedSOA	1633	n/a	n/a	1
706.3530000000	n/a	706353	FrequentFixedSOA	1633	n/a	n/a	1
707.9860000000	n/a	707986	FrequentFixedSOA	1633	n/a	n/a	1
709.6190000000	n/a	709619	FrequentFixedSOA	1633	n/a	n/a	1
711.2530000000	n/a	711253	GoFixedSOA	323	n/a	n/a	1
712.8860000000	n/a	712886	FrequentFixedSOA	1633	n/a	n/a	1
714.5190000000	n/a	714519	FrequentFixedSOA	1633	n/a	n/a	1
716.1530000000	n/a	716153	NovelFixedSOA	1633	n/a	n/a	1
717.7860000000	n/a	717786	FrequentFixedSOA	1633	n/a	n/a	1
719.4190000000	n/a	719419	FrequentFixedSOA	1633	n/a	n/a	1
721.0520000000	n/a	721052	GoFixedSOA	342	n/a	n/a	1
722.6860000000	n/a	722686	FrequentFixedSOA	1633	n/a	n/a	1
724.3190000000	n/a	724319	FrequentFixedSOA	1633	n/a	n/a	1
725.9520000000	n/a	725952	FrequentFixedSOA	1633	n/a	n/a	1
727.5860000000	n/a	727586	NovelFixedSOA	1633	n/a	n/a	1
729.2190000000	n/a	729219	FrequentFixedSOA	1633	n/a	n/a	1
730.8520000000	n/a	730852	NovelFixedSOA	1633	n/a	n/a	1
732.4860000000	n/a	732486	FrequentFixedSOA	1633	n/a	n/a	1
734.1190000000	n/a	734119	FrequentFixedSOA	1633	n/a	n/a	1
735.7520000000	n/a	735752	FrequentFixedSOA	1633	n/a	n/a	1
737.3860000000	n/a	737386	GoFixedSOA	351	n/a	n/a	1
739.0190000000	n/a	739019	FrequentFixedSOA	1633	n/a	n/a	1
740.6520000000	n/a	740652	FrequentFixedSOA	1633	n/a	n/a	1
742.2860000000	n/a	742286	FrequentFixedSOA	1633	n/a	n/a	1
743.9190000000	n/a	743919	GoFixedSOA	397	n/a	n/a	1
745.5520000000	n/a	745552	FrequentFixedSOA	1633	n/a	n/a	1
747.1860000000	n/a	747186	FrequentFixedSOA	1633	n/a	n/a	1
748.8190000000	n/a	748819	NovelFixedSOA	1633	n/a	n/a	1
750.4520000000	n/a	750452	FrequentFixedSOA	1633	n/a	n/a	1
752.0860000000	n/a	752086	GoFixedSOA	461	n/a	n/a	1
753.7190000000	n/a	753719	FrequentFixedSOA	1633	n/a	n/a	1
755.3520000000	n/a	755352	FrequentFixedSOA	1633	n/a	n/a	1
756.9860000000	n/a	756986	FrequentFixedSOA	1633	n/a	n/a	1
758.6190000000	n/a	758619	FrequentFixedSOA	1633	n/a	n/a	1
760.2520000000	n/a	760252	FrequentFixedSOA	1633	n/a	n/a	1
761.8860000000	n/a	761886	FrequentFixedSOA	1633	n/a	n/a	1
763.5190000000	n/a	763519	NovelFixedSOA	1633	n/a	n/a	1
765.1520000000	n/a	765152	FrequentFixedSOA	1633	n/a	n/a	1
766.7860000000	n/a	766786	FrequentFixedSOA	1633	n/a	n/a	1
768.4190000000	n/a	768419	FrequentFixedSOA	1633	n/a	n/a	1
770.0520000000	n/a	770052	GoFixedSOA	397	n/a	n/a	1
771.6860000000	n/a	771686	FrequentFixedSOA	1633	n/a	n/a	1
773.3190000000	n/a	773319	FrequentFixedSOA	1633	n/a	n/a	1
774.9520000000	n/a	774952	FrequentFixedSOA	1633	n/a	n/a	1
776.5860000000	n/a	776586	FrequentFixedSOA	1633	n/a	n/a	1
778.2190000000	n/a	778219	NovelFixedSOA	1633	n/a	n/a	1
779.8520000000	n/a	779852	FrequentFixedSOA	1633	n/a	n/a	1
781.4860000000	n/a	781486	FrequentFixedSOA	1633	n/a	n/a	1
783.1190000000	n/a	783119	NovelFixedSOA	1633	n/a	n/a	1
784.7520000000	n/a	784752	FrequentFixedSOA	1633	n/a	n/a	1
786.3860000000	n/a	786386	NovelFixedSOA	1633	n/a	n/a	1
788.0190000000	n/a	788019	FrequentFixedSOA	1633	n/a	n/a	1
789.6520000000	n/a	789652	FrequentFixedSOA	1633	n/a	n/a	1
791.2860000000	n/a	791286	FrequentFixedSOA	1633	n/a	n/a	1
792.9190000000	n/a	792919	FrequentFixedSOA	1633	n/a	n/a	1
794.5520000000	n/a	794552	FrequentFixedSOA	1633	n/a	n/a	1
796.1860000000	n/a	796186	FrequentFixedSOA	1633	n/a	n/a	1
797.8190000000	n/a	797819	FrequentFixedSOA	1633	n/a	n/a	1
799.4520000000	n/a	799452	GoFixedSOA	405	n/a	n/a	1
801.0860000000	n/a	801086	FrequentFixedSOA	1633	n/a	n/a	1
802.7190000000	n/a	802719	GoFixedSOA	401	n/a	n/a	1
804.3520000000	n/a	804352	FrequentFixedSOA	1633	n/a	n/a	1
805.9860000000	n/a	805986	FrequentFixedSOA	1633	n/a	n/a	1
807.6190000000	n/a	807619	NovelFixedSOA	1633	n/a	n/a	1
809.2520000000	n/a	809252	FrequentFixedSOA	1633	n/a	n/a	1
810.8860000000	n/a	810886	GoVariableSOA	342	n/a	n/a	1
812.6020000000	n/a	812602	FrequentVariableSOA	1616	n/a	n/a	1
814.2190000000	n/a	814219	FrequentVariableSOA	1600	n/a	n/a	1
815.8190000000	n/a	815819	FrequentVariableSOA	1683	n/a	n/a	1
817.5020000000	n/a	817502	GoVariableSOA	327	n/a	n/a	1
819.1860000000	n/a	819186	FrequentVariableSOA	1550	n/a	n/a	1
820.7360000000	n/a	820736	FrequentVariableSOA	1600	n/a	n/a	1
822.3360000000	n/a	822336	FrequentVariableSOA	1683	n/a	n/a	1
824.0190000000	n/a	824019	FrequentVariableSOA	1733	n/a	n/a	1
825.7520000000	n/a	825752	GoVariableSOA	358	n/a	n/a	1
827.3690000000	n/a	827369	FrequentVariableSOA	1633	n/a	n/a	1
829.0020000000	n/a	829002	FrequentVariableSOA	1650	n/a	n/a	1
830.6520000000	n/a	830652	NovelVariableSOA	1616	n/a	n/a	1
832.2690000000	n/a	832269	FrequentVariableSOA	1500	n/a	n/a	1
833.7690000000	n/a	833769	FrequentVariableSOA	1600	n/a	n/a	1
835.3690000000	n/a	835369	GoVariableSOA	350	n/a	n/a	1
837.0190000000	n/a	837019	FrequentVariableSOA	1600	n/a	n/a	1
838.6190000000	n/a	838619	FrequentVariableSOA	1533	n/a	n/a	1
840.1520000000	n/a	840152	FrequentVariableSOA	1666	n/a	n/a	1
841.8190000000	n/a	841819	NovelVariableSOA	1666	n/a	n/a	1
843.4860000000	n/a	843486	FrequentVariableSOA	1700	n/a	n/a	1
845.1860000000	n/a	845186	NovelVariableSOA	1700	n/a	n/a	1
846.8860000000	n/a	846886	FrequentVariableSOA	1516	n/a	n/a	1
848.4020000000	n/a	848402	FrequentVariableSOA	1750	n/a	n/a	1
850.1520000000	n/a	850152	FrequentVariableSOA	1650	n/a	n/a	1
851.8020000000	n/a	851802	GoVariableSOA	316	n/a	n/a	1
853.5520000000	n/a	853552	FrequentVariableSOA	1566	n/a	n/a	1
855.1190000000	n/a	855119	FrequentVariableSOA	1633	n/a	n/a	1
856.7520000000	n/a	856752	FrequentVariableSOA	1716	n/a	n/a	1
858.4690000000	n/a	858469	GoVariableSOA	346	n/a	n/a	1
860.0860000000	n/a	860086	FrequentVariableSOA	1683	n/a	n/a	1
861.7690000000	n/a	861769	FrequentVariableSOA	1750	n/a	n/a	1
863.5190000000	n/a	863519	NovelVariableSOA	1716	n/a	n/a	1
865.2360000000	n/a	865236	FrequentVariableSOA	1550	n/a	n/a	1
866.7860000000	n/a	866786	GoVariableSOA	395	n/a	n/a	1
868.3190000000	n/a	868319	FrequentVariableSOA	1750	n/a	n/a	1
870.0690000000	n/a	870069	FrequentVariableSOA	1516	n/a	n/a	1
871.5860000000	n/a	871586	FrequentVariableSOA	1733	n/a	n/a	1
873.3190000000	n/a	873319	FrequentVariableSOA	1783	n/a	n/a	1
875.1020000000	n/a	875102	FrequentVariableSOA	1733	n/a	n/a	1
876.8360000000	n/a	876836	FrequentVariableSOA	1750	n/a	n/a	1
878.5860000000	n/a	878586	NovelVariableSOA	1616	n/a	n/a	1
880.2020000000	n/a	880202	FrequentVariableSOA	1733	n/a	n/a	1
881.9360000000	n/a	881936	FrequentVariableSOA	1733	n/a	n/a	1
883.6690000000	n/a	883669	FrequentVariableSOA	1633	n/a	n/a	1
885.3020000000	n/a	885302	GoVariableSOA	381	n/a	n/a	1
886.9690000000	n/a	886969	FrequentVariableSOA	1583	n/a	n/a	1
888.5520000000	n/a	888552	FrequentVariableSOA	1716	n/a	n/a	1
890.2690000000	n/a	890269	FrequentVariableSOA	1666	n/a	n/a	1
891.9360000000	n/a	891936	FrequentVariableSOA	1583	n/a	n/a	1
893.5190000000	n/a	893519	NovelVariableSOA	1666	n/a	n/a	1
895.1860000000	n/a	895186	FrequentVariableSOA	1783	n/a	n/a	1
896.9690000000	n/a	896969	FrequentVariableSOA	1600	n/a	n/a	1
898.5690000000	n/a	898569	NovelVariableSOA	1766	n/a	n/a	1
900.3360000000	n/a	900336	FrequentVariableSOA	1533	n/a	n/a	1
901.8690000000	n/a	901869	NovelVariableSOA	1666	n/a	n/a	1
903.5360000000	n/a	903536	FrequentVariableSOA	1516	n/a	n/a	1
905.0520000000	n/a	905052	FrequentVariableSOA	1700	n/a	n/a	1
906.7520000000	n/a	906752	FrequentVariableSOA	1716	n/a	n/a	1
908.4690000000	n/a	908469	FrequentVariableSOA	1683	n/a	n/a	1
910.1520000000	n/a	910152	FrequentVariableSOA	1783	n/a	n/a	1
911.9360000000	n/a	911936	FrequentVariableSOA	1650	n/a	n/a	1
913.5860000000	n/a	913586	FrequentVariableSOA	1750	n/a	n/a	1
915.3360000000	n/a	915336	GoVariableSOA	368	n/a	n/a	1
916.9020000000	n/a	916902	FrequentVariableSOA	1633	n/a	n/a	1
918.5360000000	n/a	918536	GoVariableSOA	493	n/a	n/a	1
920.1690000000	n/a	920169	FrequentVariableSOA	1616	n/a	n/a	1
921.7860000000	n/a	921786	FrequentVariableSOA	1600	n/a	n/a	1
923.3860000000	n/a	923386	NovelVariableSOA	1750	n/a	n/a	1
925.1360000000	n/a	925136	FrequentVariableSOA	1600	n/a	n/a	1
