onset	duration	sample	trial_type	response_time	stim_file	value	correct
10.0690000000	n/a	10069	ignore	n/a	n/a	n/a	n/a
13.1690000000	n/a	13169	ignore	n/a	n/a	n/a	n/a
16.1810000000	n/a	16181	ignore	n/a	n/a	n/a	n/a
32.0850000000	n/a	32085	ignore	n/a	n/a	n/a	n/a
35.1850000000	n/a	35185	ignore	n/a	n/a	n/a	n/a
38.1720000000	n/a	38172	ignore	n/a	n/a	n/a	n/a
53.8350000000	n/a	53835	PosStim	n/a	n/a	n/a	n/a
56.8690000000	n/a	56869	PosNonAlcStimWithoutStartle	n/a	n/a	n/a	n/a
72.9850000000	n/a	72985	NegStim	n/a	n/a	n/a	n/a
76.0190000000	n/a	76019	NegNonAlcStimWithoutStartle	n/a	n/a	n/a	n/a
91.2350000000	n/a	91235	NeuStim	n/a	n/a	n/a	n/a
94.3350000000	n/a	94335	NeuNonAlcP2000	n/a	n/a	n/a	n/a
98.3220000000	n/a	98322	NeuNonAlcP2000	n/a	n/a	n/a	n/a
110.4690000000	n/a	110469	NegStim	n/a	n/a	n/a	n/a
113.5690000000	n/a	113569	NegAlcP2000	n/a	n/a	n/a	n/a
117.5560000000	n/a	117556	NegAlcP2000	n/a	n/a	n/a	n/a
130.1850000000	n/a	130185	NeuStim	n/a	n/a	n/a	n/a
133.2190000000	n/a	133219	NeuAlcStimWithoutStartle	n/a	n/a	n/a	n/a
147.1850000000	n/a	147185	PosStim	n/a	n/a	n/a	n/a
150.2850000000	n/a	150285	PosAlcP1000	n/a	n/a	n/a	n/a
155.2720000000	n/a	155272	PosAlcP1000	n/a	n/a	n/a	n/a
164.2520000000	n/a	164252	NeuStim	n/a	n/a	n/a	n/a
167.3520000000	n/a	167352	NeuAlcP2000	n/a	n/a	n/a	n/a
171.3390000000	n/a	171339	NeuAlcP2000	n/a	n/a	n/a	n/a
181.4020000000	n/a	181402	NegStim	n/a	n/a	n/a	n/a
184.5020000000	n/a	184502	NegAlcP3000	n/a	n/a	n/a	n/a
187.4890000000	n/a	187489	NegAlcP3000	n/a	n/a	n/a	n/a
199.4020000000	n/a	199402	PosStim	n/a	n/a	n/a	n/a
202.4350000000	n/a	202435	PosNonAlcStimWithoutStartle	n/a	n/a	n/a	n/a
217.9520000000	n/a	217952	NeuStim	n/a	n/a	n/a	n/a
221.0520000000	n/a	221052	NeuAlcP1000	n/a	n/a	n/a	n/a
226.0390000000	n/a	226039	NeuAlcP1000	n/a	n/a	n/a	n/a
235.8020000000	n/a	235802	NegStim	n/a	n/a	n/a	n/a
238.9020000000	n/a	238902	NegNonAlcP3000	n/a	n/a	n/a	n/a
241.8890000000	n/a	241889	NegNonAlcP3000	n/a	n/a	n/a	n/a
254.6850000000	n/a	254685	PosStim	n/a	n/a	n/a	n/a
257.7850000000	n/a	257785	PosAlcP2000	n/a	n/a	n/a	n/a
261.7720000000	n/a	261772	PosAlcP2000	n/a	n/a	n/a	n/a
274.5350000000	n/a	274535	NegStim	n/a	n/a	n/a	n/a
277.5680000000	n/a	277568	NegNonAlcStimWithoutStartle	n/a	n/a	n/a	n/a
293.1350000000	n/a	293135	PosStim	n/a	n/a	n/a	n/a
296.1680000000	n/a	296168	PosAlcStimWithoutStartle	n/a	n/a	n/a	n/a
310.2680000000	n/a	310268	NeuStim	n/a	n/a	n/a	n/a
313.3680000000	n/a	313368	NeuNonAlcP3000	n/a	n/a	n/a	n/a
316.3550000000	n/a	316355	NeuNonAlcP3000	n/a	n/a	n/a	n/a
327.9520000000	n/a	327952	NegStim	n/a	n/a	n/a	n/a
331.0520000000	n/a	331052	NegAlcP1000	n/a	n/a	n/a	n/a
336.0390000000	n/a	336039	NegAlcP1000	n/a	n/a	n/a	n/a
346.3020000000	n/a	346302	NeuStim	n/a	n/a	n/a	n/a
349.4020000000	n/a	349402	NeuAlcP3000	n/a	n/a	n/a	n/a
352.3890000000	n/a	352389	NeuAlcP3000	n/a	n/a	n/a	n/a
363.3680000000	n/a	363368	PosStim	n/a	n/a	n/a	n/a
366.4680000000	n/a	366468	PosAlcP3000	n/a	n/a	n/a	n/a
369.4550000000	n/a	369455	PosAlcP3000	n/a	n/a	n/a	n/a
383.4850000000	n/a	383485	NeuStim	n/a	n/a	n/a	n/a
386.5180000000	n/a	386518	NeuAlcStimWithoutStartle	n/a	n/a	n/a	n/a
402.6510000000	n/a	402651	NegStim	n/a	n/a	n/a	n/a
405.7510000000	n/a	405751	NegAlcP1000	n/a	n/a	n/a	n/a
410.7390000000	n/a	410739	NegAlcP1000	n/a	n/a	n/a	n/a
419.8850000000	n/a	419885	NeuStim	n/a	n/a	n/a	n/a
422.9850000000	n/a	422985	NeuNonAlcP3000	n/a	n/a	n/a	n/a
425.9720000000	n/a	425972	NeuNonAlcP3000	n/a	n/a	n/a	n/a
438.3510000000	n/a	438351	NegStim	n/a	n/a	n/a	n/a
441.4510000000	n/a	441451	NegNonAlcP2000	n/a	n/a	n/a	n/a
445.4380000000	n/a	445438	NegNonAlcP2000	n/a	n/a	n/a	n/a
457.5350000000	n/a	457535	PosStim	n/a	n/a	n/a	n/a
460.5680000000	n/a	460568	PosNonAlcStimWithoutStartle	n/a	n/a	n/a	n/a
477.4350000000	n/a	477435	NeuStim	n/a	n/a	n/a	n/a
480.4680000000	n/a	480468	NeuNonAlcStimWithoutStartle	n/a	n/a	n/a	n/a
495.6680000000	n/a	495668	PosStim	n/a	n/a	n/a	n/a
498.7680000000	n/a	498768	PosNonAlcP1000	n/a	n/a	n/a	n/a
503.7550000000	n/a	503755	PosNonAlcP1000	n/a	n/a	n/a	n/a
514.0850000000	n/a	514085	NegStim	n/a	n/a	n/a	n/a
517.1180000000	n/a	517118	NegAlcStimWithoutStartle	n/a	n/a	n/a	n/a
532.8350000000	n/a	532835	NeuStim	n/a	n/a	n/a	n/a
535.9350000000	n/a	535935	NeuAlcP2000	n/a	n/a	n/a	n/a
539.9220000000	n/a	539922	NeuAlcP2000	n/a	n/a	n/a	n/a
552.2010000000	n/a	552201	PosStim	n/a	n/a	n/a	n/a
555.3010000000	n/a	555301	PosNonAlcP1000	n/a	n/a	n/a	n/a
560.2880000000	n/a	560288	PosNonAlcP1000	n/a	n/a	n/a	n/a
571.1010000000	n/a	571101	NeuStim	n/a	n/a	n/a	n/a
574.2010000000	n/a	574201	NeuNonAlcP1000	n/a	n/a	n/a	n/a
579.1880000000	n/a	579188	NeuNonAlcP1000	n/a	n/a	n/a	n/a
590.7350000000	n/a	590735	PosStim	n/a	n/a	n/a	n/a
593.7680000000	n/a	593768	PosNonAlcStimWithoutStartle	n/a	n/a	n/a	n/a
607.7180000000	n/a	607718	NegStim	n/a	n/a	n/a	n/a
610.8180000000	n/a	610818	NegAlcP2000	n/a	n/a	n/a	n/a
614.8050000000	n/a	614805	NegAlcP2000	n/a	n/a	n/a	n/a
626.6850000000	n/a	626685	NeuStim	n/a	n/a	n/a	n/a
629.7850000000	n/a	629785	NeuAlcP3000	n/a	n/a	n/a	n/a
632.7710000000	n/a	632771	NeuAlcP3000	n/a	n/a	n/a	n/a
644.0010000000	n/a	644001	NegStim	n/a	n/a	n/a	n/a
647.0340000000	n/a	647034	NegAlcStimWithoutStartle	n/a	n/a	n/a	n/a
663.7680000000	n/a	663768	NeuStim	n/a	n/a	n/a	n/a
666.8680000000	n/a	666868	NeuNonAlcP2000	n/a	n/a	n/a	n/a
670.8550000000	n/a	670855	NeuNonAlcP2000	n/a	n/a	n/a	n/a
680.0680000000	n/a	680068	PosStim	n/a	n/a	n/a	n/a
683.1680000000	n/a	683168	PosNonAlcP3000	n/a	n/a	n/a	n/a
686.1550000000	n/a	686155	PosNonAlcP3000	n/a	n/a	n/a	n/a
698.7840000000	n/a	698784	NegStim	n/a	n/a	n/a	n/a
701.8840000000	n/a	701884	NegAlcP3000	n/a	n/a	n/a	n/a
704.8710000000	n/a	704871	NegAlcP3000	n/a	n/a	n/a	n/a
717.5010000000	n/a	717501	PosStim	n/a	n/a	n/a	n/a
720.5340000000	n/a	720534	PosAlcStimWithoutStartle	n/a	n/a	n/a	n/a
736.5340000000	n/a	736534	NegStim	n/a	n/a	n/a	n/a
739.6340000000	n/a	739634	NegAlcP1000	n/a	n/a	n/a	n/a
744.6210000000	n/a	744621	NegAlcP1000	n/a	n/a	n/a	n/a
756.5510000000	n/a	756551	PosStim	n/a	n/a	n/a	n/a
759.5840000000	n/a	759584	PosAlcStimWithoutStartle	n/a	n/a	n/a	n/a
775.4340000000	n/a	775434	NegStim	n/a	n/a	n/a	n/a
778.5340000000	n/a	778534	NegNonAlcP2000	n/a	n/a	n/a	n/a
782.5210000000	n/a	782521	NegNonAlcP2000	n/a	n/a	n/a	n/a
794.5340000000	n/a	794534	PosStim	n/a	n/a	n/a	n/a
797.6340000000	n/a	797634	PosAlcP2000	n/a	n/a	n/a	n/a
801.6210000000	n/a	801621	PosAlcP2000	n/a	n/a	n/a	n/a
814.5180000000	n/a	814518	NeuStim	n/a	n/a	n/a	n/a
817.5510000000	n/a	817551	NeuNonAlcStimWithoutStartle	n/a	n/a	n/a	n/a
833.3340000000	n/a	833334	PosStim	n/a	n/a	n/a	n/a
836.4340000000	n/a	836434	PosNonAlcP2000	n/a	n/a	n/a	n/a
840.4210000000	n/a	840421	PosNonAlcP2000	n/a	n/a	n/a	n/a
852.5340000000	n/a	852534	NegStim	n/a	n/a	n/a	n/a
855.5680000000	n/a	855568	NegAlcStimWithoutStartle	n/a	n/a	n/a	n/a
872.4340000000	n/a	872434	PosStim	n/a	n/a	n/a	n/a
875.5340000000	n/a	875534	PosAlcP3000	n/a	n/a	n/a	n/a
878.5210000000	n/a	878521	PosAlcP3000	n/a	n/a	n/a	n/a
888.6340000000	n/a	888634	PosStim	n/a	n/a	n/a	n/a
891.7340000000	n/a	891734	PosNonAlcP3000	n/a	n/a	n/a	n/a
894.7210000000	n/a	894721	PosNonAlcP3000	n/a	n/a	n/a	n/a
907.5170000000	n/a	907517	NeuStim	n/a	n/a	n/a	n/a
910.5510000000	n/a	910551	NeuNonAlcStimWithoutStartle	n/a	n/a	n/a	n/a
925.2010000000	n/a	925201	NeuStim	n/a	n/a	n/a	n/a
928.3010000000	n/a	928301	NeuNonAlcP3000	n/a	n/a	n/a	n/a
931.2880000000	n/a	931288	NeuNonAlcP3000	n/a	n/a	n/a	n/a
944.7170000000	n/a	944717	PosStim	n/a	n/a	n/a	n/a
947.8170000000	n/a	947817	PosAlcP2000	n/a	n/a	n/a	n/a
951.8040000000	n/a	951804	PosAlcP2000	n/a	n/a	n/a	n/a
964.4170000000	n/a	964417	NegStim	n/a	n/a	n/a	n/a
967.5170000000	n/a	967517	NegAlcP1000	n/a	n/a	n/a	n/a
972.5040000000	n/a	972504	NegAlcP1000	n/a	n/a	n/a	n/a
983.3670000000	n/a	983367	PosStim	n/a	n/a	n/a	n/a
986.4670000000	n/a	986467	PosNonAlcP2000	n/a	n/a	n/a	n/a
990.4540000000	n/a	990454	PosNonAlcP2000	n/a	n/a	n/a	n/a
1002.7670000000	n/a	1002767	NeuStim	n/a	n/a	n/a	n/a
1005.8010000000	n/a	1005801	NeuNonAlcStimWithoutStartle	n/a	n/a	n/a	n/a
1019.1010000000	n/a	1019101	NegStim	n/a	n/a	n/a	n/a
1022.2010000000	n/a	1022201	NegAlcP2000	n/a	n/a	n/a	n/a
1026.1880000000	n/a	1026188	NegAlcP2000	n/a	n/a	n/a	n/a
1036.4670000000	n/a	1036467	PosStim	n/a	n/a	n/a	n/a
1039.5670000000	n/a	1039567	PosAlcP3000	n/a	n/a	n/a	n/a
1042.5540000000	n/a	1042554	PosAlcP3000	n/a	n/a	n/a	n/a
1055.7510000000	n/a	1055751	NeuStim	n/a	n/a	n/a	n/a
1058.7840000000	n/a	1058784	NeuAlcStimWithoutStartle	n/a	n/a	n/a	n/a
1074.8510000000	n/a	1074851	NegStim	n/a	n/a	n/a	n/a
1077.9510000000	n/a	1077951	NegNonAlcP3000	n/a	n/a	n/a	n/a
1080.9380000000	n/a	1080938	NegNonAlcP3000	n/a	n/a	n/a	n/a
