onset	duration	sample	trial_type	response_time	stim_file	value	correct
14.8630000000	n/a	14863	ignore	28299	n/a	n/a	1
44.2290000000	n/a	44229	ignore	1000	n/a	n/a	1
46.2290000000	n/a	46229	ignore	1700	n/a	n/a	1
47.9290000000	n/a	47929	ignore	1614	n/a	n/a	1
50.6130000000	n/a	50613	ignore	1000	n/a	n/a	1
52.6130000000	n/a	52613	ignore	1700	n/a	n/a	1
54.3130000000	n/a	54313	ignore	2195	n/a	n/a	1
57.5790000000	n/a	57579	ignore	1000	n/a	n/a	1
59.5790000000	n/a	59579	ignore	1700	n/a	n/a	1
61.2790000000	n/a	61279	ignore	559	n/a	n/a	1
62.9130000000	n/a	62913	ignore	1000	n/a	n/a	1
64.9130000000	n/a	64913	ignore	1700	n/a	n/a	1
66.6130000000	n/a	66613	ignore	866	n/a	n/a	1
68.5460000000	n/a	68546	ignore	1000	n/a	n/a	1
70.5460000000	n/a	70546	ignore	1700	n/a	n/a	1
72.2460000000	n/a	72246	ignore	473	n/a	n/a	1
73.7960000000	n/a	73796	ignore	1000	n/a	n/a	1
75.7960000000	n/a	75796	STATUS	1700	n/a	n/a	1
77.4960000000	n/a	77496	ignore	566	n/a	n/a	1
79.1290000000	n/a	79129	ignore	1000	n/a	n/a	1
81.1290000000	n/a	81129	STATUS	1700	n/a	n/a	1
82.8290000000	n/a	82829	ignore	485	n/a	n/a	1
84.3790000000	n/a	84379	ignore	1000	n/a	n/a	1
86.3790000000	n/a	86379	STATUS	1700	n/a	n/a	1
88.0790000000	n/a	88079	ignore	2352	n/a	n/a	1
90.4960000000	n/a	90496	ignore 	2000	n/a	n/a	1
97.1290000000	n/a	97129	ignore	1000	n/a	n/a	1
99.1290000000	n/a	99129	STATUS	1700	n/a	n/a	1
100.8290000000	n/a	100829	ignore	753	n/a	n/a	1
102.6460000000	n/a	102646	ignore	1000	n/a	n/a	1
104.6460000000	n/a	104646	STATUS	1700	n/a	n/a	1
106.3460000000	n/a	106346	ignore	952	n/a	n/a	1
108.3630000000	n/a	108363	ignore	1000	n/a	n/a	1
110.3630000000	n/a	110363	STATUS	1700	n/a	n/a	1
112.0630000000	n/a	112063	ignore	1134	n/a	n/a	1
114.2630000000	n/a	114263	ignore	1000	n/a	n/a	1
116.2630000000	n/a	116263	STATUS	1700	n/a	n/a	1
117.9630000000	n/a	117963	ignore	962	n/a	n/a	1
119.9960000000	n/a	119996	ignore	1000	n/a	n/a	1
121.9960000000	n/a	121996	STATUS	1700	n/a	n/a	1
123.6960000000	n/a	123696	ignore	898	n/a	n/a	1
125.6620000000	n/a	125662	ignore	1000	n/a	n/a	1
127.6630000000	n/a	127663	STATUS	1700	n/a	n/a	1
129.3620000000	n/a	129362	ignore	917	n/a	n/a	1
131.3460000000	n/a	131346	ignore	1000	n/a	n/a	1
133.3460000000	n/a	133346	ignore	1700	n/a	n/a	1
135.0460000000	n/a	135046	ignore	2222	n/a	n/a	0
138.3460000000	n/a	138346	ignore	1000	n/a	n/a	1
140.3460000000	n/a	140346	ignore	1700	n/a	n/a	1
142.0460000000	n/a	142046	ignore	1132	n/a	n/a	1
143.2460000000	n/a	143246	ignore 	2000	n/a	n/a	1
153.2290000000	n/a	153229	PenaltyB1	1244	n/a	n/a	1
155.5460000000	n/a	155546	NeuCorrB1	1000	n/a	n/a	1
157.5460000000	n/a	157546	ignore	1700	n/a	n/a	1
159.2460000000	n/a	159246	PenaltyB1	825	n/a	n/a	1
161.1460000000	n/a	161146	NeuCorrB1	1000	n/a	n/a	1
163.1460000000	n/a	163146	ignore	1700	n/a	n/a	1
164.8460000000	n/a	164846	PenaltyB1	1026	n/a	n/a	0
166.9460000000	n/a	166946	PunIncorrB1	1000	n/a	n/a	1
168.9460000000	n/a	168946	ignore	1700	n/a	n/a	1
170.6460000000	n/a	170646	RewardB1	2710	n/a	n/a	1
174.4290000000	n/a	174429	RewardCorrB1	1000	n/a	n/a	1
176.4290000000	n/a	176429	ignore	1700	n/a	n/a	1
178.1290000000	n/a	178129	RewardB1	981	n/a	n/a	1
180.1790000000	n/a	180179	RewardCorrB1	1000	n/a	n/a	1
182.1790000000	n/a	182179	ignore	1700	n/a	n/a	1
183.8790000000	n/a	183879	PenaltyB1	855	n/a	n/a	1
185.7960000000	n/a	185796	NeuCorrB1	1000	n/a	n/a	1
187.7960000000	n/a	187796	ignore	1700	n/a	n/a	1
189.4960000000	n/a	189496	PenaltyB1	906	n/a	n/a	1
191.4790000000	n/a	191479	NeuCorrB1	1000	n/a	n/a	1
193.4790000000	n/a	193479	ignore	1700	n/a	n/a	1
195.1790000000	n/a	195179	PenaltyB1	892	n/a	n/a	1
197.1460000000	n/a	197146	NeuCorrB1	1000	n/a	n/a	1
199.1460000000	n/a	199146	ignore	1700	n/a	n/a	1
200.8460000000	n/a	200846	PenaltyB1	674	n/a	n/a	1
202.5960000000	n/a	202596	PunCorrB1	1000	n/a	n/a	1
204.5960000000	n/a	204596	ignore	1700	n/a	n/a	1
206.2960000000	n/a	206296	RewardB1	1014	n/a	n/a	1
208.3790000000	n/a	208379	RewardCorrB1	1000	n/a	n/a	1
210.3790000000	n/a	210379	ignore	1700	n/a	n/a	1
212.0790000000	n/a	212079	PenaltyB1	823	n/a	n/a	1
213.9790000000	n/a	213979	NeuCorrB1	1000	n/a	n/a	1
215.9790000000	n/a	215979	ignore	1700	n/a	n/a	1
217.6790000000	n/a	217679	RewardB1	794	n/a	n/a	0
219.5460000000	n/a	219546	RewIncorrB1	1000	n/a	n/a	1
221.5460000000	n/a	221546	ignore	1700	n/a	n/a	1
223.2460000000	n/a	223246	PenaltyB1	692	n/a	n/a	1
225.0120000000	n/a	225012	NeuCorrB1	1000	n/a	n/a	1
227.0120000000	n/a	227012	ignore	1700	n/a	n/a	1
228.7120000000	n/a	228712	RewardB1	775	n/a	n/a	0
230.5620000000	n/a	230562	NeuIncorrB1	1000	n/a	n/a	1
232.5620000000	n/a	232562	ignore	1700	n/a	n/a	1
234.2620000000	n/a	234262	PenaltyB1	879	n/a	n/a	1
236.2120000000	n/a	236212	NeuCorrB1	1000	n/a	n/a	1
238.2120000000	n/a	238212	ignore	1700	n/a	n/a	1
239.9120000000	n/a	239912	PenaltyB1	760	n/a	n/a	1
241.7460000000	n/a	241746	NeuCorrB1	1000	n/a	n/a	1
243.7460000000	n/a	243746	ignore	1700	n/a	n/a	1
245.4460000000	n/a	245446	RewardB1	559	n/a	n/a	0
247.0790000000	n/a	247079	RewIncorrB1	1000	n/a	n/a	1
249.0790000000	n/a	249079	ignore	1700	n/a	n/a	1
250.7790000000	n/a	250779	PenaltyB1	645	n/a	n/a	1
252.4960000000	n/a	252496	NeuCorrB1	1000	n/a	n/a	1
254.4960000000	n/a	254496	ignore	1700	n/a	n/a	1
256.1960000000	n/a	256196	RewardB1	591	n/a	n/a	0
257.8620000000	n/a	257862	NeuIncorrB1	1000	n/a	n/a	1
259.8620000000	n/a	259862	ignore	1700	n/a	n/a	1
261.5620000000	n/a	261562	RewardB1	565	n/a	n/a	0
263.1960000000	n/a	263196	NeuIncorrB1	1000	n/a	n/a	1
265.1960000000	n/a	265196	ignore	1700	n/a	n/a	1
266.8960000000	n/a	266896	RewardB1	817	n/a	n/a	1
268.7790000000	n/a	268779	NeuCorrB1	1000	n/a	n/a	1
270.7790000000	n/a	270779	ignore	1700	n/a	n/a	1
272.4790000000	n/a	272479	RewardB1	608	n/a	n/a	0
274.1620000000	n/a	274162	NeuIncorrB1	1000	n/a	n/a	1
276.1620000000	n/a	276162	ignore	1700	n/a	n/a	1
277.8620000000	n/a	277862	RewardB1	747	n/a	n/a	0
279.6790000000	n/a	279679	NeuIncorrB1	1000	n/a	n/a	1
281.6790000000	n/a	281679	ignore	1700	n/a	n/a	1
283.3790000000	n/a	283379	PenaltyB1	755	n/a	n/a	1
285.1960000000	n/a	285196	NeuCorrB1	1000	n/a	n/a	1
287.1960000000	n/a	287196	ignore	1700	n/a	n/a	1
288.8960000000	n/a	288896	RewardB1	730	n/a	n/a	1
290.6960000000	n/a	290696	RewardCorrB1	1000	n/a	n/a	1
292.6960000000	n/a	292696	ignore	1700	n/a	n/a	1
294.3960000000	n/a	294396	PenaltyB1	718	n/a	n/a	1
296.1790000000	n/a	296179	PunCorrB1	1000	n/a	n/a	1
298.1790000000	n/a	298179	ignore	1700	n/a	n/a	1
299.8790000000	n/a	299879	RewardB1	695	n/a	n/a	1
301.6460000000	n/a	301646	RewardCorrB1	1000	n/a	n/a	1
303.6460000000	n/a	303646	ignore	1700	n/a	n/a	1
305.3460000000	n/a	305346	RewardB1	531	n/a	n/a	0
306.9460000000	n/a	306946	NeuIncorrB1	1000	n/a	n/a	1
308.9460000000	n/a	308946	ignore	1700	n/a	n/a	1
310.6460000000	n/a	310646	RewardB1	939	n/a	n/a	1
312.6620000000	n/a	312662	RewardCorrB1	1000	n/a	n/a	1
314.6620000000	n/a	314662	ignore	1700	n/a	n/a	1
316.3620000000	n/a	316362	PenaltyB1	717	n/a	n/a	1
318.1460000000	n/a	318146	NeuCorrB1	1000	n/a	n/a	1
320.1460000000	n/a	320146	ignore	1700	n/a	n/a	1
321.8460000000	n/a	321846	RewardB1	1355	n/a	n/a	1
324.2790000000	n/a	324279	NeuCorrB1	1000	n/a	n/a	1
326.2790000000	n/a	326279	ignore	1700	n/a	n/a	1
327.9790000000	n/a	327979	PenaltyB1	683	n/a	n/a	0
329.7290000000	n/a	329729	PunIncorrB1	1000	n/a	n/a	1
331.7290000000	n/a	331729	ignore	1700	n/a	n/a	1
333.4290000000	n/a	333429	RewardB1	528	n/a	n/a	0
335.0290000000	n/a	335029	NeuIncorrB1	1000	n/a	n/a	1
337.0290000000	n/a	337029	ignore	1700	n/a	n/a	1
338.7290000000	n/a	338729	PenaltyB1	1153	n/a	n/a	1
340.9460000000	n/a	340946	PunCorrB1	1000	n/a	n/a	1
342.9460000000	n/a	342946	ignore	1700	n/a	n/a	1
344.6460000000	n/a	344646	RewardB1	672	n/a	n/a	1
346.3960000000	n/a	346396	RewardCorrB1	1000	n/a	n/a	1
348.3960000000	n/a	348396	ignore	1700	n/a	n/a	1
350.0960000000	n/a	350096	PenaltyB1	878	n/a	n/a	1
352.0460000000	n/a	352046	NeuCorrB1	1000	n/a	n/a	1
354.0460000000	n/a	354046	ignore	1700	n/a	n/a	1
355.7460000000	n/a	355746	PenaltyB1	641	n/a	n/a	1
357.4620000000	n/a	357462	NeuCorrB1	1000	n/a	n/a	1
359.4620000000	n/a	359462	ignore	1700	n/a	n/a	1
361.1620000000	n/a	361162	RewardB1	609	n/a	n/a	1
362.8450000000	n/a	362845	RewardCorrB1	1000	n/a	n/a	1
364.8460000000	n/a	364846	ignore	1700	n/a	n/a	1
366.5450000000	n/a	366545	PenaltyB1	881	n/a	n/a	0
368.4950000000	n/a	368495	NeuIncorrB1	1000	n/a	n/a	1
370.4960000000	n/a	370496	ignore	1700	n/a	n/a	1
372.1950000000	n/a	372195	RewardB1	627	n/a	n/a	0
373.8950000000	n/a	373895	NeuIncorrB1	1000	n/a	n/a	1
375.8960000000	n/a	375896	ignore	1700	n/a	n/a	1
380.2290000000	n/a	380229	RewardB2	622	n/a	n/a	0
381.9290000000	n/a	381929	NeuIncorrB2	1000	n/a	n/a	1
383.9290000000	n/a	383929	ignore	1700	n/a	n/a	1
385.6290000000	n/a	385629	PenaltyB2	1011	n/a	n/a	1
387.7120000000	n/a	387712	NeuCorrB2	1000	n/a	n/a	1
389.7120000000	n/a	389712	ignore	1700	n/a	n/a	1
391.4120000000	n/a	391412	RewardB2	748	n/a	n/a	0
393.2290000000	n/a	393229	NeuIncorrB2	1000	n/a	n/a	1
395.2290000000	n/a	395229	ignore	1700	n/a	n/a	1
396.9290000000	n/a	396929	RewardB2	814	n/a	n/a	1
398.8120000000	n/a	398812	NeuCorrB2	1000	n/a	n/a	1
400.8120000000	n/a	400812	ignore	1700	n/a	n/a	1
402.5120000000	n/a	402512	PenaltyB2	1364	n/a	n/a	0
404.9450000000	n/a	404945	PunIncorrB2	1000	n/a	n/a	1
406.9450000000	n/a	406945	ignore	1700	n/a	n/a	1
408.6450000000	n/a	408645	RewardB2	564	n/a	n/a	1
410.2790000000	n/a	410279	RewardCorrB2	1000	n/a	n/a	1
412.2790000000	n/a	412279	ignore	1700	n/a	n/a	1
413.9790000000	n/a	413979	PenaltyB2	728	n/a	n/a	1
415.7790000000	n/a	415779	NeuCorrB2	1000	n/a	n/a	1
417.7790000000	n/a	417779	ignore	1700	n/a	n/a	1
419.4790000000	n/a	419479	RewardB2	517	n/a	n/a	1
421.0620000000	n/a	421062	RewardCorrB2	1000	n/a	n/a	1
423.0620000000	n/a	423062	ignore	1700	n/a	n/a	1
424.7620000000	n/a	424762	PenaltyB2	660	n/a	n/a	0
426.4950000000	n/a	426495	PunIncorrB2	1000	n/a	n/a	1
428.4950000000	n/a	428495	ignore	1700	n/a	n/a	1
430.1950000000	n/a	430195	RewardB2	578	n/a	n/a	0
431.8450000000	n/a	431845	NeuIncorrB2	1000	n/a	n/a	1
433.8450000000	n/a	433845	ignore	1700	n/a	n/a	1
435.5450000000	n/a	435545	PenaltyB2	624	n/a	n/a	0
437.2450000000	n/a	437245	NeuIncorrB2	1000	n/a	n/a	1
439.2450000000	n/a	439245	ignore	1700	n/a	n/a	1
440.9450000000	n/a	440945	RewardB2	489	n/a	n/a	0
442.5120000000	n/a	442512	NeuIncorrB2	1000	n/a	n/a	1
444.5120000000	n/a	444512	ignore	1700	n/a	n/a	1
446.2120000000	n/a	446212	PenaltyB2	587	n/a	n/a	0
447.8620000000	n/a	447862	PunIncorrB2	1000	n/a	n/a	1
449.8620000000	n/a	449862	ignore	1700	n/a	n/a	1
451.5620000000	n/a	451562	RewardB2	552	n/a	n/a	1
453.1790000000	n/a	453179	RewardCorrB2	1000	n/a	n/a	1
455.1790000000	n/a	455179	ignore	1700	n/a	n/a	1
456.8790000000	n/a	456879	PenaltyB2	662	n/a	n/a	0
458.6120000000	n/a	458612	PunIncorrB2	1000	n/a	n/a	1
460.6120000000	n/a	460612	ignore	1700	n/a	n/a	1
462.3120000000	n/a	462312	RewardB2	562	n/a	n/a	1
463.9450000000	n/a	463945	NeuCorrB2	1000	n/a	n/a	1
465.9450000000	n/a	465945	ignore	1700	n/a	n/a	1
467.6450000000	n/a	467645	PenaltyB2	689	n/a	n/a	1
469.4120000000	n/a	469412	NeuCorrB2	1000	n/a	n/a	1
471.4120000000	n/a	471412	ignore	1700	n/a	n/a	1
473.1120000000	n/a	473112	RewardB2	777	n/a	n/a	1
474.9620000000	n/a	474962	RewardCorrB2	1000	n/a	n/a	1
476.9620000000	n/a	476962	ignore	1700	n/a	n/a	1
478.6620000000	n/a	478662	PenaltyB2	660	n/a	n/a	0
480.3950000000	n/a	480395	PunIncorrB2	1000	n/a	n/a	1
482.3950000000	n/a	482395	ignore	1700	n/a	n/a	1
484.0950000000	n/a	484095	RewardB2	612	n/a	n/a	0
485.7790000000	n/a	485779	NeuIncorrB2	1000	n/a	n/a	1
487.7790000000	n/a	487779	ignore	1700	n/a	n/a	1
489.4790000000	n/a	489479	PenaltyB2	654	n/a	n/a	1
491.1950000000	n/a	491195	PunCorrB2	1000	n/a	n/a	1
493.1950000000	n/a	493195	ignore	1700	n/a	n/a	1
494.8950000000	n/a	494895	PenaltyB2	915	n/a	n/a	0
496.8790000000	n/a	496879	PunIncorrB2	1000	n/a	n/a	1
498.8790000000	n/a	498879	ignore	1700	n/a	n/a	1
500.5790000000	n/a	500579	PenaltyB2	755	n/a	n/a	1
502.4120000000	n/a	502412	NeuCorrB2	1000	n/a	n/a	1
504.4120000000	n/a	504412	ignore	1700	n/a	n/a	1
506.1120000000	n/a	506112	RewardB2	408	n/a	n/a	1
507.5950000000	n/a	507595	RewardCorrB2	1000	n/a	n/a	1
509.5950000000	n/a	509595	ignore	1700	n/a	n/a	1
511.2950000000	n/a	511295	RewardB2	669	n/a	n/a	0
513.0290000000	n/a	513029	RewIncorrB2	1000	n/a	n/a	1
515.0290000000	n/a	515029	ignore	1700	n/a	n/a	1
516.7290000000	n/a	516729	RewardB2	488	n/a	n/a	0
518.2790000000	n/a	518279	NeuIncorrB2	1000	n/a	n/a	1
520.2790000000	n/a	520279	ignore	1700	n/a	n/a	1
521.9790000000	n/a	521979	PenaltyB2	815	n/a	n/a	0
523.8620000000	n/a	523862	PunIncorrB2	1000	n/a	n/a	1
525.8620000000	n/a	525862	ignore	1700	n/a	n/a	1
527.5620000000	n/a	527562	PenaltyB2	714	n/a	n/a	1
529.3450000000	n/a	529345	NeuCorrB2	1000	n/a	n/a	1
531.3450000000	n/a	531345	ignore	1700	n/a	n/a	1
533.0450000000	n/a	533045	RewardB2	530	n/a	n/a	1
534.6450000000	n/a	534645	RewardCorrB2	1000	n/a	n/a	1
536.6450000000	n/a	536645	ignore	1700	n/a	n/a	1
538.3450000000	n/a	538345	PenaltyB2	864	n/a	n/a	1
540.2790000000	n/a	540279	NeuCorrB2	1000	n/a	n/a	1
542.2790000000	n/a	542279	ignore	1700	n/a	n/a	1
543.9790000000	n/a	543979	RewardB2	656	n/a	n/a	0
545.7120000000	n/a	545712	RewIncorrB2	1000	n/a	n/a	1
547.7120000000	n/a	547712	ignore	1700	n/a	n/a	1
549.4120000000	n/a	549412	PenaltyB2	2911	n/a	n/a	0
553.3950000000	n/a	553395	PunIncorrB2	1000	n/a	n/a	1
555.3950000000	n/a	555395	ignore	1700	n/a	n/a	1
557.0950000000	n/a	557095	RewardB2	664	n/a	n/a	1
558.8290000000	n/a	558829	RewardCorrB2	1000	n/a	n/a	1
560.8290000000	n/a	560829	ignore	1700	n/a	n/a	1
562.5290000000	n/a	562529	PenaltyB2	491	n/a	n/a	1
564.0950000000	n/a	564095	NeuCorrB2	1000	n/a	n/a	1
566.0950000000	n/a	566095	ignore	1700	n/a	n/a	1
567.7950000000	n/a	567795	PenaltyB2	999	n/a	n/a	0
569.8620000000	n/a	569862	NeuIncorrB2	1000	n/a	n/a	1
571.8620000000	n/a	571862	ignore	1700	n/a	n/a	1
573.5620000000	n/a	573562	RewardB2	458	n/a	n/a	0
575.0950000000	n/a	575095	NeuIncorrB2	1000	n/a	n/a	1
577.0950000000	n/a	577095	ignore	1700	n/a	n/a	1
578.7950000000	n/a	578795	PenaltyB2	685	n/a	n/a	1
580.5450000000	n/a	580545	NeuCorrB2	1000	n/a	n/a	1
582.5450000000	n/a	582545	ignore	1700	n/a	n/a	1
584.2450000000	n/a	584245	RewardB2	585	n/a	n/a	1
585.8950000000	n/a	585895	RewardCorrB2	1000	n/a	n/a	1
587.8950000000	n/a	587895	ignore	1700	n/a	n/a	1
589.5950000000	n/a	589595	PenaltyB2	891	n/a	n/a	1
591.5620000000	n/a	591562	PunCorrB2	1000	n/a	n/a	1
593.5620000000	n/a	593562	ignore	1700	n/a	n/a	1
595.2620000000	n/a	595262	RewardB2	789	n/a	n/a	0
597.1280000000	n/a	597128	NeuIncorrB2	1000	n/a	n/a	1
599.1290000000	n/a	599129	ignore	1700	n/a	n/a	1
604.0780000000	n/a	604078	RewardB3	787	n/a	n/a	0
605.9280000000	n/a	605928	NeuIncorrB3	1000	n/a	n/a	1
607.9290000000	n/a	607929	ignore	1700	n/a	n/a	1
609.6280000000	n/a	609628	PenaltyB3	652	n/a	n/a	0
611.3450000000	n/a	611345	NeuIncorrB3	1000	n/a	n/a	1
613.3450000000	n/a	613345	ignore	1700	n/a	n/a	1
615.0450000000	n/a	615045	RewardB3	469	n/a	n/a	1
616.5780000000	n/a	616578	RewardCorrB3	1000	n/a	n/a	1
618.5790000000	n/a	618579	ignore	1700	n/a	n/a	1
620.2780000000	n/a	620278	PenaltyB3	565	n/a	n/a	0
621.9120000000	n/a	621912	PunIncorrB3	1000	n/a	n/a	1
623.9120000000	n/a	623912	ignore	1700	n/a	n/a	1
625.6120000000	n/a	625612	PenaltyB3	627	n/a	n/a	1
627.3120000000	n/a	627312	NeuCorrB3	1000	n/a	n/a	1
629.3120000000	n/a	629312	ignore	1700	n/a	n/a	1
631.0120000000	n/a	631012	RewardB3	394	n/a	n/a	1
632.4780000000	n/a	632478	RewardCorrB3	1000	n/a	n/a	1
634.4780000000	n/a	634478	ignore	1700	n/a	n/a	1
636.1780000000	n/a	636178	PenaltyB3	728	n/a	n/a	1
637.9780000000	n/a	637978	PunCorrB3	1000	n/a	n/a	1
639.9780000000	n/a	639978	ignore	1700	n/a	n/a	1
641.6780000000	n/a	641678	RewardB3	680	n/a	n/a	0
643.4280000000	n/a	643428	NeuIncorrB3	1000	n/a	n/a	1
645.4280000000	n/a	645428	ignore	1700	n/a	n/a	1
647.1280000000	n/a	647128	PenaltyB3	683	n/a	n/a	0
648.8780000000	n/a	648878	PunIncorrB3	1000	n/a	n/a	1
650.8780000000	n/a	650878	ignore	1700	n/a	n/a	1
652.5780000000	n/a	652578	RewardB3	570	n/a	n/a	1
654.2120000000	n/a	654212	NeuCorrB3	1000	n/a	n/a	1
656.2120000000	n/a	656212	ignore	1700	n/a	n/a	1
657.9120000000	n/a	657912	PenaltyB3	707	n/a	n/a	1
659.6950000000	n/a	659695	NeuCorrB3	1000	n/a	n/a	1
661.6950000000	n/a	661695	ignore	1700	n/a	n/a	1
663.3950000000	n/a	663395	RewardB3	585	n/a	n/a	1
665.0450000000	n/a	665045	RewardCorrB3	1000	n/a	n/a	1
667.0450000000	n/a	667045	ignore	1700	n/a	n/a	1
668.7450000000	n/a	668745	RewardB3	638	n/a	n/a	0
670.4450000000	n/a	670445	NeuIncorrB3	1000	n/a	n/a	1
672.4450000000	n/a	672445	ignore	1700	n/a	n/a	1
674.1450000000	n/a	674145	RewardB3	509	n/a	n/a	1
675.7280000000	n/a	675728	RewardCorrB3	1000	n/a	n/a	1
677.7280000000	n/a	677728	ignore	1700	n/a	n/a	1
679.4280000000	n/a	679428	PenaltyB3	562	n/a	n/a	1
681.0620000000	n/a	681062	PunCorrB3	1000	n/a	n/a	1
683.0620000000	n/a	683062	ignore	1700	n/a	n/a	1
684.7620000000	n/a	684762	RewardB3	795	n/a	n/a	1
686.6280000000	n/a	686628	RewardCorrB3	1000	n/a	n/a	1
688.6280000000	n/a	688628	ignore	1700	n/a	n/a	1
690.3280000000	n/a	690328	PenaltyB3	858	n/a	n/a	0
692.2620000000	n/a	692262	PunIncorrB3	1000	n/a	n/a	1
694.2620000000	n/a	694262	ignore	1700	n/a	n/a	1
695.9620000000	n/a	695962	RewardB3	930	n/a	n/a	0
697.9620000000	n/a	697962	NeuIncorrB3	1000	n/a	n/a	1
699.9620000000	n/a	699962	ignore	1700	n/a	n/a	1
701.6620000000	n/a	701662	RewardB3	668	n/a	n/a	1
703.3950000000	n/a	703395	RewardCorrB3	1000	n/a	n/a	1
705.3950000000	n/a	705395	ignore	1700	n/a	n/a	1
707.0950000000	n/a	707095	RewardB3	637	n/a	n/a	1
708.7950000000	n/a	708795	NeuCorrB3	1000	n/a	n/a	1
710.7950000000	n/a	710795	ignore	1700	n/a	n/a	1
712.4950000000	n/a	712495	RewardB3	1303	n/a	n/a	0
714.8620000000	n/a	714862	NeuIncorrB3	1000	n/a	n/a	1
716.8620000000	n/a	716862	ignore	1700	n/a	n/a	1
718.5620000000	n/a	718562	RewardB3	784	n/a	n/a	0
720.4120000000	n/a	720412	NeuIncorrB3	1000	n/a	n/a	1
722.4120000000	n/a	722412	ignore	1700	n/a	n/a	1
724.1120000000	n/a	724112	PenaltyB3	949	n/a	n/a	1
726.1280000000	n/a	726128	NeuCorrB3	1000	n/a	n/a	1
728.1280000000	n/a	728128	ignore	1700	n/a	n/a	1
729.8280000000	n/a	729828	RewardB3	518	n/a	n/a	0
731.4120000000	n/a	731412	RewIncorrB3	1000	n/a	n/a	1
733.4120000000	n/a	733412	ignore	1700	n/a	n/a	1
735.1120000000	n/a	735112	PenaltyB3	601	n/a	n/a	1
736.7780000000	n/a	736778	NeuCorrB3	1000	n/a	n/a	1
738.7780000000	n/a	738778	ignore	1700	n/a	n/a	1
740.4780000000	n/a	740478	PenaltyB3	523	n/a	n/a	0
742.0780000000	n/a	742078	PunIncorrB3	1000	n/a	n/a	1
744.0780000000	n/a	744078	ignore	1700	n/a	n/a	1
745.7780000000	n/a	745778	RewardB3	478	n/a	n/a	0
747.3280000000	n/a	747328	NeuIncorrB3	1000	n/a	n/a	1
749.3280000000	n/a	749328	ignore	1700	n/a	n/a	1
751.0280000000	n/a	751028	PenaltyB3	703	n/a	n/a	0
752.7950000000	n/a	752795	PunIncorrB3	1000	n/a	n/a	1
754.7950000000	n/a	754795	ignore	1700	n/a	n/a	1
756.4950000000	n/a	756495	RewardB3	777	n/a	n/a	0
758.3450000000	n/a	758345	RewIncorrB3	1000	n/a	n/a	1
760.3450000000	n/a	760345	ignore	1700	n/a	n/a	1
762.0450000000	n/a	762045	PenaltyB3	532	n/a	n/a	1
763.6450000000	n/a	763645	NeuCorrB3	1000	n/a	n/a	1
765.6450000000	n/a	765645	ignore	1700	n/a	n/a	1
767.3450000000	n/a	767345	RewardB3	666	n/a	n/a	1
769.0780000000	n/a	769078	RewardCorrB3	1000	n/a	n/a	1
771.0780000000	n/a	771078	ignore	1700	n/a	n/a	1
772.7780000000	n/a	772778	PenaltyB3	578	n/a	n/a	0
774.4280000000	n/a	774428	NeuIncorrB3	1000	n/a	n/a	1
776.4280000000	n/a	776428	ignore	1700	n/a	n/a	1
778.1280000000	n/a	778128	PenaltyB3	602	n/a	n/a	1
779.7950000000	n/a	779795	NeuCorrB3	1000	n/a	n/a	1
781.7950000000	n/a	781795	ignore	1700	n/a	n/a	1
783.4950000000	n/a	783495	PenaltyB3	607	n/a	n/a	1
785.1780000000	n/a	785178	NeuCorrB3	1000	n/a	n/a	1
787.1780000000	n/a	787178	ignore	1700	n/a	n/a	1
788.8780000000	n/a	788878	PenaltyB3	1814	n/a	n/a	0
791.7620000000	n/a	791762	PunIncorrB3	1000	n/a	n/a	1
793.7620000000	n/a	793762	ignore	1700	n/a	n/a	1
795.4620000000	n/a	795462	RewardB3	642	n/a	n/a	1
797.1780000000	n/a	797178	RewardCorrB3	1000	n/a	n/a	1
799.1780000000	n/a	799178	ignore	1700	n/a	n/a	1
800.8780000000	n/a	800878	RewardB3	597	n/a	n/a	0
802.5450000000	n/a	802545	NeuIncorrB3	1000	n/a	n/a	1
804.5450000000	n/a	804545	ignore	1700	n/a	n/a	1
806.2450000000	n/a	806245	PenaltyB3	663	n/a	n/a	0
807.9780000000	n/a	807978	PunIncorrB3	1000	n/a	n/a	1
809.9780000000	n/a	809978	ignore	1700	n/a	n/a	1
811.6780000000	n/a	811678	PenaltyB3	762	n/a	n/a	1
813.5120000000	n/a	813512	NeuCorrB3	1000	n/a	n/a	1
815.5120000000	n/a	815512	ignore	1700	n/a	n/a	1
817.2120000000	n/a	817212	PenaltyB3	1762	n/a	n/a	0
820.0450000000	n/a	820045	PunIncorrB3	1000	n/a	n/a	1
822.0450000000	n/a	822045	ignore	1700	n/a	n/a	1
828.2280000000	n/a	828228	RewardB4	761	n/a	n/a	0
830.0610000000	n/a	830061	NeuIncorrB4	1000	n/a	n/a	1
832.0620000000	n/a	832062	ignore	1700	n/a	n/a	1
833.7610000000	n/a	833761	PenaltyB4	2365	n/a	n/a	1
837.1950000000	n/a	837195	PunCorrB4	1000	n/a	n/a	1
839.1950000000	n/a	839195	ignore	1700	n/a	n/a	1
840.8950000000	n/a	840895	RewardB4	580	n/a	n/a	1
842.5450000000	n/a	842545	RewardCorrB4	1000	n/a	n/a	1
844.5450000000	n/a	844545	ignore	1700	n/a	n/a	1
846.2450000000	n/a	846245	PenaltyB4	1440	n/a	n/a	1
848.7610000000	n/a	848761	NeuCorrB4	1000	n/a	n/a	1
850.7620000000	n/a	850762	ignore	1700	n/a	n/a	1
852.4610000000	n/a	852461	RewardB4	944	n/a	n/a	0
854.4780000000	n/a	854478	NeuIncorrB4	1000	n/a	n/a	1
856.4780000000	n/a	856478	ignore	1700	n/a	n/a	1
858.1780000000	n/a	858178	PenaltyB4	870	n/a	n/a	0
860.1110000000	n/a	860111	NeuIncorrB4	1000	n/a	n/a	1
862.1110000000	n/a	862111	ignore	1700	n/a	n/a	1
863.8110000000	n/a	863811	PenaltyB4	727	n/a	n/a	1
865.6110000000	n/a	865611	NeuCorrB4	1000	n/a	n/a	1
867.6110000000	n/a	867611	ignore	1700	n/a	n/a	1
869.3110000000	n/a	869311	RewardB4	536	n/a	n/a	1
870.9110000000	n/a	870911	RewardCorrB4	1000	n/a	n/a	1
872.9110000000	n/a	872911	ignore	1700	n/a	n/a	1
874.6110000000	n/a	874611	PenaltyB4	607	n/a	n/a	0
876.2950000000	n/a	876295	PunIncorrB4	1000	n/a	n/a	1
878.2950000000	n/a	878295	ignore	1700	n/a	n/a	1
879.9950000000	n/a	879995	RewardB4	762	n/a	n/a	0
881.8280000000	n/a	881828	RewIncorrB4	1000	n/a	n/a	1
883.8280000000	n/a	883828	ignore	1700	n/a	n/a	1
885.5280000000	n/a	885528	PenaltyB4	1041	n/a	n/a	1
887.6450000000	n/a	887645	NeuCorrB4	1000	n/a	n/a	1
889.6450000000	n/a	889645	ignore	1700	n/a	n/a	1
891.3450000000	n/a	891345	RewardB4	639	n/a	n/a	1
893.0610000000	n/a	893061	RewardCorrB4	1000	n/a	n/a	1
895.0610000000	n/a	895061	ignore	1700	n/a	n/a	1
896.7610000000	n/a	896761	PenaltyB4	570	n/a	n/a	1
898.3950000000	n/a	898395	NeuCorrB4	1000	n/a	n/a	1
900.3950000000	n/a	900395	ignore	1700	n/a	n/a	1
902.0950000000	n/a	902095	PenaltyB4	611	n/a	n/a	0
903.7780000000	n/a	903778	PunIncorrB4	1000	n/a	n/a	1
905.7780000000	n/a	905778	ignore	1700	n/a	n/a	1
907.4780000000	n/a	907478	RewardB4	809	n/a	n/a	0
909.3610000000	n/a	909361	NeuIncorrB4	1000	n/a	n/a	1
911.3610000000	n/a	911361	ignore	1700	n/a	n/a	1
913.0610000000	n/a	913061	RewardB4	1007	n/a	n/a	0
915.1450000000	n/a	915145	RewIncorrB4	1000	n/a	n/a	1
917.1450000000	n/a	917145	ignore	1700	n/a	n/a	1
918.8450000000	n/a	918845	RewardB4	539	n/a	n/a	1
920.4610000000	n/a	920461	RewardCorrB4	1000	n/a	n/a	1
922.4610000000	n/a	922461	STATUS	1700	n/a	n/a	1
924.1610000000	n/a	924161	PenaltyB4	615	n/a	n/a	1
925.8450000000	n/a	925845	NeuCorrB4	1000	n/a	n/a	1
927.8450000000	n/a	927845	STATUS	1700	n/a	n/a	1
929.5450000000	n/a	929545	PenaltyB4	577	n/a	n/a	0
931.1950000000	n/a	931195	PunIncorrB4	1000	n/a	n/a	1
933.1950000000	n/a	933195	ignore	1700	n/a	n/a	1
934.8950000000	n/a	934895	PenaltyB4	775	n/a	n/a	1
936.7450000000	n/a	936745	PunCorrB4	1000	n/a	n/a	1
938.7450000000	n/a	938745	ignore	1700	n/a	n/a	1
940.4450000000	n/a	940445	RewardB4	481	n/a	n/a	0
941.9950000000	n/a	941995	NeuIncorrB4	1000	n/a	n/a	1
943.9950000000	n/a	943995	ignore	1700	n/a	n/a	1
945.6950000000	n/a	945695	PenaltyB4	653	n/a	n/a	0
947.4110000000	n/a	947411	PunIncorrB4	1000	n/a	n/a	1
949.4110000000	n/a	949411	ignore	1700	n/a	n/a	1
951.1110000000	n/a	951111	RewardB4	824	n/a	n/a	1
953.0110000000	n/a	953011	RewardCorrB4	1000	n/a	n/a	1
955.0110000000	n/a	955011	ignore	1700	n/a	n/a	1
956.7110000000	n/a	956711	PenaltyB4	651	n/a	n/a	1
958.4280000000	n/a	958428	NeuCorrB4	1000	n/a	n/a	1
960.4280000000	n/a	960428	ignore	1700	n/a	n/a	1
962.1280000000	n/a	962128	RewardB4	1169	n/a	n/a	1
964.3610000000	n/a	964361	NeuCorrB4	1000	n/a	n/a	1
966.3610000000	n/a	966361	ignore	1700	n/a	n/a	1
968.0610000000	n/a	968061	PenaltyB4	479	n/a	n/a	0
969.6110000000	n/a	969611	PunIncorrB4	1000	n/a	n/a	1
971.6110000000	n/a	971611	ignore	1700	n/a	n/a	1
973.3110000000	n/a	973311	RewardB4	442	n/a	n/a	1
974.8280000000	n/a	974828	RewardCorrB4	1000	n/a	n/a	1
976.8280000000	n/a	976828	ignore	1700	n/a	n/a	1
978.5280000000	n/a	978528	PenaltyB4	630	n/a	n/a	0
980.2280000000	n/a	980228	PunIncorrB4	1000	n/a	n/a	1
982.2280000000	n/a	982228	ignore	1700	n/a	n/a	1
983.9280000000	n/a	983928	RewardB4	459	n/a	n/a	0
985.4610000000	n/a	985461	NeuIncorrB4	1000	n/a	n/a	1
987.4610000000	n/a	987461	ignore	1700	n/a	n/a	1
989.1610000000	n/a	989161	PenaltyB4	895	n/a	n/a	0
991.1280000000	n/a	991128	NeuIncorrB4	1000	n/a	n/a	1
993.1280000000	n/a	993128	ignore	1700	n/a	n/a	1
994.8280000000	n/a	994828	RewardB4	643	n/a	n/a	0
996.5450000000	n/a	996545	NeuIncorrB4	1000	n/a	n/a	1
998.5450000000	n/a	998545	ignore	1700	n/a	n/a	1
1000.2450000000	n/a	1000245	PenaltyB4	644	n/a	n/a	0
1001.9610000000	n/a	1001961	PunIncorrB4	1000	n/a	n/a	1
1003.9610000000	n/a	1003961	ignore	1700	n/a	n/a	1
1005.6610000000	n/a	1005661	RewardB4	628	n/a	n/a	1
1007.3610000000	n/a	1007361	RewardCorrB4	1000	n/a	n/a	1
1009.3610000000	n/a	1009361	ignore	1700	n/a	n/a	1
1011.0610000000	n/a	1011061	PenaltyB4	1327	n/a	n/a	1
1013.4610000000	n/a	1013461	NeuCorrB4	1000	n/a	n/a	1
1015.4610000000	n/a	1015461	ignore	1700	n/a	n/a	1
1017.1610000000	n/a	1017161	RewardB4	747	n/a	n/a	1
1018.9780000000	n/a	1018978	RewardCorrB4	1000	n/a	n/a	1
1020.9780000000	n/a	1020978	ignore	1700	n/a	n/a	1
1022.6780000000	n/a	1022678	PenaltyB4	645	n/a	n/a	0
1024.3950000000	n/a	1024395	PunIncorrB4	1000	n/a	n/a	1
1026.3950000000	n/a	1026395	ignore	1700	n/a	n/a	1
1028.0950000000	n/a	1028095	RewardB4	7843	n/a	n/a	1
1037.0110000000	n/a	1037011	NeuCorrB4	1000	n/a	n/a	1
1039.0110000000	n/a	1039011	ignore	1700	n/a	n/a	1
1040.7110000000	n/a	1040711	RewardB4	472	n/a	n/a	0
1042.2610000000	n/a	1042261	NeuIncorrB4	1000	n/a	n/a	1
1044.2610000000	n/a	1044261	ignore	1700	n/a	n/a	1
1045.9610000000	n/a	1045961	PenaltyB4	699	n/a	n/a	1
1047.7280000000	n/a	1047728	NeuCorrB4	1000	n/a	n/a	1
1049.7280000000	n/a	1049728	ignore	1700	n/a	n/a	1
1051.4280000000	n/a	1051428	RewardB4	778	n/a	n/a	0
1053.2780000000	n/a	1053278	NeuIncorrB4	1000	n/a	n/a	1
1055.2780000000	n/a	1055278	ignore	1700	n/a	n/a	1
1062.6280000000	n/a	1062628	ignore	1700	n/a	n/a	1
