onset	duration	sample	trial_type	response_time	stim_file	value	correct
6.1210000000	n/a	6121	ignore	n/a	n/a	n/a	n/a
9.2210000000	n/a	9221	ignore	n/a	n/a	n/a	n/a
12.2340000000	n/a	12234	ignore	n/a	n/a	n/a	n/a
29.2880000000	n/a	29288	ignore	n/a	n/a	n/a	n/a
32.3880000000	n/a	32388	ignore	n/a	n/a	n/a	n/a
35.3750000000	n/a	35375	ignore	n/a	n/a	n/a	n/a
51.1550000000	n/a	51155	NeuStim	n/a	n/a	n/a	n/a
54.2550000000	n/a	54255	NeuNonAlcP1000	n/a	n/a	n/a	n/a
59.2420000000	n/a	59242	NeuNonAlcP1000	n/a	n/a	n/a	n/a
67.8050000000	n/a	67805	PosStim	n/a	n/a	n/a	n/a
70.8380000000	n/a	70838	PosAlcStimWithoutStartle	n/a	n/a	n/a	n/a
85.7040000000	n/a	85704	NeuStim	n/a	n/a	n/a	n/a
88.8040000000	n/a	88804	NeuAlcP2000	n/a	n/a	n/a	n/a
92.7920000000	n/a	92792	NeuAlcP2000	n/a	n/a	n/a	n/a
103.5210000000	n/a	103521	NegStim	n/a	n/a	n/a	n/a
106.6210000000	n/a	106621	NegNonAlcP2000	n/a	n/a	n/a	n/a
110.6080000000	n/a	110608	NegNonAlcP2000	n/a	n/a	n/a	n/a
121.1710000000	n/a	121171	NeuStim	n/a	n/a	n/a	n/a
124.2040000000	n/a	124204	NeuNonAlcStimWithoutStartle	n/a	n/a	n/a	n/a
138.5710000000	n/a	138571	PosStim	n/a	n/a	n/a	n/a
141.6710000000	n/a	141671	PosNonAlcP1000	n/a	n/a	n/a	n/a
146.6580000000	n/a	146658	PosNonAlcP1000	n/a	n/a	n/a	n/a
156.1540000000	n/a	156154	NeuStim	n/a	n/a	n/a	n/a
159.2540000000	n/a	159254	NeuAlcP1000	n/a	n/a	n/a	n/a
164.2410000000	n/a	164241	NeuAlcP1000	n/a	n/a	n/a	n/a
175.7540000000	n/a	175754	NegStim	n/a	n/a	n/a	n/a
178.7880000000	n/a	178788	NegNonAlcStimWithoutStartle	n/a	n/a	n/a	n/a
193.1710000000	n/a	193171	NeuStim	n/a	n/a	n/a	n/a
196.2710000000	n/a	196271	NeuNonAlcP1000	n/a	n/a	n/a	n/a
201.2580000000	n/a	201258	NeuNonAlcP1000	n/a	n/a	n/a	n/a
210.6540000000	n/a	210654	NegStim	n/a	n/a	n/a	n/a
213.7540000000	n/a	213754	NegNonAlcP3000	n/a	n/a	n/a	n/a
216.7410000000	n/a	216741	NegNonAlcP3000	n/a	n/a	n/a	n/a
228.4380000000	n/a	228438	PosStim	n/a	n/a	n/a	n/a
231.5380000000	n/a	231538	PosNonAlcP3000	n/a	n/a	n/a	n/a
234.5250000000	n/a	234525	PosNonAlcP3000	n/a	n/a	n/a	n/a
246.5210000000	n/a	246521	NeuStim	n/a	n/a	n/a	n/a
249.6210000000	n/a	249621	NeuAlcP1000	n/a	n/a	n/a	n/a
254.6080000000	n/a	254608	NeuAlcP1000	n/a	n/a	n/a	n/a
264.4210000000	n/a	264421	NegStim	n/a	n/a	n/a	n/a
267.4540000000	n/a	267454	NegAlcStimWithoutStartle	n/a	n/a	n/a	n/a
281.8210000000	n/a	281821	PosStim	n/a	n/a	n/a	n/a
284.8540000000	n/a	284854	PosNonAlcStimWithoutStartle	n/a	n/a	n/a	n/a
301.8710000000	n/a	301871	NegStim	n/a	n/a	n/a	n/a
304.9710000000	n/a	304971	NegAlcP3000	n/a	n/a	n/a	n/a
307.9580000000	n/a	307958	NegAlcP3000	n/a	n/a	n/a	n/a
320.0370000000	n/a	320037	NeuStim	n/a	n/a	n/a	n/a
323.0710000000	n/a	323071	NeuAlcStimWithoutStartle	n/a	n/a	n/a	n/a
337.3540000000	n/a	337354	PosStim	n/a	n/a	n/a	n/a
340.4540000000	n/a	340454	PosNonAlcP1000	n/a	n/a	n/a	n/a
345.4410000000	n/a	345441	PosNonAlcP1000	n/a	n/a	n/a	n/a
357.3040000000	n/a	357304	NegStim	n/a	n/a	n/a	n/a
360.4040000000	n/a	360404	NegAlcP3000	n/a	n/a	n/a	n/a
363.3910000000	n/a	363391	NegAlcP3000	n/a	n/a	n/a	n/a
374.1540000000	n/a	374154	NegStim	n/a	n/a	n/a	n/a
377.1870000000	n/a	377187	NegNonAlcStimWithoutStartle	n/a	n/a	n/a	n/a
392.6710000000	n/a	392671	PosStim	n/a	n/a	n/a	n/a
395.7710000000	n/a	395771	PosAlcP1000	n/a	n/a	n/a	n/a
400.7580000000	n/a	400758	PosAlcP1000	n/a	n/a	n/a	n/a
412.4370000000	n/a	412437	NeuStim	n/a	n/a	n/a	n/a
415.4710000000	n/a	415471	NeuAlcStimWithoutStartle	n/a	n/a	n/a	n/a
432.1870000000	n/a	432187	NegStim	n/a	n/a	n/a	n/a
435.2870000000	n/a	435287	NegNonAlcP1000	n/a	n/a	n/a	n/a
440.2740000000	n/a	440274	NegNonAlcP1000	n/a	n/a	n/a	n/a
450.7210000000	n/a	450721	PosStim	n/a	n/a	n/a	n/a
453.8210000000	n/a	453821	PosAlcP3000	n/a	n/a	n/a	n/a
456.8080000000	n/a	456808	PosAlcP3000	n/a	n/a	n/a	n/a
469.8870000000	n/a	469887	NeuStim	n/a	n/a	n/a	n/a
472.9870000000	n/a	472987	NeuAlcP3000	n/a	n/a	n/a	n/a
475.9740000000	n/a	475974	NeuAlcP3000	n/a	n/a	n/a	n/a
486.6040000000	n/a	486604	NegStim	n/a	n/a	n/a	n/a
489.6370000000	n/a	489637	NegAlcStimWithoutStartle	n/a	n/a	n/a	n/a
505.1540000000	n/a	505154	PosStim	n/a	n/a	n/a	n/a
508.2540000000	n/a	508254	PosNonAlcP2000	n/a	n/a	n/a	n/a
512.2410000000	n/a	512241	PosNonAlcP2000	n/a	n/a	n/a	n/a
521.6210000000	n/a	521621	NegStim	n/a	n/a	n/a	n/a
524.7210000000	n/a	524721	NegAlcP2000	n/a	n/a	n/a	n/a
528.7080000000	n/a	528708	NegAlcP2000	n/a	n/a	n/a	n/a
538.0370000000	n/a	538037	PosStim	n/a	n/a	n/a	n/a
541.1370000000	n/a	541137	PosAlcP2000	n/a	n/a	n/a	n/a
545.1240000000	n/a	545124	PosAlcP2000	n/a	n/a	n/a	n/a
555.3700000000	n/a	555370	NeuStim	n/a	n/a	n/a	n/a
558.4040000000	n/a	558404	NeuAlcStimWithoutStartle	n/a	n/a	n/a	n/a
574.1200000000	n/a	574120	NegStim	n/a	n/a	n/a	n/a
577.2200000000	n/a	577220	NegNonAlcP1000	n/a	n/a	n/a	n/a
582.2080000000	n/a	582208	NegNonAlcP1000	n/a	n/a	n/a	n/a
594.1540000000	n/a	594154	NeuStim	n/a	n/a	n/a	n/a
597.2540000000	n/a	597254	NeuNonAlcP1000	n/a	n/a	n/a	n/a
602.2410000000	n/a	602241	NeuNonAlcP1000	n/a	n/a	n/a	n/a
612.1370000000	n/a	612137	PosStim	n/a	n/a	n/a	n/a
615.2370000000	n/a	615237	PosNonAlcP3000	n/a	n/a	n/a	n/a
618.2240000000	n/a	618224	PosNonAlcP3000	n/a	n/a	n/a	n/a
629.8040000000	n/a	629804	NeuStim	n/a	n/a	n/a	n/a
632.8370000000	n/a	632837	NeuNonAlcStimWithoutStartle	n/a	n/a	n/a	n/a
647.3540000000	n/a	647354	NegStim	n/a	n/a	n/a	n/a
650.3870000000	n/a	650387	NegNonAlcStimWithoutStartle	n/a	n/a	n/a	n/a
667.0540000000	n/a	667054	NeuStim	n/a	n/a	n/a	n/a
670.1540000000	n/a	670154	NeuNonAlcP3000	n/a	n/a	n/a	n/a
673.1410000000	n/a	673141	NeuNonAlcP3000	n/a	n/a	n/a	n/a
686.6370000000	n/a	686637	PosStim	n/a	n/a	n/a	n/a
689.7370000000	n/a	689737	PosAlcP1000	n/a	n/a	n/a	n/a
694.7240000000	n/a	694724	PosAlcP1000	n/a	n/a	n/a	n/a
704.6870000000	n/a	704687	NegStim	n/a	n/a	n/a	n/a
707.7870000000	n/a	707787	NegNonAlcP1000	n/a	n/a	n/a	n/a
712.7740000000	n/a	712774	NegNonAlcP1000	n/a	n/a	n/a	n/a
721.9700000000	n/a	721970	PosStim	n/a	n/a	n/a	n/a
725.0040000000	n/a	725004	PosNonAlcStimWithoutStartle	n/a	n/a	n/a	n/a
738.9700000000	n/a	738970	NeuStim	n/a	n/a	n/a	n/a
742.0700000000	n/a	742070	NeuAlcP2000	n/a	n/a	n/a	n/a
746.0570000000	n/a	746057	NeuAlcP2000	n/a	n/a	n/a	n/a
757.9540000000	n/a	757954	PosStim	n/a	n/a	n/a	n/a
761.0540000000	n/a	761054	PosAlcP1000	n/a	n/a	n/a	n/a
766.0410000000	n/a	766041	PosAlcP1000	n/a	n/a	n/a	n/a
775.9700000000	n/a	775970	NegStim	n/a	n/a	n/a	n/a
779.0040000000	n/a	779004	NegNonAlcStimWithoutStartle	n/a	n/a	n/a	n/a
794.9530000000	n/a	794953	PosStim	n/a	n/a	n/a	n/a
798.0530000000	n/a	798053	PosNonAlcP2000	n/a	n/a	n/a	n/a
802.0400000000	n/a	802040	PosNonAlcP2000	n/a	n/a	n/a	n/a
813.5200000000	n/a	813520	NegStim	n/a	n/a	n/a	n/a
816.6200000000	n/a	816620	NegNonAlcP3000	n/a	n/a	n/a	n/a
819.6070000000	n/a	819607	NegNonAlcP3000	n/a	n/a	n/a	n/a
832.2700000000	n/a	832270	NeuStim	n/a	n/a	n/a	n/a
835.3700000000	n/a	835370	NeuNonAlcP2000	n/a	n/a	n/a	n/a
839.3570000000	n/a	839357	NeuNonAlcP2000	n/a	n/a	n/a	n/a
852.4200000000	n/a	852420	NegStim	n/a	n/a	n/a	n/a
855.4530000000	n/a	855453	NegAlcStimWithoutStartle	n/a	n/a	n/a	n/a
870.3870000000	n/a	870387	PosStim	n/a	n/a	n/a	n/a
873.4200000000	n/a	873420	PosAlcStimWithoutStartle	n/a	n/a	n/a	n/a
886.6870000000	n/a	886687	NeuStim	n/a	n/a	n/a	n/a
889.7870000000	n/a	889787	NeuAlcP3000	n/a	n/a	n/a	n/a
892.7740000000	n/a	892774	NeuAlcP3000	n/a	n/a	n/a	n/a
902.9870000000	n/a	902987	NegStim	n/a	n/a	n/a	n/a
906.0870000000	n/a	906087	NegNonAlcP1000	n/a	n/a	n/a	n/a
911.0740000000	n/a	911074	NegNonAlcP1000	n/a	n/a	n/a	n/a
919.7030000000	n/a	919703	NeuStim	n/a	n/a	n/a	n/a
922.8030000000	n/a	922803	NeuNonAlcP2000	n/a	n/a	n/a	n/a
926.7900000000	n/a	926790	NeuNonAlcP2000	n/a	n/a	n/a	n/a
937.5200000000	n/a	937520	PosStim	n/a	n/a	n/a	n/a
940.5530000000	n/a	940553	PosAlcStimWithoutStartle	n/a	n/a	n/a	n/a
954.0030000000	n/a	954003	NegStim	n/a	n/a	n/a	n/a
957.1030000000	n/a	957103	NegNonAlcP2000	n/a	n/a	n/a	n/a
961.0900000000	n/a	961090	NegNonAlcP2000	n/a	n/a	n/a	n/a
971.1030000000	n/a	971103	NeuStim	n/a	n/a	n/a	n/a
974.2030000000	n/a	974203	NeuAlcP1000	n/a	n/a	n/a	n/a
979.1900000000	n/a	979190	NeuAlcP1000	n/a	n/a	n/a	n/a
