onset	duration	sample	trial_type	response_time	stim_file	value	correct
7.1770000000	n/a	7177	ignore	n/a	n/a	n/a	n/a
10.2770000000	n/a	10277	ignore	n/a	n/a	n/a	n/a
13.2930000000	n/a	13293	ignore	n/a	n/a	n/a	n/a
29.0940000000	n/a	29094	ignore	n/a	n/a	n/a	n/a
32.1940000000	n/a	32194	ignore	n/a	n/a	n/a	n/a
35.1810000000	n/a	35181	ignore	n/a	n/a	n/a	n/a
50.8440000000	n/a	50844	PosStim	n/a	n/a	n/a	n/a
53.8770000000	n/a	53877	PosNonAlcStimWithoutStartle	n/a	n/a	n/a	n/a
67.7600000000	n/a	67760	NegStim	n/a	n/a	n/a	n/a
70.7940000000	n/a	70794	NegNonAlcStimWithoutStartle	n/a	n/a	n/a	n/a
85.4100000000	n/a	85410	NeuStim	n/a	n/a	n/a	n/a
88.5100000000	n/a	88510	NeuNonAlcP2000	n/a	n/a	n/a	n/a
92.4970000000	n/a	92497	NeuNonAlcP2000	n/a	n/a	n/a	n/a
101.8930000000	n/a	101893	NegStim	n/a	n/a	n/a	n/a
104.9930000000	n/a	104993	NegAlcP2000	n/a	n/a	n/a	n/a
108.9810000000	n/a	108981	NegAlcP2000	n/a	n/a	n/a	n/a
118.7100000000	n/a	118710	NeuStim	n/a	n/a	n/a	n/a
121.7430000000	n/a	121743	NeuAlcStimWithoutStartle	n/a	n/a	n/a	n/a
136.2270000000	n/a	136227	PosStim	n/a	n/a	n/a	n/a
139.3270000000	n/a	139327	PosAlcP1000	n/a	n/a	n/a	n/a
144.3140000000	n/a	144314	PosAlcP1000	n/a	n/a	n/a	n/a
153.4770000000	n/a	153477	NeuStim	n/a	n/a	n/a	n/a
156.5770000000	n/a	156577	NeuAlcP2000	n/a	n/a	n/a	n/a
160.5640000000	n/a	160564	NeuAlcP2000	n/a	n/a	n/a	n/a
169.7100000000	n/a	169710	NegStim	n/a	n/a	n/a	n/a
172.8100000000	n/a	172810	NegAlcP3000	n/a	n/a	n/a	n/a
175.7970000000	n/a	175797	NegAlcP3000	n/a	n/a	n/a	n/a
189.2600000000	n/a	189260	PosStim	n/a	n/a	n/a	n/a
192.2930000000	n/a	192293	PosNonAlcStimWithoutStartle	n/a	n/a	n/a	n/a
205.8270000000	n/a	205827	NeuStim	n/a	n/a	n/a	n/a
208.9270000000	n/a	208927	NeuAlcP1000	n/a	n/a	n/a	n/a
213.9140000000	n/a	213914	NeuAlcP1000	n/a	n/a	n/a	n/a
224.7600000000	n/a	224760	NegStim	n/a	n/a	n/a	n/a
227.8600000000	n/a	227860	NegNonAlcP3000	n/a	n/a	n/a	n/a
230.8470000000	n/a	230847	NegNonAlcP3000	n/a	n/a	n/a	n/a
242.0100000000	n/a	242010	PosStim	n/a	n/a	n/a	n/a
245.1100000000	n/a	245110	PosAlcP2000	n/a	n/a	n/a	n/a
249.0970000000	n/a	249097	PosAlcP2000	n/a	n/a	n/a	n/a
260.9770000000	n/a	260977	NegStim	n/a	n/a	n/a	n/a
264.0100000000	n/a	264010	NegNonAlcStimWithoutStartle	n/a	n/a	n/a	n/a
278.1430000000	n/a	278143	PosStim	n/a	n/a	n/a	n/a
281.1770000000	n/a	281177	PosAlcStimWithoutStartle	n/a	n/a	n/a	n/a
295.6100000000	n/a	295610	NeuStim	n/a	n/a	n/a	n/a
298.7100000000	n/a	298710	NeuNonAlcP3000	n/a	n/a	n/a	n/a
301.6970000000	n/a	301697	NeuNonAlcP3000	n/a	n/a	n/a	n/a
312.2260000000	n/a	312226	NegStim	n/a	n/a	n/a	n/a
315.3260000000	n/a	315326	NegAlcP1000	n/a	n/a	n/a	n/a
320.3130000000	n/a	320313	NegAlcP1000	n/a	n/a	n/a	n/a
329.5430000000	n/a	329543	NeuStim	n/a	n/a	n/a	n/a
332.6430000000	n/a	332643	NeuAlcP3000	n/a	n/a	n/a	n/a
335.6300000000	n/a	335630	NeuAlcP3000	n/a	n/a	n/a	n/a
347.8600000000	n/a	347860	PosStim	n/a	n/a	n/a	n/a
350.9600000000	n/a	350960	PosAlcP3000	n/a	n/a	n/a	n/a
353.9470000000	n/a	353947	PosAlcP3000	n/a	n/a	n/a	n/a
365.7760000000	n/a	365776	NeuStim	n/a	n/a	n/a	n/a
368.8100000000	n/a	368810	NeuAlcStimWithoutStartle	n/a	n/a	n/a	n/a
383.3600000000	n/a	383360	NegStim	n/a	n/a	n/a	n/a
386.4600000000	n/a	386460	NegAlcP1000	n/a	n/a	n/a	n/a
391.4470000000	n/a	391447	NegAlcP1000	n/a	n/a	n/a	n/a
400.9760000000	n/a	400976	NeuStim	n/a	n/a	n/a	n/a
404.0760000000	n/a	404076	NeuNonAlcP3000	n/a	n/a	n/a	n/a
407.0630000000	n/a	407063	NeuNonAlcP3000	n/a	n/a	n/a	n/a
418.5430000000	n/a	418543	NegStim	n/a	n/a	n/a	n/a
421.6430000000	n/a	421643	NegNonAlcP2000	n/a	n/a	n/a	n/a
425.6300000000	n/a	425630	NegNonAlcP2000	n/a	n/a	n/a	n/a
438.5260000000	n/a	438526	PosStim	n/a	n/a	n/a	n/a
441.5600000000	n/a	441560	PosNonAlcStimWithoutStartle	n/a	n/a	n/a	n/a
457.2260000000	n/a	457226	NeuStim	n/a	n/a	n/a	n/a
460.2600000000	n/a	460260	NeuNonAlcStimWithoutStartle	n/a	n/a	n/a	n/a
476.9430000000	n/a	476943	PosStim	n/a	n/a	n/a	n/a
480.0430000000	n/a	480043	PosNonAlcP1000	n/a	n/a	n/a	n/a
485.0300000000	n/a	485030	PosNonAlcP1000	n/a	n/a	n/a	n/a
497.0590000000	n/a	497059	NegStim	n/a	n/a	n/a	n/a
500.0930000000	n/a	500093	NegAlcStimWithoutStartle	n/a	n/a	n/a	n/a
516.9930000000	n/a	516993	NeuStim	n/a	n/a	n/a	n/a
520.0930000000	n/a	520093	NeuAlcP2000	n/a	n/a	n/a	n/a
524.0800000000	n/a	524080	NeuAlcP2000	n/a	n/a	n/a	n/a
535.6590000000	n/a	535659	PosStim	n/a	n/a	n/a	n/a
538.7590000000	n/a	538759	PosNonAlcP1000	n/a	n/a	n/a	n/a
543.7460000000	n/a	543746	PosNonAlcP1000	n/a	n/a	n/a	n/a
554.9760000000	n/a	554976	NeuStim	n/a	n/a	n/a	n/a
558.0760000000	n/a	558076	NeuNonAlcP1000	n/a	n/a	n/a	n/a
563.0630000000	n/a	563063	NeuNonAlcP1000	n/a	n/a	n/a	n/a
573.8430000000	n/a	573843	PosStim	n/a	n/a	n/a	n/a
576.8760000000	n/a	576876	PosNonAlcStimWithoutStartle	n/a	n/a	n/a	n/a
593.3260000000	n/a	593326	NegStim	n/a	n/a	n/a	n/a
596.4260000000	n/a	596426	NegAlcP2000	n/a	n/a	n/a	n/a
600.4130000000	n/a	600413	NegAlcP2000	n/a	n/a	n/a	n/a
611.0430000000	n/a	611043	NeuStim	n/a	n/a	n/a	n/a
614.1430000000	n/a	614143	NeuAlcP3000	n/a	n/a	n/a	n/a
617.1300000000	n/a	617130	NeuAlcP3000	n/a	n/a	n/a	n/a
628.6430000000	n/a	628643	NegStim	n/a	n/a	n/a	n/a
631.6760000000	n/a	631676	NegAlcStimWithoutStartle	n/a	n/a	n/a	n/a
648.1930000000	n/a	648193	NeuStim	n/a	n/a	n/a	n/a
651.2930000000	n/a	651293	NeuNonAlcP2000	n/a	n/a	n/a	n/a
655.2800000000	n/a	655280	NeuNonAlcP2000	n/a	n/a	n/a	n/a
664.9260000000	n/a	664926	PosStim	n/a	n/a	n/a	n/a
668.0260000000	n/a	668026	PosNonAlcP3000	n/a	n/a	n/a	n/a
671.0130000000	n/a	671013	PosNonAlcP3000	n/a	n/a	n/a	n/a
681.9760000000	n/a	681976	NegStim	n/a	n/a	n/a	n/a
685.0760000000	n/a	685076	NegAlcP3000	n/a	n/a	n/a	n/a
688.0630000000	n/a	688063	NegAlcP3000	n/a	n/a	n/a	n/a
701.4090000000	n/a	701409	PosStim	n/a	n/a	n/a	n/a
704.4420000000	n/a	704442	PosAlcStimWithoutStartle	n/a	n/a	n/a	n/a
718.9090000000	n/a	718909	NegStim	n/a	n/a	n/a	n/a
722.0090000000	n/a	722009	NegAlcP1000	n/a	n/a	n/a	n/a
726.9960000000	n/a	726996	NegAlcP1000	n/a	n/a	n/a	n/a
738.3090000000	n/a	738309	PosStim	n/a	n/a	n/a	n/a
741.3420000000	n/a	741342	PosAlcStimWithoutStartle	n/a	n/a	n/a	n/a
757.1090000000	n/a	757109	NegStim	n/a	n/a	n/a	n/a
760.2090000000	n/a	760209	NegNonAlcP2000	n/a	n/a	n/a	n/a
764.1960000000	n/a	764196	NegNonAlcP2000	n/a	n/a	n/a	n/a
775.5260000000	n/a	775526	PosStim	n/a	n/a	n/a	n/a
778.6260000000	n/a	778626	PosAlcP2000	n/a	n/a	n/a	n/a
782.6130000000	n/a	782613	PosAlcP2000	n/a	n/a	n/a	n/a
792.9420000000	n/a	792942	NeuStim	n/a	n/a	n/a	n/a
795.9760000000	n/a	795976	NeuNonAlcStimWithoutStartle	n/a	n/a	n/a	n/a
811.9420000000	n/a	811942	PosStim	n/a	n/a	n/a	n/a
815.0420000000	n/a	815042	PosNonAlcP2000	n/a	n/a	n/a	n/a
819.0290000000	n/a	819029	PosNonAlcP2000	n/a	n/a	n/a	n/a
829.7260000000	n/a	829726	NegStim	n/a	n/a	n/a	n/a
832.7590000000	n/a	832759	NegAlcStimWithoutStartle	n/a	n/a	n/a	n/a
847.1260000000	n/a	847126	PosStim	n/a	n/a	n/a	n/a
850.2260000000	n/a	850226	PosAlcP3000	n/a	n/a	n/a	n/a
853.2130000000	n/a	853213	PosAlcP3000	n/a	n/a	n/a	n/a
863.3090000000	n/a	863309	PosStim	n/a	n/a	n/a	n/a
866.4090000000	n/a	866409	PosNonAlcP3000	n/a	n/a	n/a	n/a
869.3960000000	n/a	869396	PosNonAlcP3000	n/a	n/a	n/a	n/a
880.3590000000	n/a	880359	NeuStim	n/a	n/a	n/a	n/a
883.3920000000	n/a	883392	NeuNonAlcStimWithoutStartle	n/a	n/a	n/a	n/a
898.9090000000	n/a	898909	NeuStim	n/a	n/a	n/a	n/a
902.0090000000	n/a	902009	NeuNonAlcP3000	n/a	n/a	n/a	n/a
904.9960000000	n/a	904996	NeuNonAlcP3000	n/a	n/a	n/a	n/a
916.6920000000	n/a	916692	PosStim	n/a	n/a	n/a	n/a
919.7920000000	n/a	919792	PosAlcP2000	n/a	n/a	n/a	n/a
923.7790000000	n/a	923779	PosAlcP2000	n/a	n/a	n/a	n/a
933.8250000000	n/a	933825	NegStim	n/a	n/a	n/a	n/a
936.9250000000	n/a	936925	NegAlcP1000	n/a	n/a	n/a	n/a
941.9120000000	n/a	941912	NegAlcP1000	n/a	n/a	n/a	n/a
951.0750000000	n/a	951075	PosStim	n/a	n/a	n/a	n/a
954.1750000000	n/a	954175	PosNonAlcP2000	n/a	n/a	n/a	n/a
958.1620000000	n/a	958162	PosNonAlcP2000	n/a	n/a	n/a	n/a
969.6750000000	n/a	969675	NeuStim	n/a	n/a	n/a	n/a
972.7090000000	n/a	972709	NeuNonAlcStimWithoutStartle	n/a	n/a	n/a	n/a
988.6250000000	n/a	988625	NegStim	n/a	n/a	n/a	n/a
991.7250000000	n/a	991725	NegAlcP2000	n/a	n/a	n/a	n/a
995.7120000000	n/a	995712	NegAlcP2000	n/a	n/a	n/a	n/a
1006.0590000000	n/a	1006059	PosStim	n/a	n/a	n/a	n/a
1009.1590000000	n/a	1009159	PosAlcP3000	n/a	n/a	n/a	n/a
1012.1460000000	n/a	1012146	PosAlcP3000	n/a	n/a	n/a	n/a
1023.7420000000	n/a	1023742	NeuStim	n/a	n/a	n/a	n/a
1026.7750000000	n/a	1026775	NeuAlcStimWithoutStartle	n/a	n/a	n/a	n/a
1040.8090000000	n/a	1040809	NegStim	n/a	n/a	n/a	n/a
1043.9090000000	n/a	1043909	NegNonAlcP3000	n/a	n/a	n/a	n/a
1046.8960000000	n/a	1046896	NegNonAlcP3000	n/a	n/a	n/a	n/a
