onset	duration	sample	trial_type	response_time	stim_file	value	correct
4.1890000000	n/a	4189	FrequentFixedSOA	1633	n/a	n/a	1
5.8220000000	n/a	5822	FrequentFixedSOA	1633	n/a	n/a	1
7.4550000000	n/a	7455	FrequentFixedSOA	1633	n/a	n/a	1
9.0880000000	n/a	9088	FrequentFixedSOA	1633	n/a	n/a	1
10.7220000000	n/a	10722	FrequentFixedSOA	1633	n/a	n/a	1
12.3550000000	n/a	12355	FrequentFixedSOA	1633	n/a	n/a	1
13.9880000000	n/a	13988	FrequentFixedSOA	1633	n/a	n/a	1
15.6220000000	n/a	15622	FrequentFixedSOA	1633	n/a	n/a	1
17.2550000000	n/a	17255	FrequentFixedSOA	1633	n/a	n/a	1
18.8880000000	n/a	18888	FrequentFixedSOA	1633	n/a	n/a	1
20.5220000000	n/a	20522	NovelFixedSOA	1633	n/a	n/a	1
22.1550000000	n/a	22155	FrequentFixedSOA	1633	n/a	n/a	1
23.7880000000	n/a	23788	GoFixedSOA	479	n/a	n/a	1
25.4220000000	n/a	25422	FrequentFixedSOA	1633	n/a	n/a	1
27.0550000000	n/a	27055	FrequentFixedSOA	1633	n/a	n/a	1
28.6880000000	n/a	28688	FrequentFixedSOA	1633	n/a	n/a	1
30.3220000000	n/a	30322	GoFixedSOA	339	n/a	n/a	1
31.9550000000	n/a	31955	FrequentFixedSOA	1633	n/a	n/a	1
33.5880000000	n/a	33588	FrequentFixedSOA	1633	n/a	n/a	1
35.2220000000	n/a	35222	FrequentFixedSOA	1633	n/a	n/a	1
36.8550000000	n/a	36855	NovelFixedSOA	1633	n/a	n/a	1
38.4880000000	n/a	38488	FrequentFixedSOA	1633	n/a	n/a	1
40.1220000000	n/a	40122	FrequentFixedSOA	1633	n/a	n/a	1
41.7550000000	n/a	41755	FrequentFixedSOA	1633	n/a	n/a	1
43.3880000000	n/a	43388	GoFixedSOA	383	n/a	n/a	1
45.0220000000	n/a	45022	FrequentFixedSOA	1633	n/a	n/a	1
46.6550000000	n/a	46655	NovelFixedSOA	1633	n/a	n/a	1
48.2880000000	n/a	48288	FrequentFixedSOA	1633	n/a	n/a	1
49.9220000000	n/a	49922	FrequentFixedSOA	1633	n/a	n/a	1
51.5550000000	n/a	51555	FrequentFixedSOA	1633	n/a	n/a	1
53.1880000000	n/a	53188	GoFixedSOA	427	n/a	n/a	1
54.8220000000	n/a	54822	FrequentFixedSOA	1633	n/a	n/a	1
56.4550000000	n/a	56455	GoFixedSOA	523	n/a	n/a	1
58.0880000000	n/a	58088	FrequentFixedSOA	1633	n/a	n/a	1
59.7220000000	n/a	59722	FrequentFixedSOA	1633	n/a	n/a	1
61.3550000000	n/a	61355	GoFixedSOA	383	n/a	n/a	1
62.9880000000	n/a	62988	FrequentFixedSOA	1633	n/a	n/a	1
64.6220000000	n/a	64622	FrequentFixedSOA	1633	n/a	n/a	1
66.2550000000	n/a	66255	FrequentFixedSOA	1633	n/a	n/a	1
67.8880000000	n/a	67888	FrequentFixedSOA	1633	n/a	n/a	1
69.5220000000	n/a	69522	NovelFixedSOA	1633	n/a	n/a	1
71.1550000000	n/a	71155	FrequentFixedSOA	1633	n/a	n/a	1
72.7880000000	n/a	72788	NovelFixedSOA	1633	n/a	n/a	1
74.4220000000	n/a	74422	FrequentFixedSOA	1633	n/a	n/a	1
76.0550000000	n/a	76055	FrequentFixedSOA	1633	n/a	n/a	1
77.6880000000	n/a	77688	GoFixedSOA	490	n/a	n/a	1
79.3220000000	n/a	79322	FrequentFixedSOA	1633	n/a	n/a	1
80.9550000000	n/a	80955	FrequentFixedSOA	1633	n/a	n/a	1
82.5880000000	n/a	82588	FrequentFixedSOA	1633	n/a	n/a	1
84.2220000000	n/a	84222	FrequentFixedSOA	1633	n/a	n/a	1
85.8550000000	n/a	85855	NovelFixedSOA	1633	n/a	n/a	1
87.4880000000	n/a	87488	FrequentFixedSOA	1633	n/a	n/a	1
89.1220000000	n/a	89122	FrequentFixedSOA	1633	n/a	n/a	1
90.7550000000	n/a	90755	FrequentFixedSOA	1633	n/a	n/a	1
92.3880000000	n/a	92388	FrequentFixedSOA	1633	n/a	n/a	1
94.0220000000	n/a	94022	GoFixedSOA	380	n/a	n/a	1
95.6550000000	n/a	95655	FrequentFixedSOA	1633	n/a	n/a	1
97.2880000000	n/a	97288	FrequentFixedSOA	1633	n/a	n/a	1
98.9220000000	n/a	98922	NovelFixedSOA	1633	n/a	n/a	1
100.5550000000	n/a	100555	FrequentFixedSOA	1633	n/a	n/a	1
102.1880000000	n/a	102188	FrequentFixedSOA	1633	n/a	n/a	1
103.8220000000	n/a	103822	GoFixedSOA	378	n/a	n/a	1
105.4550000000	n/a	105455	FrequentFixedSOA	1633	n/a	n/a	1
107.0880000000	n/a	107088	FrequentFixedSOA	1633	n/a	n/a	1
108.7220000000	n/a	108722	FrequentFixedSOA	1633	n/a	n/a	1
110.3550000000	n/a	110355	FrequentFixedSOA	1633	n/a	n/a	1
111.9880000000	n/a	111988	NovelFixedSOA	1633	n/a	n/a	1
113.6210000000	n/a	113621	FrequentFixedSOA	1633	n/a	n/a	1
115.2550000000	n/a	115255	FrequentFixedSOA	1633	n/a	n/a	1
116.8880000000	n/a	116888	GoFixedSOA	432	n/a	n/a	1
118.5210000000	n/a	118521	FrequentVariableSOA	1666	n/a	n/a	1
120.1880000000	n/a	120188	FrequentVariableSOA	1783	n/a	n/a	1
121.9710000000	n/a	121971	FrequentVariableSOA	1650	n/a	n/a	1
123.6210000000	n/a	123621	FrequentVariableSOA	1733	n/a	n/a	1
125.3550000000	n/a	125355	FrequentVariableSOA	1783	n/a	n/a	1
127.1380000000	n/a	127138	FrequentVariableSOA	1566	n/a	n/a	1
128.7050000000	n/a	128705	FrequentVariableSOA	1700	n/a	n/a	1
130.4050000000	n/a	130405	FrequentVariableSOA	1600	n/a	n/a	1
132.0050000000	n/a	132005	FrequentVariableSOA	1500	n/a	n/a	1
133.5050000000	n/a	133505	FrequentVariableSOA	1516	n/a	n/a	1
135.0210000000	n/a	135021	NovelVariableSOA	1550	n/a	n/a	1
136.5710000000	n/a	136571	FrequentVariableSOA	1566	n/a	n/a	1
138.1380000000	n/a	138138	GoVariableSOA	467	n/a	n/a	1
139.8880000000	n/a	139888	FrequentVariableSOA	1600	n/a	n/a	1
141.4880000000	n/a	141488	FrequentVariableSOA	1633	n/a	n/a	1
143.1210000000	n/a	143121	FrequentVariableSOA	1500	n/a	n/a	1
144.6210000000	n/a	144621	GoVariableSOA	481	n/a	n/a	1
146.3710000000	n/a	146371	FrequentVariableSOA	1700	n/a	n/a	1
148.0710000000	n/a	148071	FrequentVariableSOA	1500	n/a	n/a	1
149.5710000000	n/a	149571	FrequentVariableSOA	1666	n/a	n/a	1
151.2380000000	n/a	151238	NovelVariableSOA	1566	n/a	n/a	1
152.8050000000	n/a	152805	FrequentVariableSOA	1783	n/a	n/a	1
154.5880000000	n/a	154588	FrequentVariableSOA	1750	n/a	n/a	1
156.3380000000	n/a	156338	FrequentVariableSOA	1566	n/a	n/a	1
157.9050000000	n/a	157905	GoVariableSOA	445	n/a	n/a	1
159.6210000000	n/a	159621	FrequentVariableSOA	1800	n/a	n/a	1
161.4210000000	n/a	161421	NovelVariableSOA	1733	n/a	n/a	1
163.1550000000	n/a	163155	FrequentVariableSOA	1500	n/a	n/a	1
164.6550000000	n/a	164655	FrequentVariableSOA	1766	n/a	n/a	1
166.4210000000	n/a	166421	FrequentVariableSOA	1716	n/a	n/a	1
168.1380000000	n/a	168138	GoVariableSOA	440	n/a	n/a	1
169.6710000000	n/a	169671	FrequentVariableSOA	1650	n/a	n/a	1
171.3210000000	n/a	171321	GoVariableSOA	496	n/a	n/a	1
172.8550000000	n/a	172855	FrequentVariableSOA	1566	n/a	n/a	1
174.4210000000	n/a	174421	FrequentVariableSOA	1650	n/a	n/a	1
176.0710000000	n/a	176071	GoVariableSOA	351	n/a	n/a	1
177.8550000000	n/a	177855	FrequentVariableSOA	1666	n/a	n/a	1
179.5210000000	n/a	179521	FrequentVariableSOA	1633	n/a	n/a	1
181.1550000000	n/a	181155	FrequentVariableSOA	867	n/a	n/a	0
182.8050000000	n/a	182805	FrequentVariableSOA	1533	n/a	n/a	1
184.3380000000	n/a	184338	NovelVariableSOA	1766	n/a	n/a	1
186.1050000000	n/a	186105	FrequentVariableSOA	1616	n/a	n/a	1
187.7210000000	n/a	187721	NovelVariableSOA	1550	n/a	n/a	1
189.2710000000	n/a	189271	FrequentVariableSOA	1650	n/a	n/a	1
190.9210000000	n/a	190921	FrequentVariableSOA	1683	n/a	n/a	1
192.6050000000	n/a	192605	GoVariableSOA	385	n/a	n/a	1
194.2050000000	n/a	194205	FrequentVariableSOA	1766	n/a	n/a	1
195.9710000000	n/a	195971	FrequentVariableSOA	1783	n/a	n/a	1
197.7550000000	n/a	197755	FrequentVariableSOA	1533	n/a	n/a	1
199.2880000000	n/a	199288	FrequentVariableSOA	1583	n/a	n/a	1
200.8710000000	n/a	200871	NovelVariableSOA	1550	n/a	n/a	1
202.4210000000	n/a	202421	FrequentVariableSOA	1633	n/a	n/a	1
204.0550000000	n/a	204055	FrequentVariableSOA	1750	n/a	n/a	1
205.8050000000	n/a	205805	FrequentVariableSOA	1566	n/a	n/a	1
207.3710000000	n/a	207371	FrequentVariableSOA	1650	n/a	n/a	1
209.0210000000	n/a	209021	GoVariableSOA	396	n/a	n/a	1
210.7050000000	n/a	210705	FrequentVariableSOA	1700	n/a	n/a	1
212.4050000000	n/a	212405	FrequentVariableSOA	1750	n/a	n/a	1
214.1550000000	n/a	214155	NovelVariableSOA	1800	n/a	n/a	1
215.9550000000	n/a	215955	FrequentVariableSOA	1800	n/a	n/a	1
217.7550000000	n/a	217755	FrequentVariableSOA	1600	n/a	n/a	1
219.3550000000	n/a	219355	GoVariableSOA	517	n/a	n/a	1
220.9380000000	n/a	220938	FrequentVariableSOA	1750	n/a	n/a	1
222.6880000000	n/a	222688	FrequentVariableSOA	1700	n/a	n/a	1
224.3880000000	n/a	224388	FrequentVariableSOA	1683	n/a	n/a	1
226.0710000000	n/a	226071	FrequentVariableSOA	1516	n/a	n/a	1
227.5880000000	n/a	227588	NovelVariableSOA	1650	n/a	n/a	1
229.2380000000	n/a	229238	FrequentVariableSOA	1550	n/a	n/a	1
230.7880000000	n/a	230788	FrequentVariableSOA	1716	n/a	n/a	1
232.5050000000	n/a	232505	GoVariableSOA	341	n/a	n/a	1
234.1210000000	n/a	234121	FrequentFixedSOA	1633	n/a	n/a	1
235.7550000000	n/a	235755	FrequentFixedSOA	1633	n/a	n/a	1
237.3880000000	n/a	237388	FrequentFixedSOA	1633	n/a	n/a	1
239.0210000000	n/a	239021	GoFixedSOA	454	n/a	n/a	1
240.6550000000	n/a	240655	FrequentFixedSOA	1633	n/a	n/a	1
242.2880000000	n/a	242288	FrequentFixedSOA	1633	n/a	n/a	1
243.9210000000	n/a	243921	FrequentFixedSOA	1633	n/a	n/a	1
245.5550000000	n/a	245555	GoFixedSOA	474	n/a	n/a	1
247.1880000000	n/a	247188	FrequentFixedSOA	1633	n/a	n/a	1
248.8210000000	n/a	248821	FrequentFixedSOA	1633	n/a	n/a	1
250.4550000000	n/a	250455	FrequentFixedSOA	1633	n/a	n/a	1
252.0880000000	n/a	252088	NovelFixedSOA	1633	n/a	n/a	1
253.7210000000	n/a	253721	FrequentFixedSOA	1633	n/a	n/a	1
255.3550000000	n/a	255355	NovelFixedSOA	1633	n/a	n/a	1
256.9880000000	n/a	256988	FrequentFixedSOA	1633	n/a	n/a	1
258.6210000000	n/a	258621	FrequentFixedSOA	1633	n/a	n/a	1
260.2550000000	n/a	260255	NovelFixedSOA	1633	n/a	n/a	1
261.8880000000	n/a	261888	FrequentFixedSOA	1633	n/a	n/a	1
263.5210000000	n/a	263521	FrequentFixedSOA	1633	n/a	n/a	1
265.1550000000	n/a	265155	FrequentFixedSOA	1633	n/a	n/a	1
266.7880000000	n/a	266788	FrequentFixedSOA	1633	n/a	n/a	1
268.4210000000	n/a	268421	FrequentFixedSOA	1633	n/a	n/a	1
270.0550000000	n/a	270055	NovelFixedSOA	1633	n/a	n/a	1
271.6880000000	n/a	271688	FrequentFixedSOA	1633	n/a	n/a	1
273.3210000000	n/a	273321	FrequentFixedSOA	1633	n/a	n/a	1
274.9550000000	n/a	274955	FrequentFixedSOA	1633	n/a	n/a	1
276.5880000000	n/a	276588	FrequentFixedSOA	1633	n/a	n/a	1
278.2210000000	n/a	278221	FrequentFixedSOA	1633	n/a	n/a	1
279.8550000000	n/a	279855	GoFixedSOA	1633	n/a	n/a	0
281.4880000000	n/a	281488	FrequentFixedSOA	1633	n/a	n/a	1
283.1210000000	n/a	283121	FrequentFixedSOA	1633	n/a	n/a	1
284.7550000000	n/a	284755	GoFixedSOA	480	n/a	n/a	1
286.3880000000	n/a	286388	FrequentFixedSOA	1633	n/a	n/a	1
288.0210000000	n/a	288021	NovelFixedSOA	1633	n/a	n/a	1
289.6550000000	n/a	289655	FrequentFixedSOA	1633	n/a	n/a	1
291.2880000000	n/a	291288	GoFixedSOA	449	n/a	n/a	1
292.9210000000	n/a	292921	FrequentFixedSOA	1633	n/a	n/a	1
294.5550000000	n/a	294555	GoFixedSOA	419	n/a	n/a	1
296.1880000000	n/a	296188	FrequentFixedSOA	1633	n/a	n/a	1
297.8210000000	n/a	297821	FrequentFixedSOA	1633	n/a	n/a	1
299.4550000000	n/a	299455	FrequentFixedSOA	1633	n/a	n/a	1
301.0880000000	n/a	301088	FrequentFixedSOA	1633	n/a	n/a	1
302.7210000000	n/a	302721	GoFixedSOA	405	n/a	n/a	1
304.3550000000	n/a	304355	FrequentFixedSOA	1633	n/a	n/a	1
305.9880000000	n/a	305988	FrequentFixedSOA	1633	n/a	n/a	1
307.6210000000	n/a	307621	FrequentFixedSOA	1633	n/a	n/a	1
309.2540000000	n/a	309254	NovelFixedSOA	1633	n/a	n/a	1
310.8880000000	n/a	310888	FrequentFixedSOA	1633	n/a	n/a	1
312.5210000000	n/a	312521	FrequentFixedSOA	1633	n/a	n/a	1
314.1540000000	n/a	314154	FrequentFixedSOA	1633	n/a	n/a	1
315.7880000000	n/a	315788	FrequentFixedSOA	1633	n/a	n/a	1
317.4210000000	n/a	317421	NovelFixedSOA	1633	n/a	n/a	1
319.0540000000	n/a	319054	FrequentFixedSOA	1633	n/a	n/a	1
320.6880000000	n/a	320688	FrequentFixedSOA	1633	n/a	n/a	1
322.3210000000	n/a	322321	FrequentFixedSOA	1633	n/a	n/a	1
323.9540000000	n/a	323954	FrequentFixedSOA	1633	n/a	n/a	1
325.5880000000	n/a	325588	NovelFixedSOA	1633	n/a	n/a	1
327.2210000000	n/a	327221	FrequentFixedSOA	1633	n/a	n/a	1
328.8540000000	n/a	328854	FrequentFixedSOA	1633	n/a	n/a	1
330.4880000000	n/a	330488	GoFixedSOA	474	n/a	n/a	1
332.1210000000	n/a	332121	FrequentFixedSOA	1633	n/a	n/a	1
333.7540000000	n/a	333754	FrequentFixedSOA	1633	n/a	n/a	1
335.3880000000	n/a	335388	FrequentFixedSOA	1633	n/a	n/a	1
337.0210000000	n/a	337021	FrequentFixedSOA	1633	n/a	n/a	1
338.6540000000	n/a	338654	NovelFixedSOA	1633	n/a	n/a	1
340.2880000000	n/a	340288	FrequentFixedSOA	1633	n/a	n/a	1
341.9210000000	n/a	341921	FrequentFixedSOA	1633	n/a	n/a	1
343.5540000000	n/a	343554	FrequentFixedSOA	1633	n/a	n/a	1
345.1880000000	n/a	345188	FrequentFixedSOA	1633	n/a	n/a	1
346.8210000000	n/a	346821	FrequentFixedSOA	1633	n/a	n/a	1
348.4540000000	n/a	348454	FrequentVariableSOA	1566	n/a	n/a	1
350.0210000000	n/a	350021	FrequentVariableSOA	1566	n/a	n/a	1
351.5880000000	n/a	351588	FrequentVariableSOA	1800	n/a	n/a	1
353.3880000000	n/a	353388	GoVariableSOA	1766	n/a	n/a	0
355.1540000000	n/a	355154	FrequentVariableSOA	1633	n/a	n/a	1
356.7880000000	n/a	356788	FrequentVariableSOA	1683	n/a	n/a	1
358.4710000000	n/a	358471	FrequentVariableSOA	1516	n/a	n/a	1
359.9880000000	n/a	359988	GoVariableSOA	362	n/a	n/a	1
361.7710000000	n/a	361771	FrequentVariableSOA	1666	n/a	n/a	1
363.4380000000	n/a	363438	FrequentVariableSOA	1533	n/a	n/a	1
364.9710000000	n/a	364971	FrequentVariableSOA	1583	n/a	n/a	1
366.5540000000	n/a	366554	NovelVariableSOA	1583	n/a	n/a	1
368.1380000000	n/a	368138	FrequentVariableSOA	1533	n/a	n/a	1
369.6710000000	n/a	369671	NovelVariableSOA	1566	n/a	n/a	1
371.2380000000	n/a	371238	FrequentVariableSOA	1600	n/a	n/a	1
372.8380000000	n/a	372838	FrequentVariableSOA	1700	n/a	n/a	1
374.5380000000	n/a	374538	NovelVariableSOA	1733	n/a	n/a	1
376.2710000000	n/a	376271	FrequentVariableSOA	1733	n/a	n/a	1
378.0040000000	n/a	378004	FrequentVariableSOA	1650	n/a	n/a	1
379.6540000000	n/a	379654	FrequentVariableSOA	1600	n/a	n/a	1
381.2540000000	n/a	381254	FrequentVariableSOA	1566	n/a	n/a	1
382.8210000000	n/a	382821	FrequentVariableSOA	1616	n/a	n/a	1
384.4380000000	n/a	384438	NovelVariableSOA	1783	n/a	n/a	1
386.2210000000	n/a	386221	FrequentVariableSOA	1733	n/a	n/a	1
387.9540000000	n/a	387954	FrequentVariableSOA	1500	n/a	n/a	1
389.4540000000	n/a	389454	FrequentVariableSOA	1750	n/a	n/a	1
391.2040000000	n/a	391204	FrequentVariableSOA	1516	n/a	n/a	1
392.7210000000	n/a	392721	FrequentVariableSOA	1683	n/a	n/a	1
394.4040000000	n/a	394404	GoVariableSOA	492	n/a	n/a	1
396.0210000000	n/a	396021	FrequentVariableSOA	1683	n/a	n/a	1
397.7040000000	n/a	397704	FrequentVariableSOA	1783	n/a	n/a	1
399.4880000000	n/a	399488	GoVariableSOA	1716	n/a	n/a	0
401.2040000000	n/a	401204	FrequentVariableSOA	1533	n/a	n/a	1
402.7380000000	n/a	402738	NovelVariableSOA	1550	n/a	n/a	1
404.2880000000	n/a	404288	FrequentVariableSOA	1516	n/a	n/a	1
405.8040000000	n/a	405804	GoVariableSOA	413	n/a	n/a	1
407.4040000000	n/a	407404	FrequentVariableSOA	1750	n/a	n/a	1
409.1540000000	n/a	409154	GoVariableSOA	461	n/a	n/a	1
410.7540000000	n/a	410754	FrequentVariableSOA	1516	n/a	n/a	1
412.2710000000	n/a	412271	FrequentVariableSOA	1700	n/a	n/a	1
413.9710000000	n/a	413971	FrequentVariableSOA	1516	n/a	n/a	1
415.4880000000	n/a	415488	FrequentVariableSOA	1700	n/a	n/a	1
417.1880000000	n/a	417188	GoVariableSOA	441	n/a	n/a	1
418.7380000000	n/a	418738	FrequentVariableSOA	1633	n/a	n/a	1
420.3710000000	n/a	420371	FrequentVariableSOA	1750	n/a	n/a	1
422.1210000000	n/a	422121	FrequentVariableSOA	1650	n/a	n/a	1
423.7710000000	n/a	423771	NovelVariableSOA	1600	n/a	n/a	1
425.3710000000	n/a	425371	FrequentVariableSOA	1783	n/a	n/a	1
427.1540000000	n/a	427154	FrequentVariableSOA	1533	n/a	n/a	1
428.6880000000	n/a	428688	FrequentVariableSOA	1716	n/a	n/a	1
430.4040000000	n/a	430404	FrequentVariableSOA	1600	n/a	n/a	1
432.0040000000	n/a	432004	NovelVariableSOA	1650	n/a	n/a	1
433.6540000000	n/a	433654	FrequentVariableSOA	1666	n/a	n/a	1
435.3210000000	n/a	435321	FrequentVariableSOA	1716	n/a	n/a	1
437.0380000000	n/a	437038	FrequentVariableSOA	1516	n/a	n/a	1
438.5540000000	n/a	438554	FrequentVariableSOA	1533	n/a	n/a	1
440.0880000000	n/a	440088	NovelVariableSOA	1500	n/a	n/a	1
441.5880000000	n/a	441588	FrequentVariableSOA	1516	n/a	n/a	1
443.1040000000	n/a	443104	FrequentVariableSOA	1550	n/a	n/a	1
444.6540000000	n/a	444654	GoVariableSOA	444	n/a	n/a	1
446.2380000000	n/a	446238	FrequentVariableSOA	1800	n/a	n/a	1
448.0380000000	n/a	448038	FrequentVariableSOA	1566	n/a	n/a	1
449.6040000000	n/a	449604	FrequentVariableSOA	1733	n/a	n/a	1
451.3380000000	n/a	451338	FrequentVariableSOA	1783	n/a	n/a	1
453.1210000000	n/a	453121	NovelVariableSOA	1700	n/a	n/a	1
454.8210000000	n/a	454821	FrequentVariableSOA	1633	n/a	n/a	1
456.4540000000	n/a	456454	FrequentVariableSOA	1650	n/a	n/a	1
458.1040000000	n/a	458104	FrequentVariableSOA	1500	n/a	n/a	1
459.6040000000	n/a	459604	FrequentVariableSOA	1766	n/a	n/a	1
461.3710000000	n/a	461371	FrequentVariableSOA	1516	n/a	n/a	1
462.8880000000	n/a	462888	GoFixedSOA	391	n/a	n/a	1
464.5210000000	n/a	464521	FrequentFixedSOA	1633	n/a	n/a	1
466.1540000000	n/a	466154	FrequentFixedSOA	1633	n/a	n/a	1
467.7880000000	n/a	467788	FrequentFixedSOA	1633	n/a	n/a	1
469.4210000000	n/a	469421	FrequentFixedSOA	1633	n/a	n/a	1
471.0540000000	n/a	471054	FrequentFixedSOA	1633	n/a	n/a	1
472.6880000000	n/a	472688	FrequentFixedSOA	1633	n/a	n/a	1
474.3210000000	n/a	474321	NovelFixedSOA	1633	n/a	n/a	1
475.9540000000	n/a	475954	FrequentFixedSOA	1633	n/a	n/a	1
477.5880000000	n/a	477588	FrequentFixedSOA	1633	n/a	n/a	1
479.2210000000	n/a	479221	FrequentFixedSOA	1633	n/a	n/a	1
480.8540000000	n/a	480854	NovelFixedSOA	1633	n/a	n/a	1
482.4880000000	n/a	482488	FrequentFixedSOA	1633	n/a	n/a	1
484.1210000000	n/a	484121	GoFixedSOA	437	n/a	n/a	1
485.7540000000	n/a	485754	FrequentFixedSOA	1633	n/a	n/a	1
487.3880000000	n/a	487388	FrequentFixedSOA	1633	n/a	n/a	1
489.0210000000	n/a	489021	GoFixedSOA	390	n/a	n/a	1
490.6540000000	n/a	490654	FrequentFixedSOA	1633	n/a	n/a	1
492.2880000000	n/a	492288	NovelFixedSOA	1633	n/a	n/a	1
493.9210000000	n/a	493921	FrequentFixedSOA	1633	n/a	n/a	1
495.5540000000	n/a	495554	FrequentFixedSOA	1633	n/a	n/a	1
497.1870000000	n/a	497187	FrequentFixedSOA	1633	n/a	n/a	1
498.8210000000	n/a	498821	FrequentFixedSOA	1633	n/a	n/a	1
500.4540000000	n/a	500454	FrequentFixedSOA	1633	n/a	n/a	1
502.0870000000	n/a	502087	GoFixedSOA	455	n/a	n/a	1
503.7210000000	n/a	503721	FrequentFixedSOA	1633	n/a	n/a	1
505.3540000000	n/a	505354	FrequentFixedSOA	1633	n/a	n/a	1
506.9870000000	n/a	506987	NovelFixedSOA	1633	n/a	n/a	1
508.6210000000	n/a	508621	FrequentFixedSOA	1633	n/a	n/a	1
510.2540000000	n/a	510254	FrequentFixedSOA	1633	n/a	n/a	1
511.8870000000	n/a	511887	FrequentFixedSOA	1633	n/a	n/a	1
513.5210000000	n/a	513521	FrequentFixedSOA	1633	n/a	n/a	1
515.1540000000	n/a	515154	FrequentFixedSOA	1633	n/a	n/a	1
516.7870000000	n/a	516787	NovelFixedSOA	1633	n/a	n/a	1
518.4210000000	n/a	518421	FrequentFixedSOA	1633	n/a	n/a	1
520.0540000000	n/a	520054	FrequentFixedSOA	1633	n/a	n/a	1
521.6870000000	n/a	521687	FrequentFixedSOA	1633	n/a	n/a	1
523.3210000000	n/a	523321	FrequentFixedSOA	1633	n/a	n/a	1
524.9540000000	n/a	524954	GoFixedSOA	368	n/a	n/a	1
526.5870000000	n/a	526587	FrequentFixedSOA	1633	n/a	n/a	1
528.2210000000	n/a	528221	FrequentFixedSOA	1633	n/a	n/a	1
529.8540000000	n/a	529854	NovelFixedSOA	1633	n/a	n/a	1
531.4870000000	n/a	531487	FrequentFixedSOA	1633	n/a	n/a	1
533.1210000000	n/a	533121	FrequentFixedSOA	1633	n/a	n/a	1
534.7540000000	n/a	534754	NovelFixedSOA	1633	n/a	n/a	1
536.3870000000	n/a	536387	FrequentFixedSOA	1633	n/a	n/a	1
538.0210000000	n/a	538021	FrequentFixedSOA	1633	n/a	n/a	1
539.6540000000	n/a	539654	FrequentFixedSOA	1633	n/a	n/a	1
541.2870000000	n/a	541287	FrequentFixedSOA	1633	n/a	n/a	1
542.9210000000	n/a	542921	FrequentFixedSOA	1633	n/a	n/a	1
544.5540000000	n/a	544554	GoFixedSOA	424	n/a	n/a	1
546.1870000000	n/a	546187	FrequentFixedSOA	1633	n/a	n/a	1
547.8210000000	n/a	547821	FrequentFixedSOA	1633	n/a	n/a	1
549.4540000000	n/a	549454	FrequentFixedSOA	1633	n/a	n/a	1
551.0870000000	n/a	551087	FrequentFixedSOA	1633	n/a	n/a	1
552.7210000000	n/a	552721	FrequentFixedSOA	1633	n/a	n/a	1
554.3540000000	n/a	554354	NovelFixedSOA	1633	n/a	n/a	1
555.9870000000	n/a	555987	FrequentFixedSOA	1633	n/a	n/a	1
557.6210000000	n/a	557621	GoFixedSOA	475	n/a	n/a	1
559.2540000000	n/a	559254	FrequentFixedSOA	1633	n/a	n/a	1
560.8870000000	n/a	560887	FrequentFixedSOA	1633	n/a	n/a	1
562.5210000000	n/a	562521	FrequentFixedSOA	1633	n/a	n/a	1
564.1540000000	n/a	564154	FrequentFixedSOA	1633	n/a	n/a	1
565.7870000000	n/a	565787	FrequentFixedSOA	1633	n/a	n/a	1
567.4210000000	n/a	567421	FrequentFixedSOA	1633	n/a	n/a	1
569.0540000000	n/a	569054	FrequentFixedSOA	1633	n/a	n/a	1
570.6870000000	n/a	570687	FrequentFixedSOA	1633	n/a	n/a	1
572.3210000000	n/a	572321	NovelFixedSOA	1633	n/a	n/a	1
573.9540000000	n/a	573954	FrequentFixedSOA	1633	n/a	n/a	1
575.5870000000	n/a	575587	FrequentFixedSOA	1633	n/a	n/a	1
577.2210000000	n/a	577221	GoVariableSOA	447	n/a	n/a	1
578.9040000000	n/a	578904	FrequentVariableSOA	1800	n/a	n/a	1
580.7040000000	n/a	580704	FrequentVariableSOA	1633	n/a	n/a	1
582.3370000000	n/a	582337	FrequentVariableSOA	1783	n/a	n/a	1
584.1210000000	n/a	584121	FrequentVariableSOA	1533	n/a	n/a	1
585.6540000000	n/a	585654	FrequentVariableSOA	1766	n/a	n/a	1
587.4210000000	n/a	587421	FrequentVariableSOA	1783	n/a	n/a	1
589.2040000000	n/a	589204	NovelVariableSOA	1650	n/a	n/a	1
590.8540000000	n/a	590854	FrequentVariableSOA	1616	n/a	n/a	1
592.4710000000	n/a	592471	FrequentVariableSOA	1650	n/a	n/a	1
594.1210000000	n/a	594121	FrequentVariableSOA	1516	n/a	n/a	1
595.6370000000	n/a	595637	NovelVariableSOA	1733	n/a	n/a	1
597.3710000000	n/a	597371	FrequentVariableSOA	1733	n/a	n/a	1
599.1040000000	n/a	599104	GoVariableSOA	366	n/a	n/a	1
600.8370000000	n/a	600837	FrequentVariableSOA	1533	n/a	n/a	1
602.3710000000	n/a	602371	FrequentVariableSOA	1600	n/a	n/a	1
603.9710000000	n/a	603971	GoVariableSOA	1566	n/a	n/a	0
605.5370000000	n/a	605537	FrequentVariableSOA	1550	n/a	n/a	1
607.0870000000	n/a	607087	NovelVariableSOA	1650	n/a	n/a	1
608.7370000000	n/a	608737	FrequentVariableSOA	1766	n/a	n/a	1
610.5040000000	n/a	610504	FrequentVariableSOA	1783	n/a	n/a	1
612.2870000000	n/a	612287	FrequentVariableSOA	1516	n/a	n/a	1
613.8040000000	n/a	613804	FrequentVariableSOA	1766	n/a	n/a	1
615.5710000000	n/a	615571	FrequentVariableSOA	1666	n/a	n/a	1
617.2370000000	n/a	617237	GoVariableSOA	442	n/a	n/a	1
619.0040000000	n/a	619004	FrequentVariableSOA	1683	n/a	n/a	1
620.6870000000	n/a	620687	FrequentVariableSOA	1716	n/a	n/a	1
622.4040000000	n/a	622404	NovelVariableSOA	1783	n/a	n/a	1
624.1870000000	n/a	624187	FrequentVariableSOA	1550	n/a	n/a	1
625.7370000000	n/a	625737	FrequentVariableSOA	1650	n/a	n/a	1
627.3870000000	n/a	627387	FrequentVariableSOA	1516	n/a	n/a	1
628.9040000000	n/a	628904	FrequentVariableSOA	1783	n/a	n/a	1
630.6870000000	n/a	630687	FrequentVariableSOA	1700	n/a	n/a	1
632.3870000000	n/a	632387	NovelVariableSOA	1566	n/a	n/a	1
633.9540000000	n/a	633954	FrequentVariableSOA	1783	n/a	n/a	1
635.7370000000	n/a	635737	FrequentVariableSOA	1600	n/a	n/a	1
637.3370000000	n/a	637337	FrequentVariableSOA	1516	n/a	n/a	1
638.8540000000	n/a	638854	FrequentVariableSOA	1566	n/a	n/a	1
640.4210000000	n/a	640421	GoVariableSOA	521	n/a	n/a	1
642.2040000000	n/a	642204	FrequentVariableSOA	1533	n/a	n/a	1
643.7370000000	n/a	643737	FrequentVariableSOA	1533	n/a	n/a	1
645.2710000000	n/a	645271	NovelVariableSOA	1733	n/a	n/a	1
647.0040000000	n/a	647004	FrequentVariableSOA	1700	n/a	n/a	1
648.7040000000	n/a	648704	FrequentVariableSOA	1550	n/a	n/a	1
650.2540000000	n/a	650254	NovelVariableSOA	1783	n/a	n/a	1
652.0370000000	n/a	652037	FrequentVariableSOA	1783	n/a	n/a	1
653.8210000000	n/a	653821	FrequentVariableSOA	1683	n/a	n/a	1
655.5040000000	n/a	655504	FrequentVariableSOA	1516	n/a	n/a	1
657.0210000000	n/a	657021	FrequentVariableSOA	1750	n/a	n/a	1
658.7710000000	n/a	658771	FrequentVariableSOA	1733	n/a	n/a	1
660.5040000000	n/a	660504	GoVariableSOA	477	n/a	n/a	1
662.1040000000	n/a	662104	FrequentVariableSOA	1716	n/a	n/a	1
663.8210000000	n/a	663821	FrequentVariableSOA	1516	n/a	n/a	1
665.3370000000	n/a	665337	FrequentVariableSOA	1550	n/a	n/a	1
666.8870000000	n/a	666887	FrequentVariableSOA	1633	n/a	n/a	1
668.5210000000	n/a	668521	FrequentVariableSOA	1716	n/a	n/a	1
670.2370000000	n/a	670237	NovelVariableSOA	1733	n/a	n/a	1
671.9710000000	n/a	671971	FrequentVariableSOA	1516	n/a	n/a	1
673.4870000000	n/a	673487	GoVariableSOA	422	n/a	n/a	1
675.1040000000	n/a	675104	FrequentVariableSOA	1683	n/a	n/a	1
676.7870000000	n/a	676787	FrequentVariableSOA	1633	n/a	n/a	1
678.4210000000	n/a	678421	FrequentVariableSOA	1750	n/a	n/a	1
680.1710000000	n/a	680171	FrequentVariableSOA	1633	n/a	n/a	1
681.8040000000	n/a	681804	FrequentVariableSOA	1700	n/a	n/a	1
683.5040000000	n/a	683504	FrequentVariableSOA	1566	n/a	n/a	1
685.0700000000	n/a	685070	FrequentVariableSOA	1666	n/a	n/a	1
686.7370000000	n/a	686737	FrequentVariableSOA	1533	n/a	n/a	1
688.2700000000	n/a	688270	NovelVariableSOA	1650	n/a	n/a	1
689.9200000000	n/a	689920	FrequentVariableSOA	1600	n/a	n/a	1
691.5200000000	n/a	691520	FrequentVariableSOA	1650	n/a	n/a	1
693.1700000000	n/a	693170	GoFixedSOA	384	n/a	n/a	1
694.8040000000	n/a	694804	FrequentFixedSOA	1633	n/a	n/a	1
696.4370000000	n/a	696437	FrequentFixedSOA	1633	n/a	n/a	1
698.0700000000	n/a	698070	FrequentFixedSOA	1633	n/a	n/a	1
699.7040000000	n/a	699704	GoFixedSOA	479	n/a	n/a	1
701.3370000000	n/a	701337	FrequentFixedSOA	1633	n/a	n/a	1
702.9700000000	n/a	702970	FrequentFixedSOA	1633	n/a	n/a	1
704.6040000000	n/a	704604	FrequentFixedSOA	1633	n/a	n/a	1
706.2370000000	n/a	706237	FrequentFixedSOA	1633	n/a	n/a	1
707.8700000000	n/a	707870	GoFixedSOA	431	n/a	n/a	1
709.5040000000	n/a	709504	FrequentFixedSOA	1633	n/a	n/a	1
711.1370000000	n/a	711137	FrequentFixedSOA	1633	n/a	n/a	1
712.7700000000	n/a	712770	NovelFixedSOA	1633	n/a	n/a	1
714.4040000000	n/a	714404	FrequentFixedSOA	1633	n/a	n/a	1
716.0370000000	n/a	716037	FrequentFixedSOA	1633	n/a	n/a	1
717.6700000000	n/a	717670	GoFixedSOA	445	n/a	n/a	1
719.3040000000	n/a	719304	FrequentFixedSOA	1633	n/a	n/a	1
720.9370000000	n/a	720937	FrequentFixedSOA	1633	n/a	n/a	1
722.5700000000	n/a	722570	FrequentFixedSOA	1633	n/a	n/a	1
724.2040000000	n/a	724204	NovelFixedSOA	1633	n/a	n/a	1
725.8370000000	n/a	725837	FrequentFixedSOA	1633	n/a	n/a	1
727.4700000000	n/a	727470	NovelFixedSOA	1633	n/a	n/a	1
729.1040000000	n/a	729104	FrequentFixedSOA	1633	n/a	n/a	1
730.7370000000	n/a	730737	FrequentFixedSOA	1633	n/a	n/a	1
732.3700000000	n/a	732370	FrequentFixedSOA	1633	n/a	n/a	1
734.0040000000	n/a	734004	GoFixedSOA	436	n/a	n/a	1
735.6370000000	n/a	735637	FrequentFixedSOA	1633	n/a	n/a	1
737.2700000000	n/a	737270	FrequentFixedSOA	1633	n/a	n/a	1
738.9040000000	n/a	738904	FrequentFixedSOA	1633	n/a	n/a	1
740.5370000000	n/a	740537	GoFixedSOA	443	n/a	n/a	1
742.1700000000	n/a	742170	FrequentFixedSOA	1633	n/a	n/a	1
743.8040000000	n/a	743804	FrequentFixedSOA	1633	n/a	n/a	1
745.4370000000	n/a	745437	NovelFixedSOA	1633	n/a	n/a	1
747.0700000000	n/a	747070	FrequentFixedSOA	1633	n/a	n/a	1
748.7040000000	n/a	748704	GoFixedSOA	419	n/a	n/a	1
750.3370000000	n/a	750337	FrequentFixedSOA	1633	n/a	n/a	1
751.9700000000	n/a	751970	FrequentFixedSOA	1633	n/a	n/a	1
753.6040000000	n/a	753604	FrequentFixedSOA	1633	n/a	n/a	1
755.2370000000	n/a	755237	FrequentFixedSOA	1633	n/a	n/a	1
756.8700000000	n/a	756870	FrequentFixedSOA	1633	n/a	n/a	1
758.5040000000	n/a	758504	FrequentFixedSOA	1633	n/a	n/a	1
760.1370000000	n/a	760137	NovelFixedSOA	1633	n/a	n/a	1
761.7700000000	n/a	761770	FrequentFixedSOA	1633	n/a	n/a	1
763.4040000000	n/a	763404	FrequentFixedSOA	1633	n/a	n/a	1
765.0370000000	n/a	765037	FrequentFixedSOA	1633	n/a	n/a	1
766.6700000000	n/a	766670	GoFixedSOA	394	n/a	n/a	1
768.3040000000	n/a	768304	FrequentFixedSOA	1633	n/a	n/a	1
769.9370000000	n/a	769937	FrequentFixedSOA	1633	n/a	n/a	1
771.5700000000	n/a	771570	FrequentFixedSOA	1633	n/a	n/a	1
773.2040000000	n/a	773204	FrequentFixedSOA	1633	n/a	n/a	1
774.8370000000	n/a	774837	NovelFixedSOA	1633	n/a	n/a	1
776.4700000000	n/a	776470	FrequentFixedSOA	1633	n/a	n/a	1
778.1040000000	n/a	778104	FrequentFixedSOA	1633	n/a	n/a	1
779.7370000000	n/a	779737	NovelFixedSOA	1633	n/a	n/a	1
781.3700000000	n/a	781370	FrequentFixedSOA	1633	n/a	n/a	1
783.0040000000	n/a	783004	NovelFixedSOA	1633	n/a	n/a	1
784.6370000000	n/a	784637	FrequentFixedSOA	1633	n/a	n/a	1
786.2700000000	n/a	786270	FrequentFixedSOA	1633	n/a	n/a	1
787.9040000000	n/a	787904	FrequentFixedSOA	1633	n/a	n/a	1
789.5370000000	n/a	789537	FrequentFixedSOA	1633	n/a	n/a	1
791.1700000000	n/a	791170	FrequentFixedSOA	1633	n/a	n/a	1
792.8040000000	n/a	792804	FrequentFixedSOA	1633	n/a	n/a	1
794.4370000000	n/a	794437	FrequentFixedSOA	1633	n/a	n/a	1
796.0700000000	n/a	796070	GoFixedSOA	1633	n/a	n/a	0
797.7040000000	n/a	797704	FrequentFixedSOA	1633	n/a	n/a	0
799.3370000000	n/a	799337	GoFixedSOA	822	n/a	n/a	1
800.9700000000	n/a	800970	FrequentFixedSOA	1633	n/a	n/a	1
802.6040000000	n/a	802604	FrequentFixedSOA	1633	n/a	n/a	1
804.2370000000	n/a	804237	NovelFixedSOA	1633	n/a	n/a	1
805.8700000000	n/a	805870	FrequentFixedSOA	1633	n/a	n/a	1
807.5040000000	n/a	807504	GoVariableSOA	606	n/a	n/a	1
809.0040000000	n/a	809004	FrequentVariableSOA	1750	n/a	n/a	1
810.7540000000	n/a	810754	FrequentVariableSOA	1516	n/a	n/a	1
812.2700000000	n/a	812270	FrequentVariableSOA	1550	n/a	n/a	1
813.8200000000	n/a	813820	GoVariableSOA	572	n/a	n/a	1
815.3870000000	n/a	815387	FrequentVariableSOA	1666	n/a	n/a	1
817.0540000000	n/a	817054	FrequentVariableSOA	1650	n/a	n/a	1
818.7040000000	n/a	818704	FrequentVariableSOA	1566	n/a	n/a	1
820.2700000000	n/a	820270	FrequentVariableSOA	1683	n/a	n/a	1
821.9540000000	n/a	821954	GoVariableSOA	383	n/a	n/a	1
823.6200000000	n/a	823620	FrequentVariableSOA	1650	n/a	n/a	1
825.2700000000	n/a	825270	FrequentVariableSOA	1683	n/a	n/a	1
826.9540000000	n/a	826954	NovelVariableSOA	1716	n/a	n/a	1
828.6700000000	n/a	828670	FrequentVariableSOA	1600	n/a	n/a	1
830.2700000000	n/a	830270	FrequentVariableSOA	1716	n/a	n/a	1
831.9870000000	n/a	831987	GoVariableSOA	391	n/a	n/a	1
833.6040000000	n/a	833604	FrequentVariableSOA	1733	n/a	n/a	1
835.3370000000	n/a	835337	FrequentVariableSOA	1716	n/a	n/a	1
837.0540000000	n/a	837054	FrequentVariableSOA	1550	n/a	n/a	1
838.6040000000	n/a	838604	NovelVariableSOA	1683	n/a	n/a	1
840.2870000000	n/a	840287	FrequentVariableSOA	1516	n/a	n/a	1
841.8040000000	n/a	841804	NovelVariableSOA	1666	n/a	n/a	1
843.4700000000	n/a	843470	FrequentVariableSOA	1583	n/a	n/a	1
845.0540000000	n/a	845054	FrequentVariableSOA	1633	n/a	n/a	1
846.6870000000	n/a	846687	FrequentVariableSOA	1516	n/a	n/a	1
848.2040000000	n/a	848204	GoVariableSOA	387	n/a	n/a	1
849.9040000000	n/a	849904	FrequentVariableSOA	1583	n/a	n/a	1
851.4870000000	n/a	851487	FrequentVariableSOA	1566	n/a	n/a	1
853.0540000000	n/a	853054	FrequentVariableSOA	1733	n/a	n/a	1
854.7870000000	n/a	854787	GoVariableSOA	738	n/a	n/a	1
856.3370000000	n/a	856337	FrequentVariableSOA	1800	n/a	n/a	1
858.1370000000	n/a	858137	FrequentVariableSOA	1516	n/a	n/a	1
859.6540000000	n/a	859654	NovelVariableSOA	1566	n/a	n/a	1
861.2200000000	n/a	861220	FrequentVariableSOA	1750	n/a	n/a	1
862.9700000000	n/a	862970	GoVariableSOA	484	n/a	n/a	1
864.4700000000	n/a	864470	FrequentVariableSOA	1766	n/a	n/a	1
866.2370000000	n/a	866237	FrequentVariableSOA	1533	n/a	n/a	1
867.7700000000	n/a	867770	FrequentVariableSOA	1666	n/a	n/a	1
869.4370000000	n/a	869437	FrequentVariableSOA	1716	n/a	n/a	1
871.1540000000	n/a	871154	FrequentVariableSOA	1600	n/a	n/a	1
872.7540000000	n/a	872754	FrequentVariableSOA	1616	n/a	n/a	1
874.3700000000	n/a	874370	NovelVariableSOA	1516	n/a	n/a	1
875.8870000000	n/a	875887	FrequentVariableSOA	1716	n/a	n/a	1
877.6040000000	n/a	877604	FrequentVariableSOA	1566	n/a	n/a	1
879.1700000000	n/a	879170	FrequentVariableSOA	1550	n/a	n/a	1
880.7200000000	n/a	880720	GoVariableSOA	485	n/a	n/a	1
882.3700000000	n/a	882370	FrequentVariableSOA	1683	n/a	n/a	1
884.0530000000	n/a	884053	FrequentVariableSOA	1733	n/a	n/a	1
885.7870000000	n/a	885787	FrequentVariableSOA	1733	n/a	n/a	1
887.5200000000	n/a	887520	FrequentVariableSOA	1783	n/a	n/a	1
889.3030000000	n/a	889303	NovelVariableSOA	1733	n/a	n/a	1
891.0370000000	n/a	891037	FrequentVariableSOA	1650	n/a	n/a	1
892.6870000000	n/a	892687	FrequentVariableSOA	1616	n/a	n/a	1
894.3030000000	n/a	894303	NovelVariableSOA	1800	n/a	n/a	1
896.1030000000	n/a	896103	FrequentVariableSOA	1550	n/a	n/a	1
897.6530000000	n/a	897653	NovelVariableSOA	1550	n/a	n/a	1
899.2030000000	n/a	899203	FrequentVariableSOA	1666	n/a	n/a	1
900.8700000000	n/a	900870	FrequentVariableSOA	1516	n/a	n/a	1
902.3870000000	n/a	902387	FrequentVariableSOA	1800	n/a	n/a	1
904.1870000000	n/a	904187	FrequentVariableSOA	1550	n/a	n/a	1
905.7370000000	n/a	905737	FrequentVariableSOA	1516	n/a	n/a	1
907.2530000000	n/a	907253	FrequentVariableSOA	1583	n/a	n/a	1
908.8370000000	n/a	908837	FrequentVariableSOA	1616	n/a	n/a	1
910.4530000000	n/a	910453	GoVariableSOA	453	n/a	n/a	1
912.2030000000	n/a	912203	FrequentVariableSOA	1600	n/a	n/a	1
913.8030000000	n/a	913803	GoVariableSOA	524	n/a	n/a	1
915.3200000000	n/a	915320	FrequentVariableSOA	1683	n/a	n/a	1
917.0030000000	n/a	917003	FrequentVariableSOA	1516	n/a	n/a	1
918.5200000000	n/a	918520	NovelVariableSOA	1566	n/a	n/a	1
920.0870000000	n/a	920087	FrequentVariableSOA	1783	n/a	n/a	1
