onset	duration	sample	trial_type	response_time	stim_file	value	correct
2.1110000000	n/a	2111	ignore	2506	n/a	n/a	1
5.6940000000	n/a	5694	ignore	1000	n/a	n/a	1
7.6940000000	n/a	7694	ignore	1700	n/a	n/a	1
9.3940000000	n/a	9394	ignore	3397	n/a	n/a	1
13.8610000000	n/a	13861	ignore	1000	n/a	n/a	1
15.8610000000	n/a	15861	ignore	1700	n/a	n/a	1
17.5610000000	n/a	17561	ignore	1040	n/a	n/a	1
19.6780000000	n/a	19678	ignore	1000	n/a	n/a	1
21.6780000000	n/a	21678	ignore	1700	n/a	n/a	1
23.3780000000	n/a	23378	ignore	2599	n/a	n/a	1
27.0440000000	n/a	27044	ignore	1000	n/a	n/a	1
29.0440000000	n/a	29044	ignore	1700	n/a	n/a	1
30.7440000000	n/a	30744	ignore	1304	n/a	n/a	1
33.1110000000	n/a	33111	ignore	1000	n/a	n/a	1
35.1110000000	n/a	35111	ignore	1700	n/a	n/a	1
36.8110000000	n/a	36811	ignore	2232	n/a	n/a	1
40.1110000000	n/a	40111	ignore	1000	n/a	n/a	1
42.1110000000	n/a	42111	STATUS	1700	n/a	n/a	1
43.8110000000	n/a	43811	ignore	2068	n/a	n/a	1
46.9440000000	n/a	46944	ignore	1000	n/a	n/a	1
48.9440000000	n/a	48944	STATUS	1700	n/a	n/a	1
50.6440000000	n/a	50644	ignore	2730	n/a	n/a	1
54.4440000000	n/a	54444	ignore	1000	n/a	n/a	1
56.4440000000	n/a	56444	STATUS	1700	n/a	n/a	1
58.1440000000	n/a	58144	ignore	5362	n/a	n/a	1
63.5780000000	n/a	63578	ignore 	2000	n/a	n/a	1
70.9940000000	n/a	70994	ignore	1000	n/a	n/a	1
72.9940000000	n/a	72994	STATUS	1700	n/a	n/a	1
74.6940000000	n/a	74694	ignore	663	n/a	n/a	1
76.4270000000	n/a	76427	ignore	1000	n/a	n/a	1
78.4270000000	n/a	78427	STATUS	1700	n/a	n/a	1
80.1270000000	n/a	80127	ignore	586	n/a	n/a	1
81.7770000000	n/a	81777	ignore	1000	n/a	n/a	1
83.7770000000	n/a	83777	STATUS	1700	n/a	n/a	1
85.4770000000	n/a	85477	ignore	582	n/a	n/a	1
87.1270000000	n/a	87127	ignore	1000	n/a	n/a	1
89.1270000000	n/a	89127	STATUS	1700	n/a	n/a	1
90.8270000000	n/a	90827	ignore	840	n/a	n/a	1
92.7440000000	n/a	92744	ignore	1000	n/a	n/a	1
94.7440000000	n/a	94744	STATUS	1700	n/a	n/a	1
96.4440000000	n/a	96444	ignore	1990	n/a	n/a	1
99.5110000000	n/a	99511	ignore	1000	n/a	n/a	1
101.5110000000	n/a	101511	STATUS	1700	n/a	n/a	1
103.2110000000	n/a	103211	ignore	1645	n/a	n/a	1
105.9270000000	n/a	105927	ignore	1000	n/a	n/a	1
107.9270000000	n/a	107927	ignore	1700	n/a	n/a	1
109.6270000000	n/a	109627	ignore	1124	n/a	n/a	1
111.8270000000	n/a	111827	ignore	1000	n/a	n/a	1
113.8270000000	n/a	113827	ignore	1700	n/a	n/a	1
115.5270000000	n/a	115527	ignore	1608	n/a	n/a	1
117.2110000000	n/a	117211	ignore 	2000	n/a	n/a	1
155.7770000000	n/a	155777	PenaltyB1	3081	n/a	n/a	1
159.9270000000	n/a	159927	NeuCorrB1	1000	n/a	n/a	1
161.9270000000	n/a	161927	ignore	1700	n/a	n/a	1
163.6270000000	n/a	163627	PenaltyB1	1683	n/a	n/a	1
166.3770000000	n/a	166377	NeuCorrB1	1000	n/a	n/a	1
168.3770000000	n/a	168377	ignore	1700	n/a	n/a	1
170.0770000000	n/a	170077	PenaltyB1	804	n/a	n/a	1
171.9440000000	n/a	171944	NeuCorrB1	1000	n/a	n/a	1
173.9440000000	n/a	173944	ignore	1700	n/a	n/a	1
175.6440000000	n/a	175644	RewardB1	1488	n/a	n/a	1
178.2110000000	n/a	178211	RewardCorrB1	1000	n/a	n/a	1
180.2110000000	n/a	180211	ignore	1700	n/a	n/a	1
181.9110000000	n/a	181911	RewardB1	2715	n/a	n/a	1
185.6940000000	n/a	185694	RewardCorrB1	1000	n/a	n/a	1
187.6940000000	n/a	187694	ignore	1700	n/a	n/a	1
189.3940000000	n/a	189394	PenaltyB1	896	n/a	n/a	1
191.3610000000	n/a	191361	NeuCorrB1	1000	n/a	n/a	1
193.3610000000	n/a	193361	ignore	1700	n/a	n/a	1
195.0610000000	n/a	195061	PenaltyB1	2452	n/a	n/a	0
198.5770000000	n/a	198577	PunIncorrB1	1000	n/a	n/a	1
200.5770000000	n/a	200577	ignore	1700	n/a	n/a	1
202.2770000000	n/a	202277	PenaltyB1	758	n/a	n/a	0
204.1110000000	n/a	204111	PunIncorrB1	1000	n/a	n/a	1
206.1110000000	n/a	206111	ignore	1700	n/a	n/a	1
207.8110000000	n/a	207811	PenaltyB1	829	n/a	n/a	1
209.7110000000	n/a	209711	PunCorrB1	1000	n/a	n/a	1
211.7110000000	n/a	211711	ignore	1700	n/a	n/a	1
213.4110000000	n/a	213411	RewardB1	4694	n/a	n/a	0
219.1770000000	n/a	219177	NeuIncorrB1	1000	n/a	n/a	1
221.1770000000	n/a	221177	ignore	1700	n/a	n/a	1
222.8770000000	n/a	222877	PenaltyB1	754	n/a	n/a	0
224.6940000000	n/a	224694	PunIncorrB1	1000	n/a	n/a	1
226.6940000000	n/a	226694	STATUS	1700	n/a	n/a	1
228.3940000000	n/a	228394	RewardB1	658	n/a	n/a	1
230.1270000000	n/a	230127	NeuCorrB1	1000	n/a	n/a	1
232.1270000000	n/a	232127	STATUS	1700	n/a	n/a	1
233.8270000000	n/a	233827	PenaltyB1	710	n/a	n/a	1
235.6110000000	n/a	235611	NeuCorrB1	1000	n/a	n/a	1
237.6110000000	n/a	237611	STATUS	1700	n/a	n/a	1
239.3100000000	n/a	239310	RewardB1	1395	n/a	n/a	1
241.7770000000	n/a	241777	RewardCorrB1	1000	n/a	n/a	1
243.7770000000	n/a	243777	ignore	1700	n/a	n/a	1
245.4770000000	n/a	245477	PenaltyB1	2739	n/a	n/a	1
249.2940000000	n/a	249294	NeuCorrB1	1000	n/a	n/a	1
251.2940000000	n/a	251294	ignore	1700	n/a	n/a	1
252.9940000000	n/a	252994	PenaltyB1	1047	n/a	n/a	0
255.1100000000	n/a	255110	PunIncorrB1	1000	n/a	n/a	1
257.1110000000	n/a	257111	STATUS	1700	n/a	n/a	1
258.8100000000	n/a	258810	RewardB1	1342	n/a	n/a	1
261.2270000000	n/a	261227	NeuCorrB1	1000	n/a	n/a	1
263.2270000000	n/a	263227	STATUS	1700	n/a	n/a	1
264.9270000000	n/a	264927	PenaltyB1	921	n/a	n/a	0
266.9100000000	n/a	266910	PunIncorrB1	1000	n/a	n/a	1
268.9110000000	n/a	268911	STATUS	1700	n/a	n/a	1
270.6100000000	n/a	270610	RewardB1	490	n/a	n/a	1
272.1770000000	n/a	272177	RewardCorrB1	1000	n/a	n/a	1
274.1770000000	n/a	274177	STATUS	1700	n/a	n/a	1
275.8770000000	n/a	275877	RewardB1	889	n/a	n/a	1
277.8440000000	n/a	277844	RewardCorrB1	1000	n/a	n/a	1
279.8440000000	n/a	279844	ignore	1700	n/a	n/a	1
281.5440000000	n/a	281544	RewardB1	1547	n/a	n/a	1
284.1600000000	n/a	284160	NeuCorrB1	1000	n/a	n/a	1
286.1600000000	n/a	286160	ignore	1700	n/a	n/a	1
287.8600000000	n/a	287860	RewardB1	1474	n/a	n/a	1
290.4100000000	n/a	290410	RewardCorrB1	1000	n/a	n/a	1
292.4100000000	n/a	292410	ignore	1700	n/a	n/a	1
294.1100000000	n/a	294110	RewardB1	524	n/a	n/a	1
295.7100000000	n/a	295710	RewardCorrB1	1000	n/a	n/a	1
297.7100000000	n/a	297710	ignore	1700	n/a	n/a	1
299.4100000000	n/a	299410	PenaltyB1	588	n/a	n/a	1
301.0770000000	n/a	301077	NeuCorrB1	1000	n/a	n/a	1
303.0770000000	n/a	303077	ignore	1700	n/a	n/a	1
304.7770000000	n/a	304777	RewardB1	2308	n/a	n/a	1
308.1600000000	n/a	308160	RewardCorrB1	1000	n/a	n/a	1
310.1600000000	n/a	310160	ignore	1700	n/a	n/a	1
311.8600000000	n/a	311860	PenaltyB1	398	n/a	n/a	0
313.3270000000	n/a	313327	NeuIncorrB1	1000	n/a	n/a	1
315.3270000000	n/a	315327	ignore	1700	n/a	n/a	1
317.0270000000	n/a	317027	RewardB1	614	n/a	n/a	1
318.7100000000	n/a	318710	RewardCorrB1	1000	n/a	n/a	1
320.7100000000	n/a	320710	ignore	1700	n/a	n/a	1
322.4100000000	n/a	322410	RewardB1	1471	n/a	n/a	1
324.9440000000	n/a	324944	RewardCorrB1	1000	n/a	n/a	1
326.9440000000	n/a	326944	ignore	1700	n/a	n/a	1
328.6440000000	n/a	328644	RewardB1	3896	n/a	n/a	1
333.6100000000	n/a	333610	RewardCorrB1	1000	n/a	n/a	1
335.6100000000	n/a	335610	ignore	1700	n/a	n/a	1
337.3100000000	n/a	337310	PenaltyB1	1564	n/a	n/a	0
339.9440000000	n/a	339944	PunIncorrB1	1000	n/a	n/a	1
341.9440000000	n/a	341944	ignore	1700	n/a	n/a	1
343.6440000000	n/a	343644	RewardB1	1260	n/a	n/a	0
345.9770000000	n/a	345977	RewIncorrB1	1000	n/a	n/a	1
347.9770000000	n/a	347977	ignore	1700	n/a	n/a	1
349.6770000000	n/a	349677	PenaltyB1	517	n/a	n/a	1
351.2600000000	n/a	351260	NeuCorrB1	1000	n/a	n/a	1
353.2600000000	n/a	353260	ignore	1700	n/a	n/a	1
354.9600000000	n/a	354960	RewardB1	599	n/a	n/a	1
356.6270000000	n/a	356627	RewardCorrB1	1000	n/a	n/a	1
358.6270000000	n/a	358627	ignore	1700	n/a	n/a	1
360.3270000000	n/a	360327	PenaltyB1	618	n/a	n/a	0
362.0100000000	n/a	362010	NeuIncorrB1	1000	n/a	n/a	1
364.0100000000	n/a	364010	ignore	1700	n/a	n/a	1
365.7100000000	n/a	365710	RewardB1	1277	n/a	n/a	1
368.0600000000	n/a	368060	RewardCorrB1	1000	n/a	n/a	1
370.0600000000	n/a	370060	ignore	1700	n/a	n/a	1
371.7600000000	n/a	371760	PenaltyB1	948	n/a	n/a	0
373.7770000000	n/a	373777	PunIncorrB1	1000	n/a	n/a	1
375.7770000000	n/a	375777	ignore	1700	n/a	n/a	1
377.4770000000	n/a	377477	PenaltyB1	1032	n/a	n/a	1
379.5770000000	n/a	379577	NeuCorrB1	1000	n/a	n/a	1
381.5770000000	n/a	381577	ignore	1700	n/a	n/a	1
383.2770000000	n/a	383277	RewardB1	5474	n/a	n/a	1
389.8270000000	n/a	389827	RewardCorrB1	1000	n/a	n/a	1
391.8270000000	n/a	391827	ignore	1700	n/a	n/a	1
393.5270000000	n/a	393527	PenaltyB1	858	n/a	n/a	1
395.4600000000	n/a	395460	PunCorrB1	1000	n/a	n/a	1
397.4600000000	n/a	397460	ignore	1700	n/a	n/a	1
399.1600000000	n/a	399160	RewardB1	1084	n/a	n/a	1
401.3100000000	n/a	401310	RewardCorrB1	1000	n/a	n/a	1
403.3100000000	n/a	403310	ignore	1700	n/a	n/a	1
412.1270000000	n/a	412127	RewardB2	805	n/a	n/a	1
413.9940000000	n/a	413994	RewardCorrB2	1000	n/a	n/a	1
415.9940000000	n/a	415994	STATUS	1700	n/a	n/a	1
417.6940000000	n/a	417694	PenaltyB2	787	n/a	n/a	0
419.5440000000	n/a	419544	PunIncorrB2	1000	n/a	n/a	1
421.5440000000	n/a	421544	ignore	1700	n/a	n/a	1
423.2440000000	n/a	423244	RewardB2	791	n/a	n/a	1
425.1100000000	n/a	425110	RewardCorrB2	1000	n/a	n/a	1
427.1100000000	n/a	427110	STATUS	1700	n/a	n/a	1
428.8100000000	n/a	428810	RewardB2	1215	n/a	n/a	1
431.0940000000	n/a	431094	NeuCorrB2	1000	n/a	n/a	1
433.0940000000	n/a	433094	STATUS	1700	n/a	n/a	1
434.7940000000	n/a	434794	PenaltyB2	1660	n/a	n/a	1
437.5270000000	n/a	437527	NeuCorrB2	1000	n/a	n/a	1
439.5270000000	n/a	439527	STATUS	1700	n/a	n/a	1
441.2270000000	n/a	441227	RewardB2	7628	n/a	n/a	1
449.9270000000	n/a	449927	RewardCorrB2	1000	n/a	n/a	1
451.9270000000	n/a	451927	STATUS	1700	n/a	n/a	1
453.6270000000	n/a	453627	PenaltyB2	642	n/a	n/a	0
455.3430000000	n/a	455343	PunIncorrB2	1000	n/a	n/a	1
457.3440000000	n/a	457344	STATUS	1700	n/a	n/a	1
459.0430000000	n/a	459043	RewardB2	898	n/a	n/a	1
461.0100000000	n/a	461010	RewardCorrB2	1000	n/a	n/a	1
463.0100000000	n/a	463010	STATUS	1700	n/a	n/a	1
464.7100000000	n/a	464710	PenaltyB2	3258	n/a	n/a	1
469.0430000000	n/a	469043	NeuCorrB2	1000	n/a	n/a	1
471.0440000000	n/a	471044	STATUS	1700	n/a	n/a	1
472.7430000000	n/a	472743	RewardB2	824	n/a	n/a	1
474.6430000000	n/a	474643	RewardCorrB2	1000	n/a	n/a	1
476.6440000000	n/a	476644	STATUS	1700	n/a	n/a	1
478.3430000000	n/a	478343	PenaltyB2	1727	n/a	n/a	1
481.1430000000	n/a	481143	PunCorrB2	1000	n/a	n/a	1
483.1440000000	n/a	483144	STATUS	1700	n/a	n/a	1
484.8430000000	n/a	484843	RewardB2	1677	n/a	n/a	1
487.5930000000	n/a	487593	RewardCorrB2	1000	n/a	n/a	1
489.5930000000	n/a	489593	STATUS	1700	n/a	n/a	1
491.2930000000	n/a	491293	PenaltyB2	744	n/a	n/a	1
493.1100000000	n/a	493110	NeuCorrB2	1000	n/a	n/a	1
495.1100000000	n/a	495110	STATUS	1700	n/a	n/a	1
496.8100000000	n/a	496810	RewardB2	2111	n/a	n/a	1
499.9930000000	n/a	499993	RewardCorrB2	1000	n/a	n/a	1
501.9930000000	n/a	501993	STATUS	1700	n/a	n/a	1
503.6930000000	n/a	503693	PenaltyB2	1237	n/a	n/a	1
505.9930000000	n/a	505993	NeuCorrB2	1000	n/a	n/a	1
507.9930000000	n/a	507993	STATUS	1700	n/a	n/a	1
509.6930000000	n/a	509693	RewardB2	1027	n/a	n/a	1
511.7930000000	n/a	511793	NeuCorrB2	1000	n/a	n/a	1
513.7930000000	n/a	513793	STATUS	1700	n/a	n/a	1
515.4930000000	n/a	515493	PenaltyB2	806	n/a	n/a	0
517.3770000000	n/a	517377	PunIncorrB2	1000	n/a	n/a	1
519.3770000000	n/a	519377	STATUS	1700	n/a	n/a	1
521.0770000000	n/a	521077	RewardB2	590	n/a	n/a	1
522.7430000000	n/a	522743	RewardCorrB2	1000	n/a	n/a	1
524.7430000000	n/a	524743	STATUS	1700	n/a	n/a	1
526.4430000000	n/a	526443	PenaltyB2	724	n/a	n/a	1
528.2430000000	n/a	528243	NeuCorrB2	1000	n/a	n/a	1
530.2430000000	n/a	530243	STATUS	1700	n/a	n/a	1
531.9430000000	n/a	531943	RewardB2	766	n/a	n/a	1
533.7770000000	n/a	533777	RewardCorrB2	1000	n/a	n/a	1
535.7770000000	n/a	535777	STATUS	1700	n/a	n/a	1
537.4770000000	n/a	537477	PenaltyB2	510	n/a	n/a	0
539.0600000000	n/a	539060	NeuIncorrB2	1000	n/a	n/a	1
541.0600000000	n/a	541060	STATUS	1700	n/a	n/a	1
542.7600000000	n/a	542760	PenaltyB2	979	n/a	n/a	1
544.8100000000	n/a	544810	NeuCorrB2	1000	n/a	n/a	1
546.8100000000	n/a	546810	STATUS	1700	n/a	n/a	1
548.5100000000	n/a	548510	PenaltyB2	1373	n/a	n/a	0
550.9600000000	n/a	550960	PunIncorrB2	1000	n/a	n/a	1
552.9600000000	n/a	552960	STATUS	1700	n/a	n/a	1
554.6600000000	n/a	554660	RewardB2	1312	n/a	n/a	1
557.0430000000	n/a	557043	RewardCorrB2	1000	n/a	n/a	1
559.0430000000	n/a	559043	STATUS	1700	n/a	n/a	1
560.7430000000	n/a	560743	RewardB2	2076	n/a	n/a	1
563.8930000000	n/a	563893	NeuCorrB2	1000	n/a	n/a	1
565.8930000000	n/a	565893	STATUS	1700	n/a	n/a	1
567.5930000000	n/a	567593	RewardB2	777	n/a	n/a	1
569.4430000000	n/a	569443	RewardCorrB2	1000	n/a	n/a	1
571.4430000000	n/a	571443	STATUS	1700	n/a	n/a	1
573.1430000000	n/a	573143	PenaltyB2	2192	n/a	n/a	1
576.4100000000	n/a	576410	NeuCorrB2	1000	n/a	n/a	1
578.4100000000	n/a	578410	STATUS	1700	n/a	n/a	1
580.1100000000	n/a	580110	PenaltyB2	2629	n/a	n/a	0
583.8100000000	n/a	583810	PunIncorrB2	1000	n/a	n/a	1
585.8100000000	n/a	585810	STATUS	1700	n/a	n/a	1
587.5100000000	n/a	587510	RewardB2	1379	n/a	n/a	1
589.9600000000	n/a	589960	RewardCorrB2	1000	n/a	n/a	1
591.9600000000	n/a	591960	STATUS	1700	n/a	n/a	1
593.6600000000	n/a	593660	PenaltyB2	721	n/a	n/a	0
595.4430000000	n/a	595443	PunIncorrB2	1000	n/a	n/a	1
597.4430000000	n/a	597443	STATUS	1700	n/a	n/a	1
599.1430000000	n/a	599143	RewardB2	5075	n/a	n/a	1
605.2930000000	n/a	605293	NeuCorrB2	1000	n/a	n/a	1
607.2930000000	n/a	607293	STATUS	1700	n/a	n/a	1
608.9930000000	n/a	608993	PenaltyB2	508	n/a	n/a	1
610.5770000000	n/a	610577	NeuCorrB2	1000	n/a	n/a	1
612.5770000000	n/a	612577	STATUS	1700	n/a	n/a	1
614.2770000000	n/a	614277	RewardB2	1121	n/a	n/a	1
616.4600000000	n/a	616460	RewardCorrB2	1000	n/a	n/a	1
618.4600000000	n/a	618460	STATUS	1700	n/a	n/a	1
620.1600000000	n/a	620160	PenaltyB2	518	n/a	n/a	0
621.7430000000	n/a	621743	PunIncorrB2	1000	n/a	n/a	1
623.7430000000	n/a	623743	STATUS	1700	n/a	n/a	1
625.4430000000	n/a	625443	PenaltyB2	467	n/a	n/a	1
626.9770000000	n/a	626977	PunCorrB2	1000	n/a	n/a	1
628.9770000000	n/a	628977	STATUS	1700	n/a	n/a	1
630.6770000000	n/a	630677	RewardB2	689	n/a	n/a	1
632.4430000000	n/a	632443	RewardCorrB2	1000	n/a	n/a	1
634.4430000000	n/a	634443	STATUS	1700	n/a	n/a	1
636.1430000000	n/a	636143	PenaltyB2	536	n/a	n/a	0
637.7430000000	n/a	637743	PunIncorrB2	1000	n/a	n/a	1
639.7430000000	n/a	639743	STATUS	1700	n/a	n/a	1
641.4430000000	n/a	641443	RewardB2	692	n/a	n/a	1
643.2100000000	n/a	643210	RewardCorrB2	1000	n/a	n/a	1
645.2100000000	n/a	645210	STATUS	1700	n/a	n/a	1
646.9100000000	n/a	646910	PenaltyB2	745	n/a	n/a	0
648.7270000000	n/a	648727	NeuIncorrB2	1000	n/a	n/a	1
650.7270000000	n/a	650727	STATUS	1700	n/a	n/a	1
652.4270000000	n/a	652427	RewardB2	1233	n/a	n/a	1
654.7270000000	n/a	654727	RewardCorrB2	1000	n/a	n/a	1
656.7270000000	n/a	656727	STATUS	1700	n/a	n/a	1
660.2600000000	n/a	660260	RewardB3	489	n/a	n/a	1
661.8260000000	n/a	661826	RewardCorrB3	1000	n/a	n/a	1
663.8270000000	n/a	663827	STATUS	1700	n/a	n/a	1
665.5260000000	n/a	665526	PenaltyB3	697	n/a	n/a	1
667.2930000000	n/a	667293	PunCorrB3	1000	n/a	n/a	1
669.2930000000	n/a	669293	STATUS	1700	n/a	n/a	1
670.9930000000	n/a	670993	RewardB3	1537	n/a	n/a	1
673.5930000000	n/a	673593	RewardCorrB3	1000	n/a	n/a	1
675.5930000000	n/a	675593	STATUS	1700	n/a	n/a	1
677.2930000000	n/a	677293	PenaltyB3	923	n/a	n/a	1
679.2930000000	n/a	679293	NeuCorrB3	1000	n/a	n/a	1
681.2930000000	n/a	681293	STATUS	1700	n/a	n/a	1
682.9930000000	n/a	682993	PenaltyB3	2990	n/a	n/a	0
687.0600000000	n/a	687060	PunIncorrB3	1000	n/a	n/a	1
689.0600000000	n/a	689060	STATUS	1700	n/a	n/a	1
690.7600000000	n/a	690760	RewardB3	2208	n/a	n/a	1
694.0430000000	n/a	694043	RewardCorrB3	1000	n/a	n/a	1
696.0430000000	n/a	696043	STATUS	1700	n/a	n/a	1
697.7430000000	n/a	697743	PenaltyB3	2006	n/a	n/a	0
700.8260000000	n/a	700826	NeuIncorrB3	1000	n/a	n/a	1
702.8260000000	n/a	702826	STATUS	1700	n/a	n/a	1
704.5260000000	n/a	704526	RewardB3	573	n/a	n/a	1
706.1760000000	n/a	706176	RewardCorrB3	1000	n/a	n/a	1
708.1760000000	n/a	708176	STATUS	1700	n/a	n/a	1
709.8760000000	n/a	709876	PenaltyB3	433	n/a	n/a	1
711.3760000000	n/a	711376	NeuCorrB3	1000	n/a	n/a	1
713.3760000000	n/a	713376	STATUS	1700	n/a	n/a	1
715.0760000000	n/a	715076	RewardB3	659	n/a	n/a	1
716.8100000000	n/a	716810	NeuCorrB3	1000	n/a	n/a	1
718.8100000000	n/a	718810	STATUS	1700	n/a	n/a	1
720.5100000000	n/a	720510	PenaltyB3	666	n/a	n/a	0
722.2430000000	n/a	722243	PunIncorrB3	1000	n/a	n/a	1
724.2430000000	n/a	724243	STATUS	1700	n/a	n/a	1
725.9430000000	n/a	725943	RewardB3	1519	n/a	n/a	1
728.5260000000	n/a	728526	RewardCorrB3	1000	n/a	n/a	1
730.5260000000	n/a	730526	STATUS	1700	n/a	n/a	1
732.2260000000	n/a	732226	RewardB3	685	n/a	n/a	1
733.9760000000	n/a	733976	RewardCorrB3	1000	n/a	n/a	1
735.9760000000	n/a	735976	STATUS	1700	n/a	n/a	1
737.6760000000	n/a	737676	RewardB3	5593	n/a	n/a	1
744.3430000000	n/a	744343	RewardCorrB3	1000	n/a	n/a	1
746.3430000000	n/a	746343	STATUS	1700	n/a	n/a	1
748.0430000000	n/a	748043	PenaltyB3	1665	n/a	n/a	0
750.7760000000	n/a	750776	NeuIncorrB3	1000	n/a	n/a	1
752.7760000000	n/a	752776	STATUS	1700	n/a	n/a	1
754.4760000000	n/a	754476	RewardB3	549	n/a	n/a	1
756.0930000000	n/a	756093	RewardCorrB3	1000	n/a	n/a	1
758.0930000000	n/a	758093	STATUS	1700	n/a	n/a	1
759.7930000000	n/a	759793	PenaltyB3	1921	n/a	n/a	1
762.7760000000	n/a	762776	NeuCorrB3	1000	n/a	n/a	1
764.7760000000	n/a	764776	STATUS	1700	n/a	n/a	1
766.4760000000	n/a	766476	RewardB3	1082	n/a	n/a	1
768.6260000000	n/a	768626	RewardCorrB3	1000	n/a	n/a	1
770.6260000000	n/a	770626	STATUS	1700	n/a	n/a	1
772.3260000000	n/a	772326	RewardB3	1178	n/a	n/a	1
774.5760000000	n/a	774576	RewardCorrB3	1000	n/a	n/a	1
776.5760000000	n/a	776576	STATUS	1700	n/a	n/a	1
778.2760000000	n/a	778276	RewardB3	511	n/a	n/a	1
779.8600000000	n/a	779860	NeuCorrB3	1000	n/a	n/a	1
781.8600000000	n/a	781860	STATUS	1700	n/a	n/a	1
783.5600000000	n/a	783560	RewardB3	579	n/a	n/a	1
785.2100000000	n/a	785210	RewardCorrB3	1000	n/a	n/a	1
787.2100000000	n/a	787210	STATUS	1700	n/a	n/a	1
788.9100000000	n/a	788910	RewardB3	841	n/a	n/a	1
790.8260000000	n/a	790826	RewardCorrB3	1000	n/a	n/a	1
792.8260000000	n/a	792826	STATUS	1700	n/a	n/a	1
794.5260000000	n/a	794526	PenaltyB3	551	n/a	n/a	0
796.1430000000	n/a	796143	PunIncorrB3	1000	n/a	n/a	1
798.1430000000	n/a	798143	STATUS	1700	n/a	n/a	1
799.8430000000	n/a	799843	RewardB3	1461	n/a	n/a	1
802.3760000000	n/a	802376	NeuCorrB3	1000	n/a	n/a	1
804.3760000000	n/a	804376	STATUS	1700	n/a	n/a	1
806.0760000000	n/a	806076	PenaltyB3	1057	n/a	n/a	0
808.2100000000	n/a	808210	PunIncorrB3	1000	n/a	n/a	1
810.2100000000	n/a	810210	STATUS	1700	n/a	n/a	1
811.9100000000	n/a	811910	PenaltyB3	500	n/a	n/a	1
813.4760000000	n/a	813476	NeuCorrB3	1000	n/a	n/a	1
815.4760000000	n/a	815476	STATUS	1700	n/a	n/a	1
817.1760000000	n/a	817176	RewardB3	1080	n/a	n/a	1
819.3260000000	n/a	819326	RewardCorrB3	1000	n/a	n/a	1
821.3260000000	n/a	821326	STATUS	1700	n/a	n/a	1
823.0260000000	n/a	823026	PenaltyB3	514	n/a	n/a	1
824.6100000000	n/a	824610	NeuCorrB3	1000	n/a	n/a	1
826.6100000000	n/a	826610	STATUS	1700	n/a	n/a	1
828.3100000000	n/a	828310	RewardB3	865	n/a	n/a	0
830.2430000000	n/a	830243	RewIncorrB3	1000	n/a	n/a	1
832.2430000000	n/a	832243	STATUS	1700	n/a	n/a	1
833.9430000000	n/a	833943	PenaltyB3	1194	n/a	n/a	0
836.2100000000	n/a	836210	PunIncorrB3	1000	n/a	n/a	1
838.2100000000	n/a	838210	STATUS	1700	n/a	n/a	1
839.9100000000	n/a	839910	RewardB3	797	n/a	n/a	1
841.7760000000	n/a	841776	RewardCorrB3	1000	n/a	n/a	1
843.7760000000	n/a	843776	STATUS	1700	n/a	n/a	1
845.4760000000	n/a	845476	PenaltyB3	503	n/a	n/a	1
847.0430000000	n/a	847043	PunCorrB3	1000	n/a	n/a	1
849.0430000000	n/a	849043	STATUS	1700	n/a	n/a	1
850.7430000000	n/a	850743	PenaltyB3	512	n/a	n/a	0
852.3260000000	n/a	852326	PunIncorrB3	1000	n/a	n/a	1
854.3260000000	n/a	854326	STATUS	1700	n/a	n/a	1
856.0260000000	n/a	856026	PenaltyB3	803	n/a	n/a	0
857.8930000000	n/a	857893	PunIncorrB3	1000	n/a	n/a	1
859.8930000000	n/a	859893	STATUS	1700	n/a	n/a	1
861.5930000000	n/a	861593	PenaltyB3	2906	n/a	n/a	1
865.5760000000	n/a	865576	NeuCorrB3	1000	n/a	n/a	1
867.5760000000	n/a	867576	STATUS	1700	n/a	n/a	1
869.2760000000	n/a	869276	RewardB3	1032	n/a	n/a	1
871.3760000000	n/a	871376	RewardCorrB3	1000	n/a	n/a	1
873.3760000000	n/a	873376	STATUS	1700	n/a	n/a	1
875.0760000000	n/a	875076	RewardB3	1449	n/a	n/a	1
877.5930000000	n/a	877593	RewardCorrB3	1000	n/a	n/a	1
879.5930000000	n/a	879593	STATUS	1700	n/a	n/a	1
881.2930000000	n/a	881293	PenaltyB3	424	n/a	n/a	1
882.7930000000	n/a	882793	NeuCorrB3	1000	n/a	n/a	1
884.7930000000	n/a	884793	STATUS	1700	n/a	n/a	1
886.4930000000	n/a	886493	PenaltyB3	1508	n/a	n/a	0
889.0760000000	n/a	889076	PunIncorrB3	1000	n/a	n/a	1
891.0760000000	n/a	891076	STATUS	1700	n/a	n/a	1
892.7760000000	n/a	892776	PenaltyB3	6350	n/a	n/a	1
900.1930000000	n/a	900193	NeuCorrB3	1000	n/a	n/a	1
902.1930000000	n/a	902193	STATUS	1700	n/a	n/a	1
905.9090000000	n/a	905909	RewardB4	1582	n/a	n/a	0
908.5590000000	n/a	908559	NeuIncorrB4	1000	n/a	n/a	1
910.5590000000	n/a	910559	STATUS	1700	n/a	n/a	1
912.2590000000	n/a	912259	PenaltyB4	735	n/a	n/a	0
914.0590000000	n/a	914059	NeuIncorrB4	1000	n/a	n/a	1
916.0590000000	n/a	916059	STATUS	1700	n/a	n/a	1
917.7590000000	n/a	917759	RewardB4	601	n/a	n/a	1
919.4260000000	n/a	919426	RewardCorrB4	1000	n/a	n/a	1
921.4260000000	n/a	921426	STATUS	1700	n/a	n/a	1
923.1260000000	n/a	923126	PenaltyB4	484	n/a	n/a	0
924.6760000000	n/a	924676	PunIncorrB4	1000	n/a	n/a	1
926.6760000000	n/a	926676	STATUS	1700	n/a	n/a	1
928.3760000000	n/a	928376	RewardB4	1155	n/a	n/a	1
930.5930000000	n/a	930593	RewardCorrB4	1000	n/a	n/a	1
932.5930000000	n/a	932593	STATUS	1700	n/a	n/a	1
934.2930000000	n/a	934293	PenaltyB4	1984	n/a	n/a	1
937.3430000000	n/a	937343	PunCorrB4	1000	n/a	n/a	1
939.3430000000	n/a	939343	STATUS	1700	n/a	n/a	1
941.0430000000	n/a	941043	PenaltyB4	11704	n/a	n/a	0
953.8090000000	n/a	953809	PunIncorrB4	1000	n/a	n/a	1
955.8090000000	n/a	955809	STATUS	1700	n/a	n/a	1
957.5090000000	n/a	957509	RewardB4	2313	n/a	n/a	1
960.8930000000	n/a	960893	RewardCorrB4	1000	n/a	n/a	1
962.8930000000	n/a	962893	STATUS	1700	n/a	n/a	1
964.5930000000	n/a	964593	PenaltyB4	5025	n/a	n/a	1
970.6930000000	n/a	970693	NeuCorrB4	1000	n/a	n/a	1
972.6930000000	n/a	972693	STATUS	1700	n/a	n/a	1
974.3930000000	n/a	974393	RewardB4	714	n/a	n/a	1
976.1760000000	n/a	976176	NeuCorrB4	1000	n/a	n/a	1
978.1760000000	n/a	978176	STATUS	1700	n/a	n/a	1
979.8760000000	n/a	979876	PenaltyB4	7584	n/a	n/a	0
988.5260000000	n/a	988526	PunIncorrB4	1000	n/a	n/a	1
990.5260000000	n/a	990526	STATUS	1700	n/a	n/a	1
992.2260000000	n/a	992226	RewardB4	14861	n/a	n/a	1
1008.1590000000	n/a	1008159	RewardCorrB4	1000	n/a	n/a	1
1010.1590000000	n/a	1010159	STATUS	1700	n/a	n/a	1
1011.8590000000	n/a	1011859	PenaltyB4	1566	n/a	n/a	0
1014.4930000000	n/a	1014493	PunIncorrB4	1000	n/a	n/a	1
1016.4930000000	n/a	1016493	STATUS	1700	n/a	n/a	1
1018.1930000000	n/a	1018193	PenaltyB4	717	n/a	n/a	1
1019.9760000000	n/a	1019976	NeuCorrB4	1000	n/a	n/a	1
1021.9760000000	n/a	1021976	STATUS	1700	n/a	n/a	1
1023.6760000000	n/a	1023676	RewardB4	589	n/a	n/a	1
1025.3430000000	n/a	1025343	RewardCorrB4	1000	n/a	n/a	1
1027.3430000000	n/a	1027343	STATUS	1700	n/a	n/a	1
1029.0430000000	n/a	1029043	RewardB4	543	n/a	n/a	1
1030.6590000000	n/a	1030659	NeuCorrB4	1000	n/a	n/a	1
1032.6590000000	n/a	1032659	STATUS	1700	n/a	n/a	1
1034.3590000000	n/a	1034359	RewardB4	519	n/a	n/a	1
1035.9430000000	n/a	1035943	RewardCorrB4	1000	n/a	n/a	1
1037.9430000000	n/a	1037943	STATUS	1700	n/a	n/a	1
1039.6430000000	n/a	1039643	PenaltyB4	825	n/a	n/a	0
1041.5430000000	n/a	1041543	PunIncorrB4	1000	n/a	n/a	1
1043.5430000000	n/a	1043543	STATUS	1700	n/a	n/a	1
1045.2430000000	n/a	1045243	PenaltyB4	754	n/a	n/a	1
1047.0590000000	n/a	1047059	NeuCorrB4	1000	n/a	n/a	1
1049.0590000000	n/a	1049059	STATUS	1700	n/a	n/a	1
1050.7590000000	n/a	1050759	PenaltyB4	650	n/a	n/a	0
1052.4760000000	n/a	1052476	NeuIncorrB4	1000	n/a	n/a	1
1054.4760000000	n/a	1054476	STATUS	1700	n/a	n/a	1
1056.1760000000	n/a	1056176	RewardB4	3932	n/a	n/a	1
1061.1760000000	n/a	1061176	RewardCorrB4	1000	n/a	n/a	1
1063.1760000000	n/a	1063176	STATUS	1700	n/a	n/a	1
1064.8760000000	n/a	1064876	PenaltyB4	1632	n/a	n/a	1
1067.5760000000	n/a	1067576	NeuCorrB4	1000	n/a	n/a	1
1069.5760000000	n/a	1069576	STATUS	1700	n/a	n/a	1
1071.2760000000	n/a	1071276	RewardB4	1335	n/a	n/a	1
1073.6760000000	n/a	1073676	RewardCorrB4	1000	n/a	n/a	1
1075.6760000000	n/a	1075676	STATUS	1700	n/a	n/a	1
1077.3760000000	n/a	1077376	PenaltyB4	1811	n/a	n/a	0
1080.2590000000	n/a	1080259	PunIncorrB4	1000	n/a	n/a	1
1082.2590000000	n/a	1082259	STATUS	1700	n/a	n/a	1
1083.9590000000	n/a	1083959	RewardB4	1178	n/a	n/a	1
1086.2090000000	n/a	1086209	NeuCorrB4	1000	n/a	n/a	1
1088.2090000000	n/a	1088209	STATUS	1700	n/a	n/a	1
1089.9090000000	n/a	1089909	PenaltyB4	2691	n/a	n/a	1
1093.6760000000	n/a	1093676	NeuCorrB4	1000	n/a	n/a	1
1095.6760000000	n/a	1095676	STATUS	1700	n/a	n/a	1
1097.3760000000	n/a	1097376	RewardB4	890	n/a	n/a	1
1099.3420000000	n/a	1099342	RewardCorrB4	1000	n/a	n/a	1
1101.3430000000	n/a	1101343	STATUS	1700	n/a	n/a	1
1103.0420000000	n/a	1103042	PenaltyB4	9589	n/a	n/a	1
1113.7090000000	n/a	1113709	NeuCorrB4	1000	n/a	n/a	1
1115.7090000000	n/a	1115709	STATUS	1700	n/a	n/a	1
1117.4090000000	n/a	1117409	RewardB4	1177	n/a	n/a	1
1119.6590000000	n/a	1119659	RewardCorrB4	1000	n/a	n/a	1
1121.6590000000	n/a	1121659	STATUS	1700	n/a	n/a	1
1123.3590000000	n/a	1123359	PenaltyB4	1080	n/a	n/a	1
1125.5090000000	n/a	1125509	PunCorrB4	1000	n/a	n/a	1
1127.5090000000	n/a	1127509	STATUS	1700	n/a	n/a	1
1129.2090000000	n/a	1129209	RewardB4	840	n/a	n/a	1
1131.1260000000	n/a	1131126	RewardCorrB4	1000	n/a	n/a	1
1133.1260000000	n/a	1133126	STATUS	1700	n/a	n/a	1
1134.8260000000	n/a	1134826	PenaltyB4	1368	n/a	n/a	1
1137.2590000000	n/a	1137259	NeuCorrB4	1000	n/a	n/a	1
1139.2590000000	n/a	1139259	STATUS	1700	n/a	n/a	1
1140.9590000000	n/a	1140959	RewardB4	6702	n/a	n/a	1
1148.7260000000	n/a	1148726	RewardCorrB4	1000	n/a	n/a	1
1150.7260000000	n/a	1150726	STATUS	1700	n/a	n/a	1
1152.4260000000	n/a	1152426	PenaltyB4	10331	n/a	n/a	0
1163.8260000000	n/a	1163826	PunIncorrB4	1000	n/a	n/a	1
1165.8260000000	n/a	1165826	STATUS	1700	n/a	n/a	1
1167.5260000000	n/a	1167526	RewardB4	664	n/a	n/a	1
1169.2590000000	n/a	1169259	RewardCorrB4	1000	n/a	n/a	1
1171.2590000000	n/a	1171259	STATUS	1700	n/a	n/a	1
1172.9590000000	n/a	1172959	PenaltyB4	5200	n/a	n/a	1
1179.2260000000	n/a	1179226	NeuCorrB4	1000	n/a	n/a	1
1181.2260000000	n/a	1181226	STATUS	1700	n/a	n/a	1
1182.9260000000	n/a	1182926	RewardB4	7877	n/a	n/a	1
1191.8760000000	n/a	1191876	NeuCorrB4	1000	n/a	n/a	1
1193.8760000000	n/a	1193876	STATUS	1700	n/a	n/a	1
1195.5760000000	n/a	1195576	RewardB4	3807	n/a	n/a	1
1200.4590000000	n/a	1200459	RewardCorrB4	1000	n/a	n/a	1
1202.4590000000	n/a	1202459	STATUS	1700	n/a	n/a	1
1204.1590000000	n/a	1204159	PenaltyB4	1136	n/a	n/a	0
1206.3590000000	n/a	1206359	PunIncorrB4	1000	n/a	n/a	1
1208.3590000000	n/a	1208359	STATUS	1700	n/a	n/a	1
1210.0590000000	n/a	1210059	RewardB4	5751	n/a	n/a	1
1216.8760000000	n/a	1216876	RewardCorrB4	1000	n/a	n/a	1
1218.8760000000	n/a	1218876	STATUS	1700	n/a	n/a	1
1223.9760000000	n/a	1223976	STATUS	1700	n/a	n/a	1
