onset	duration	sample	trial_type	response_time	stim_file	value	correct
6.6140000000	n/a	6614	ignore	n/a	n/a	n/a	n/a
9.7140000000	n/a	9714	ignore	n/a	n/a	n/a	n/a
12.7220000000	n/a	12722	ignore	n/a	n/a	n/a	n/a
29.7640000000	n/a	29764	ignore	n/a	n/a	n/a	n/a
32.8640000000	n/a	32864	ignore	n/a	n/a	n/a	n/a
35.8510000000	n/a	35851	ignore	n/a	n/a	n/a	n/a
52.8310000000	n/a	52831	PosStim	n/a	n/a	n/a	n/a
55.8640000000	n/a	55864	PosNonAlcStimWithoutStartle	n/a	n/a	n/a	n/a
70.2310000000	n/a	70231	NegStim	n/a	n/a	n/a	n/a
73.2640000000	n/a	73264	NegNonAlcStimWithoutStartle	n/a	n/a	n/a	n/a
89.9140000000	n/a	89914	NeuStim	n/a	n/a	n/a	n/a
93.0140000000	n/a	93014	NeuNonAlcP2000	n/a	n/a	n/a	n/a
97.0010000000	n/a	97001	NeuNonAlcP2000	n/a	n/a	n/a	n/a
109.7810000000	n/a	109781	NegStim	n/a	n/a	n/a	n/a
112.8810000000	n/a	112881	NegAlcP2000	n/a	n/a	n/a	n/a
116.8680000000	n/a	116868	NegAlcP2000	n/a	n/a	n/a	n/a
125.9970000000	n/a	125997	NeuStim	n/a	n/a	n/a	n/a
129.0310000000	n/a	129031	NeuAlcStimWithoutStartle	n/a	n/a	n/a	n/a
144.4640000000	n/a	144464	PosStim	n/a	n/a	n/a	n/a
147.5640000000	n/a	147564	PosAlcP1000	n/a	n/a	n/a	n/a
152.5510000000	n/a	152551	PosAlcP1000	n/a	n/a	n/a	n/a
163.9970000000	n/a	163997	NeuStim	n/a	n/a	n/a	n/a
167.0970000000	n/a	167097	NeuAlcP2000	n/a	n/a	n/a	n/a
171.0840000000	n/a	171084	NeuAlcP2000	n/a	n/a	n/a	n/a
180.3470000000	n/a	180347	NegStim	n/a	n/a	n/a	n/a
183.4470000000	n/a	183447	NegAlcP3000	n/a	n/a	n/a	n/a
186.4340000000	n/a	186434	NegAlcP3000	n/a	n/a	n/a	n/a
197.9140000000	n/a	197914	PosStim	n/a	n/a	n/a	n/a
200.9470000000	n/a	200947	PosNonAlcStimWithoutStartle	n/a	n/a	n/a	n/a
217.5970000000	n/a	217597	NeuStim	n/a	n/a	n/a	n/a
220.6970000000	n/a	220697	NeuAlcP1000	n/a	n/a	n/a	n/a
225.6840000000	n/a	225684	NeuAlcP1000	n/a	n/a	n/a	n/a
236.5640000000	n/a	236564	NegStim	n/a	n/a	n/a	n/a
239.6640000000	n/a	239664	NegNonAlcP3000	n/a	n/a	n/a	n/a
242.6510000000	n/a	242651	NegNonAlcP3000	n/a	n/a	n/a	n/a
256.5640000000	n/a	256564	PosStim	n/a	n/a	n/a	n/a
259.6640000000	n/a	259664	PosAlcP2000	n/a	n/a	n/a	n/a
263.6510000000	n/a	263651	PosAlcP2000	n/a	n/a	n/a	n/a
275.5470000000	n/a	275547	NegStim	n/a	n/a	n/a	n/a
278.5800000000	n/a	278580	NegNonAlcStimWithoutStartle	n/a	n/a	n/a	n/a
295.3300000000	n/a	295330	PosStim	n/a	n/a	n/a	n/a
298.3640000000	n/a	298364	PosAlcStimWithoutStartle	n/a	n/a	n/a	n/a
312.9300000000	n/a	312930	NeuStim	n/a	n/a	n/a	n/a
316.0300000000	n/a	316030	NeuNonAlcP3000	n/a	n/a	n/a	n/a
319.0170000000	n/a	319017	NeuNonAlcP3000	n/a	n/a	n/a	n/a
331.5470000000	n/a	331547	NegStim	n/a	n/a	n/a	n/a
334.6470000000	n/a	334647	NegAlcP1000	n/a	n/a	n/a	n/a
339.6340000000	n/a	339634	NegAlcP1000	n/a	n/a	n/a	n/a
350.6800000000	n/a	350680	NeuStim	n/a	n/a	n/a	n/a
353.7800000000	n/a	353780	NeuAlcP3000	n/a	n/a	n/a	n/a
356.7670000000	n/a	356767	NeuAlcP3000	n/a	n/a	n/a	n/a
368.9300000000	n/a	368930	PosStim	n/a	n/a	n/a	n/a
372.0300000000	n/a	372030	PosAlcP3000	n/a	n/a	n/a	n/a
375.0170000000	n/a	375017	PosAlcP3000	n/a	n/a	n/a	n/a
386.1640000000	n/a	386164	NeuStim	n/a	n/a	n/a	n/a
389.1970000000	n/a	389197	NeuAlcStimWithoutStartle	n/a	n/a	n/a	n/a
404.5130000000	n/a	404513	NegStim	n/a	n/a	n/a	n/a
407.6130000000	n/a	407613	NegAlcP1000	n/a	n/a	n/a	n/a
412.6010000000	n/a	412601	NegAlcP1000	n/a	n/a	n/a	n/a
421.2970000000	n/a	421297	NeuStim	n/a	n/a	n/a	n/a
424.3970000000	n/a	424397	NeuNonAlcP3000	n/a	n/a	n/a	n/a
427.3840000000	n/a	427384	NeuNonAlcP3000	n/a	n/a	n/a	n/a
437.8630000000	n/a	437863	NegStim	n/a	n/a	n/a	n/a
440.9630000000	n/a	440963	NegNonAlcP2000	n/a	n/a	n/a	n/a
444.9500000000	n/a	444950	NegNonAlcP2000	n/a	n/a	n/a	n/a
454.5970000000	n/a	454597	PosStim	n/a	n/a	n/a	n/a
457.6300000000	n/a	457630	PosNonAlcStimWithoutStartle	n/a	n/a	n/a	n/a
474.2630000000	n/a	474263	NeuStim	n/a	n/a	n/a	n/a
477.2970000000	n/a	477297	NeuNonAlcStimWithoutStartle	n/a	n/a	n/a	n/a
494.1630000000	n/a	494163	PosStim	n/a	n/a	n/a	n/a
497.2630000000	n/a	497263	PosNonAlcP1000	n/a	n/a	n/a	n/a
502.2500000000	n/a	502250	PosNonAlcP1000	n/a	n/a	n/a	n/a
511.8470000000	n/a	511847	NegStim	n/a	n/a	n/a	n/a
514.8800000000	n/a	514880	NegAlcStimWithoutStartle	n/a	n/a	n/a	n/a
528.3300000000	n/a	528330	NeuStim	n/a	n/a	n/a	n/a
531.4300000000	n/a	531430	NeuAlcP2000	n/a	n/a	n/a	n/a
535.4170000000	n/a	535417	NeuAlcP2000	n/a	n/a	n/a	n/a
544.7300000000	n/a	544730	PosStim	n/a	n/a	n/a	n/a
547.8300000000	n/a	547830	PosNonAlcP1000	n/a	n/a	n/a	n/a
552.8170000000	n/a	552817	PosNonAlcP1000	n/a	n/a	n/a	n/a
561.1630000000	n/a	561163	NeuStim	n/a	n/a	n/a	n/a
564.2630000000	n/a	564263	NeuNonAlcP1000	n/a	n/a	n/a	n/a
569.2500000000	n/a	569250	NeuNonAlcP1000	n/a	n/a	n/a	n/a
578.2470000000	n/a	578247	PosStim	n/a	n/a	n/a	n/a
581.2800000000	n/a	581280	PosNonAlcStimWithoutStartle	n/a	n/a	n/a	n/a
594.9800000000	n/a	594980	NegStim	n/a	n/a	n/a	n/a
598.0800000000	n/a	598080	NegAlcP2000	n/a	n/a	n/a	n/a
602.0670000000	n/a	602067	NegAlcP2000	n/a	n/a	n/a	n/a
613.7630000000	n/a	613763	NeuStim	n/a	n/a	n/a	n/a
616.8630000000	n/a	616863	NeuAlcP3000	n/a	n/a	n/a	n/a
619.8500000000	n/a	619850	NeuAlcP3000	n/a	n/a	n/a	n/a
630.4300000000	n/a	630430	NegStim	n/a	n/a	n/a	n/a
633.4630000000	n/a	633463	NegAlcStimWithoutStartle	n/a	n/a	n/a	n/a
649.9460000000	n/a	649946	NeuStim	n/a	n/a	n/a	n/a
653.0460000000	n/a	653046	NeuNonAlcP2000	n/a	n/a	n/a	n/a
657.0330000000	n/a	657033	NeuNonAlcP2000	n/a	n/a	n/a	n/a
669.1300000000	n/a	669130	PosStim	n/a	n/a	n/a	n/a
672.2300000000	n/a	672230	PosNonAlcP3000	n/a	n/a	n/a	n/a
675.2170000000	n/a	675217	PosNonAlcP3000	n/a	n/a	n/a	n/a
688.0130000000	n/a	688013	NegStim	n/a	n/a	n/a	n/a
691.1130000000	n/a	691113	NegAlcP3000	n/a	n/a	n/a	n/a
694.1000000000	n/a	694100	NegAlcP3000	n/a	n/a	n/a	n/a
707.7960000000	n/a	707796	PosStim	n/a	n/a	n/a	n/a
710.8300000000	n/a	710830	PosAlcStimWithoutStartle	n/a	n/a	n/a	n/a
724.8460000000	n/a	724846	NegStim	n/a	n/a	n/a	n/a
727.9460000000	n/a	727946	NegAlcP1000	n/a	n/a	n/a	n/a
732.9330000000	n/a	732933	NegAlcP1000	n/a	n/a	n/a	n/a
743.6130000000	n/a	743613	PosStim	n/a	n/a	n/a	n/a
746.6460000000	n/a	746646	PosAlcStimWithoutStartle	n/a	n/a	n/a	n/a
760.6630000000	n/a	760663	NegStim	n/a	n/a	n/a	n/a
763.7630000000	n/a	763763	NegNonAlcP2000	n/a	n/a	n/a	n/a
767.7500000000	n/a	767750	NegNonAlcP2000	n/a	n/a	n/a	n/a
777.7300000000	n/a	777730	PosStim	n/a	n/a	n/a	n/a
780.8300000000	n/a	780830	PosAlcP2000	n/a	n/a	n/a	n/a
784.8170000000	n/a	784817	PosAlcP2000	n/a	n/a	n/a	n/a
797.6130000000	n/a	797613	NeuStim	n/a	n/a	n/a	n/a
800.6460000000	n/a	800646	NeuNonAlcStimWithoutStartle	n/a	n/a	n/a	n/a
816.1630000000	n/a	816163	PosStim	n/a	n/a	n/a	n/a
819.2630000000	n/a	819263	PosNonAlcP2000	n/a	n/a	n/a	n/a
823.2500000000	n/a	823250	PosNonAlcP2000	n/a	n/a	n/a	n/a
833.6290000000	n/a	833629	NegStim	n/a	n/a	n/a	n/a
836.6630000000	n/a	836663	NegAlcStimWithoutStartle	n/a	n/a	n/a	n/a
853.0290000000	n/a	853029	PosStim	n/a	n/a	n/a	n/a
856.1290000000	n/a	856129	PosAlcP3000	n/a	n/a	n/a	n/a
859.1160000000	n/a	859116	PosAlcP3000	n/a	n/a	n/a	n/a
869.6630000000	n/a	869663	PosStim	n/a	n/a	n/a	n/a
872.7630000000	n/a	872763	PosNonAlcP3000	n/a	n/a	n/a	n/a
875.7500000000	n/a	875750	PosNonAlcP3000	n/a	n/a	n/a	n/a
887.1460000000	n/a	887146	NeuStim	n/a	n/a	n/a	n/a
890.1790000000	n/a	890179	NeuNonAlcStimWithoutStartle	n/a	n/a	n/a	n/a
905.6630000000	n/a	905663	NeuStim	n/a	n/a	n/a	n/a
908.7630000000	n/a	908763	NeuNonAlcP3000	n/a	n/a	n/a	n/a
911.7500000000	n/a	911750	NeuNonAlcP3000	n/a	n/a	n/a	n/a
922.0460000000	n/a	922046	PosStim	n/a	n/a	n/a	n/a
925.1460000000	n/a	925146	PosAlcP2000	n/a	n/a	n/a	n/a
929.1330000000	n/a	929133	PosAlcP2000	n/a	n/a	n/a	n/a
939.0460000000	n/a	939046	NegStim	n/a	n/a	n/a	n/a
942.1460000000	n/a	942146	NegAlcP1000	n/a	n/a	n/a	n/a
947.1330000000	n/a	947133	NegAlcP1000	n/a	n/a	n/a	n/a
958.3960000000	n/a	958396	PosStim	n/a	n/a	n/a	n/a
961.4960000000	n/a	961496	PosNonAlcP2000	n/a	n/a	n/a	n/a
965.4830000000	n/a	965483	PosNonAlcP2000	n/a	n/a	n/a	n/a
977.9790000000	n/a	977979	NeuStim	n/a	n/a	n/a	n/a
981.0130000000	n/a	981013	NeuNonAlcStimWithoutStartle	n/a	n/a	n/a	n/a
997.0620000000	n/a	997062	NegStim	n/a	n/a	n/a	n/a
1000.1620000000	n/a	1000162	NegAlcP2000	n/a	n/a	n/a	n/a
1004.1500000000	n/a	1004150	NegAlcP2000	n/a	n/a	n/a	n/a
1016.0290000000	n/a	1016029	PosStim	n/a	n/a	n/a	n/a
1019.1290000000	n/a	1019129	PosAlcP3000	n/a	n/a	n/a	n/a
1022.1160000000	n/a	1022116	PosAlcP3000	n/a	n/a	n/a	n/a
1035.7290000000	n/a	1035729	NeuStim	n/a	n/a	n/a	n/a
1038.7620000000	n/a	1038762	NeuAlcStimWithoutStartle	n/a	n/a	n/a	n/a
1055.5620000000	n/a	1055562	NegStim	n/a	n/a	n/a	n/a
1058.6620000000	n/a	1058662	NegNonAlcP3000	n/a	n/a	n/a	n/a
1061.6490000000	n/a	1061649	NegNonAlcP3000	n/a	n/a	n/a	n/a
