onset	duration	sample	trial_type	response_time	stim_file	value	correct
3.6310000000	n/a	3631	FrequentFixedSOA	1633	n/a	n/a	1
5.2640000000	n/a	5264	FrequentFixedSOA	1633	n/a	n/a	1
6.8970000000	n/a	6897	FrequentFixedSOA	1633	n/a	n/a	1
8.5300000000	n/a	8530	FrequentFixedSOA	1633	n/a	n/a	1
10.1640000000	n/a	10164	FrequentFixedSOA	1633	n/a	n/a	1
11.7970000000	n/a	11797	FrequentFixedSOA	1633	n/a	n/a	1
13.4300000000	n/a	13430	FrequentFixedSOA	1633	n/a	n/a	1
15.0640000000	n/a	15064	FrequentFixedSOA	1633	n/a	n/a	1
16.6970000000	n/a	16697	FrequentFixedSOA	1633	n/a	n/a	1
18.3300000000	n/a	18330	FrequentFixedSOA	1633	n/a	n/a	1
19.9640000000	n/a	19964	NovelFixedSOA	584	n/a	n/a	0
21.5970000000	n/a	21597	FrequentFixedSOA	1633	n/a	n/a	1
23.2300000000	n/a	23230	GoFixedSOA	1633	n/a	n/a	0
24.8640000000	n/a	24864	FrequentFixedSOA	1633	n/a	n/a	1
26.4970000000	n/a	26497	FrequentFixedSOA	1633	n/a	n/a	1
28.1300000000	n/a	28130	FrequentFixedSOA	1633	n/a	n/a	1
29.7640000000	n/a	29764	GoFixedSOA	433	n/a	n/a	1
31.3970000000	n/a	31397	FrequentFixedSOA	1633	n/a	n/a	1
33.0300000000	n/a	33030	FrequentFixedSOA	1633	n/a	n/a	1
34.6640000000	n/a	34664	FrequentFixedSOA	1633	n/a	n/a	1
36.2970000000	n/a	36297	NovelFixedSOA	1633	n/a	n/a	1
37.9300000000	n/a	37930	FrequentFixedSOA	1633	n/a	n/a	1
39.5640000000	n/a	39564	FrequentFixedSOA	1633	n/a	n/a	1
41.1970000000	n/a	41197	FrequentFixedSOA	1633	n/a	n/a	1
42.8300000000	n/a	42830	GoFixedSOA	480	n/a	n/a	1
44.4640000000	n/a	44464	FrequentFixedSOA	1633	n/a	n/a	1
46.0970000000	n/a	46097	NovelFixedSOA	1633	n/a	n/a	1
47.7300000000	n/a	47730	FrequentFixedSOA	1633	n/a	n/a	1
49.3640000000	n/a	49364	FrequentFixedSOA	1633	n/a	n/a	1
50.9970000000	n/a	50997	FrequentFixedSOA	1633	n/a	n/a	1
52.6300000000	n/a	52630	GoFixedSOA	322	n/a	n/a	1
54.2640000000	n/a	54264	FrequentFixedSOA	1633	n/a	n/a	1
55.8970000000	n/a	55897	GoFixedSOA	391	n/a	n/a	1
57.5300000000	n/a	57530	FrequentFixedSOA	1633	n/a	n/a	1
59.1640000000	n/a	59164	FrequentFixedSOA	1633	n/a	n/a	1
60.7970000000	n/a	60797	GoFixedSOA	336	n/a	n/a	1
62.4300000000	n/a	62430	FrequentFixedSOA	1633	n/a	n/a	1
64.0640000000	n/a	64064	FrequentFixedSOA	1633	n/a	n/a	1
65.6970000000	n/a	65697	FrequentFixedSOA	1633	n/a	n/a	1
67.3300000000	n/a	67330	FrequentFixedSOA	1633	n/a	n/a	1
68.9640000000	n/a	68964	NovelFixedSOA	1633	n/a	n/a	1
70.5970000000	n/a	70597	FrequentFixedSOA	1633	n/a	n/a	1
72.2300000000	n/a	72230	NovelFixedSOA	1633	n/a	n/a	1
73.8640000000	n/a	73864	FrequentFixedSOA	1633	n/a	n/a	1
75.4970000000	n/a	75497	FrequentFixedSOA	1633	n/a	n/a	1
77.1300000000	n/a	77130	GoFixedSOA	395	n/a	n/a	1
78.7640000000	n/a	78764	FrequentFixedSOA	1633	n/a	n/a	1
80.3970000000	n/a	80397	FrequentFixedSOA	1633	n/a	n/a	1
82.0300000000	n/a	82030	FrequentFixedSOA	1633	n/a	n/a	1
83.6640000000	n/a	83664	FrequentFixedSOA	1633	n/a	n/a	1
85.2970000000	n/a	85297	NovelFixedSOA	1633	n/a	n/a	1
86.9300000000	n/a	86930	FrequentFixedSOA	1633	n/a	n/a	1
88.5640000000	n/a	88564	FrequentFixedSOA	1633	n/a	n/a	1
90.1970000000	n/a	90197	FrequentFixedSOA	1633	n/a	n/a	1
91.8300000000	n/a	91830	FrequentFixedSOA	1633	n/a	n/a	1
93.4640000000	n/a	93464	GoFixedSOA	358	n/a	n/a	1
95.0970000000	n/a	95097	FrequentFixedSOA	1633	n/a	n/a	1
96.7300000000	n/a	96730	FrequentFixedSOA	1633	n/a	n/a	1
98.3640000000	n/a	98364	NovelFixedSOA	1633	n/a	n/a	1
99.9970000000	n/a	99997	FrequentFixedSOA	1633	n/a	n/a	1
101.6300000000	n/a	101630	FrequentFixedSOA	1633	n/a	n/a	1
103.2640000000	n/a	103264	GoFixedSOA	386	n/a	n/a	1
104.8970000000	n/a	104897	FrequentFixedSOA	1633	n/a	n/a	1
106.5300000000	n/a	106530	FrequentFixedSOA	1633	n/a	n/a	1
108.1640000000	n/a	108164	FrequentFixedSOA	1633	n/a	n/a	1
109.7970000000	n/a	109797	FrequentFixedSOA	1633	n/a	n/a	1
111.4300000000	n/a	111430	NovelFixedSOA	1633	n/a	n/a	1
113.0640000000	n/a	113064	FrequentFixedSOA	1633	n/a	n/a	1
114.6970000000	n/a	114697	FrequentFixedSOA	1633	n/a	n/a	1
116.3300000000	n/a	116330	GoFixedSOA	307	n/a	n/a	1
117.9640000000	n/a	117964	FrequentVariableSOA	1683	n/a	n/a	1
119.6470000000	n/a	119647	FrequentVariableSOA	1633	n/a	n/a	1
121.2800000000	n/a	121280	FrequentVariableSOA	1616	n/a	n/a	1
122.8970000000	n/a	122897	FrequentVariableSOA	1716	n/a	n/a	1
124.6140000000	n/a	124614	FrequentVariableSOA	1650	n/a	n/a	1
126.2640000000	n/a	126264	FrequentVariableSOA	1583	n/a	n/a	1
127.8470000000	n/a	127847	FrequentVariableSOA	1633	n/a	n/a	1
129.4800000000	n/a	129480	FrequentVariableSOA	1600	n/a	n/a	1
131.0800000000	n/a	131080	FrequentVariableSOA	1733	n/a	n/a	1
132.8140000000	n/a	132814	FrequentVariableSOA	1733	n/a	n/a	1
134.5470000000	n/a	134547	NovelVariableSOA	1633	n/a	n/a	1
136.1800000000	n/a	136180	FrequentVariableSOA	1666	n/a	n/a	1
137.8470000000	n/a	137847	GoVariableSOA	315	n/a	n/a	1
139.6300000000	n/a	139630	FrequentVariableSOA	1616	n/a	n/a	1
141.2470000000	n/a	141247	FrequentVariableSOA	1583	n/a	n/a	1
142.8300000000	n/a	142830	FrequentVariableSOA	1716	n/a	n/a	1
144.5470000000	n/a	144547	GoVariableSOA	385	n/a	n/a	1
146.0640000000	n/a	146064	FrequentVariableSOA	1566	n/a	n/a	1
147.6300000000	n/a	147630	FrequentVariableSOA	1650	n/a	n/a	1
149.2800000000	n/a	149280	FrequentVariableSOA	1700	n/a	n/a	1
150.9800000000	n/a	150980	NovelVariableSOA	1583	n/a	n/a	1
152.5640000000	n/a	152564	FrequentVariableSOA	1583	n/a	n/a	1
154.1470000000	n/a	154147	FrequentVariableSOA	1616	n/a	n/a	1
155.7640000000	n/a	155764	FrequentVariableSOA	1650	n/a	n/a	1
157.4140000000	n/a	157414	GoVariableSOA	374	n/a	n/a	1
159.1970000000	n/a	159197	FrequentVariableSOA	1566	n/a	n/a	1
160.7640000000	n/a	160764	NovelVariableSOA	1600	n/a	n/a	1
162.3640000000	n/a	162364	FrequentVariableSOA	1516	n/a	n/a	1
163.8800000000	n/a	163880	FrequentVariableSOA	1733	n/a	n/a	1
165.6140000000	n/a	165614	FrequentVariableSOA	1716	n/a	n/a	1
167.3300000000	n/a	167330	GoVariableSOA	471	n/a	n/a	1
168.9300000000	n/a	168930	FrequentVariableSOA	1650	n/a	n/a	1
170.5800000000	n/a	170580	GoVariableSOA	281	n/a	n/a	1
172.2470000000	n/a	172247	FrequentVariableSOA	1750	n/a	n/a	1
173.9970000000	n/a	173997	FrequentVariableSOA	1566	n/a	n/a	1
175.5640000000	n/a	175564	GoVariableSOA	355	n/a	n/a	1
177.2640000000	n/a	177264	FrequentVariableSOA	1600	n/a	n/a	1
178.8640000000	n/a	178864	FrequentVariableSOA	1666	n/a	n/a	1
180.5300000000	n/a	180530	FrequentVariableSOA	1633	n/a	n/a	1
182.1630000000	n/a	182163	FrequentVariableSOA	1733	n/a	n/a	1
183.8970000000	n/a	183897	NovelVariableSOA	1600	n/a	n/a	1
185.4970000000	n/a	185497	FrequentVariableSOA	1550	n/a	n/a	1
187.0470000000	n/a	187047	NovelVariableSOA	1683	n/a	n/a	1
188.7300000000	n/a	188730	FrequentVariableSOA	1683	n/a	n/a	1
190.4130000000	n/a	190413	FrequentVariableSOA	1783	n/a	n/a	1
192.1970000000	n/a	192197	GoVariableSOA	400	n/a	n/a	1
193.8130000000	n/a	193813	FrequentVariableSOA	1566	n/a	n/a	1
195.3800000000	n/a	195380	FrequentVariableSOA	1716	n/a	n/a	1
197.0970000000	n/a	197097	FrequentVariableSOA	1783	n/a	n/a	1
198.8800000000	n/a	198880	FrequentVariableSOA	1733	n/a	n/a	1
200.6130000000	n/a	200613	NovelVariableSOA	1533	n/a	n/a	1
202.1470000000	n/a	202147	FrequentVariableSOA	1766	n/a	n/a	1
203.9130000000	n/a	203913	FrequentVariableSOA	1700	n/a	n/a	1
205.6130000000	n/a	205613	FrequentVariableSOA	1800	n/a	n/a	1
207.4130000000	n/a	207413	FrequentVariableSOA	1583	n/a	n/a	1
208.9970000000	n/a	208997	GoVariableSOA	363	n/a	n/a	1
210.4970000000	n/a	210497	FrequentVariableSOA	1566	n/a	n/a	1
212.0630000000	n/a	212063	FrequentVariableSOA	1700	n/a	n/a	1
213.7630000000	n/a	213763	NovelVariableSOA	1683	n/a	n/a	1
215.4470000000	n/a	215447	FrequentVariableSOA	1766	n/a	n/a	1
217.2130000000	n/a	217213	FrequentVariableSOA	1533	n/a	n/a	1
218.7470000000	n/a	218747	GoVariableSOA	391	n/a	n/a	1
220.3970000000	n/a	220397	FrequentVariableSOA	1733	n/a	n/a	1
222.1300000000	n/a	222130	FrequentVariableSOA	1750	n/a	n/a	1
223.8800000000	n/a	223880	FrequentVariableSOA	1616	n/a	n/a	1
225.4970000000	n/a	225497	FrequentVariableSOA	1533	n/a	n/a	1
227.0300000000	n/a	227030	NovelVariableSOA	1583	n/a	n/a	1
228.6130000000	n/a	228613	FrequentVariableSOA	1566	n/a	n/a	1
230.1800000000	n/a	230180	FrequentVariableSOA	1683	n/a	n/a	1
231.8630000000	n/a	231863	GoVariableSOA	298	n/a	n/a	1
233.6300000000	n/a	233630	FrequentFixedSOA	1633	n/a	n/a	1
235.2630000000	n/a	235263	FrequentFixedSOA	1633	n/a	n/a	1
236.8970000000	n/a	236897	FrequentFixedSOA	1633	n/a	n/a	1
238.5300000000	n/a	238530	GoFixedSOA	350	n/a	n/a	1
240.1630000000	n/a	240163	FrequentFixedSOA	1633	n/a	n/a	1
241.7970000000	n/a	241797	FrequentFixedSOA	1633	n/a	n/a	1
243.4300000000	n/a	243430	FrequentFixedSOA	1633	n/a	n/a	1
245.0630000000	n/a	245063	GoFixedSOA	237	n/a	n/a	1
246.6970000000	n/a	246697	FrequentFixedSOA	1633	n/a	n/a	1
248.3300000000	n/a	248330	FrequentFixedSOA	1633	n/a	n/a	1
249.9630000000	n/a	249963	FrequentFixedSOA	1633	n/a	n/a	1
251.5970000000	n/a	251597	NovelFixedSOA	1633	n/a	n/a	1
253.2300000000	n/a	253230	FrequentFixedSOA	1633	n/a	n/a	1
254.8630000000	n/a	254863	NovelFixedSOA	1633	n/a	n/a	1
256.4970000000	n/a	256497	FrequentFixedSOA	1633	n/a	n/a	1
258.1300000000	n/a	258130	FrequentFixedSOA	1633	n/a	n/a	1
259.7630000000	n/a	259763	NovelFixedSOA	1633	n/a	n/a	1
261.3970000000	n/a	261397	FrequentFixedSOA	1633	n/a	n/a	1
263.0300000000	n/a	263030	FrequentFixedSOA	1633	n/a	n/a	1
264.6630000000	n/a	264663	FrequentFixedSOA	1633	n/a	n/a	1
266.2970000000	n/a	266297	FrequentFixedSOA	1633	n/a	n/a	1
267.9300000000	n/a	267930	FrequentFixedSOA	1633	n/a	n/a	1
269.5630000000	n/a	269563	NovelFixedSOA	1633	n/a	n/a	1
271.1970000000	n/a	271197	FrequentFixedSOA	1633	n/a	n/a	1
272.8300000000	n/a	272830	FrequentFixedSOA	1633	n/a	n/a	1
274.4630000000	n/a	274463	FrequentFixedSOA	1633	n/a	n/a	1
276.0970000000	n/a	276097	FrequentFixedSOA	1633	n/a	n/a	1
277.7300000000	n/a	277730	FrequentFixedSOA	1633	n/a	n/a	1
279.3630000000	n/a	279363	GoFixedSOA	431	n/a	n/a	1
280.9970000000	n/a	280997	FrequentFixedSOA	1633	n/a	n/a	1
282.6300000000	n/a	282630	FrequentFixedSOA	1633	n/a	n/a	1
284.2630000000	n/a	284263	GoFixedSOA	333	n/a	n/a	1
285.8970000000	n/a	285897	FrequentFixedSOA	1633	n/a	n/a	1
287.5300000000	n/a	287530	NovelFixedSOA	1633	n/a	n/a	1
289.1630000000	n/a	289163	FrequentFixedSOA	1633	n/a	n/a	1
290.7970000000	n/a	290797	GoFixedSOA	222	n/a	n/a	1
292.4300000000	n/a	292430	FrequentFixedSOA	1633	n/a	n/a	1
294.0630000000	n/a	294063	GoFixedSOA	433	n/a	n/a	1
295.6970000000	n/a	295697	FrequentFixedSOA	1633	n/a	n/a	1
297.3300000000	n/a	297330	FrequentFixedSOA	1633	n/a	n/a	1
298.9630000000	n/a	298963	FrequentFixedSOA	1633	n/a	n/a	1
300.5970000000	n/a	300597	FrequentFixedSOA	1633	n/a	n/a	1
302.2300000000	n/a	302230	GoFixedSOA	348	n/a	n/a	1
303.8630000000	n/a	303863	FrequentFixedSOA	1633	n/a	n/a	1
305.4970000000	n/a	305497	FrequentFixedSOA	1633	n/a	n/a	1
307.1300000000	n/a	307130	FrequentFixedSOA	1633	n/a	n/a	1
308.7630000000	n/a	308763	NovelFixedSOA	1633	n/a	n/a	1
310.3970000000	n/a	310397	FrequentFixedSOA	1633	n/a	n/a	1
312.0300000000	n/a	312030	FrequentFixedSOA	1633	n/a	n/a	1
313.6630000000	n/a	313663	FrequentFixedSOA	1633	n/a	n/a	1
315.2970000000	n/a	315297	FrequentFixedSOA	1633	n/a	n/a	1
316.9300000000	n/a	316930	NovelFixedSOA	1633	n/a	n/a	1
318.5630000000	n/a	318563	FrequentFixedSOA	1633	n/a	n/a	1
320.1970000000	n/a	320197	FrequentFixedSOA	1633	n/a	n/a	1
321.8300000000	n/a	321830	FrequentFixedSOA	1633	n/a	n/a	1
323.4630000000	n/a	323463	FrequentFixedSOA	1633	n/a	n/a	1
325.0970000000	n/a	325097	NovelFixedSOA	1633	n/a	n/a	1
326.7300000000	n/a	326730	FrequentFixedSOA	1633	n/a	n/a	1
328.3630000000	n/a	328363	FrequentFixedSOA	1633	n/a	n/a	1
329.9970000000	n/a	329997	GoFixedSOA	370	n/a	n/a	1
331.6300000000	n/a	331630	FrequentFixedSOA	1633	n/a	n/a	1
333.2630000000	n/a	333263	FrequentFixedSOA	1633	n/a	n/a	1
334.8970000000	n/a	334897	FrequentFixedSOA	1633	n/a	n/a	1
336.5300000000	n/a	336530	FrequentFixedSOA	1633	n/a	n/a	1
338.1630000000	n/a	338163	NovelFixedSOA	1633	n/a	n/a	1
339.7970000000	n/a	339797	FrequentFixedSOA	1633	n/a	n/a	1
341.4300000000	n/a	341430	FrequentFixedSOA	1633	n/a	n/a	1
343.0630000000	n/a	343063	FrequentFixedSOA	1633	n/a	n/a	1
344.6970000000	n/a	344697	FrequentFixedSOA	1633	n/a	n/a	1
346.3300000000	n/a	346330	FrequentFixedSOA	1633	n/a	n/a	1
347.9630000000	n/a	347963	FrequentVariableSOA	1766	n/a	n/a	1
349.7300000000	n/a	349730	FrequentVariableSOA	1600	n/a	n/a	1
351.3300000000	n/a	351330	FrequentVariableSOA	1566	n/a	n/a	1
352.8970000000	n/a	352897	GoVariableSOA	408	n/a	n/a	1
354.5470000000	n/a	354547	FrequentVariableSOA	1750	n/a	n/a	1
356.2970000000	n/a	356297	FrequentVariableSOA	1683	n/a	n/a	1
357.9800000000	n/a	357980	FrequentVariableSOA	1583	n/a	n/a	1
359.5630000000	n/a	359563	GoVariableSOA	343	n/a	n/a	1
361.2130000000	n/a	361213	FrequentVariableSOA	1700	n/a	n/a	1
362.9130000000	n/a	362913	FrequentVariableSOA	1500	n/a	n/a	1
364.4130000000	n/a	364413	FrequentVariableSOA	1683	n/a	n/a	1
366.0970000000	n/a	366097	NovelVariableSOA	1666	n/a	n/a	1
367.7630000000	n/a	367763	FrequentVariableSOA	1583	n/a	n/a	1
369.3460000000	n/a	369346	NovelVariableSOA	1750	n/a	n/a	1
371.0960000000	n/a	371096	FrequentVariableSOA	1750	n/a	n/a	1
372.8460000000	n/a	372846	FrequentVariableSOA	1733	n/a	n/a	1
374.5800000000	n/a	374580	NovelVariableSOA	1533	n/a	n/a	1
376.1130000000	n/a	376113	FrequentVariableSOA	1566	n/a	n/a	1
377.6800000000	n/a	377680	FrequentVariableSOA	1716	n/a	n/a	1
379.3960000000	n/a	379396	FrequentVariableSOA	1683	n/a	n/a	1
381.0800000000	n/a	381080	FrequentVariableSOA	1766	n/a	n/a	1
382.8460000000	n/a	382846	FrequentVariableSOA	1783	n/a	n/a	1
384.6300000000	n/a	384630	NovelVariableSOA	1683	n/a	n/a	1
386.3130000000	n/a	386313	FrequentVariableSOA	1750	n/a	n/a	1
388.0630000000	n/a	388063	FrequentVariableSOA	1750	n/a	n/a	1
389.8130000000	n/a	389813	FrequentVariableSOA	1783	n/a	n/a	1
391.5960000000	n/a	391596	FrequentVariableSOA	1783	n/a	n/a	1
393.3800000000	n/a	393380	FrequentVariableSOA	1766	n/a	n/a	1
395.1460000000	n/a	395146	GoVariableSOA	459	n/a	n/a	1
396.7960000000	n/a	396796	FrequentVariableSOA	1683	n/a	n/a	1
398.4800000000	n/a	398480	FrequentVariableSOA	1600	n/a	n/a	1
400.0800000000	n/a	400080	GoVariableSOA	431	n/a	n/a	1
401.8300000000	n/a	401830	FrequentVariableSOA	1600	n/a	n/a	1
403.4300000000	n/a	403430	NovelVariableSOA	1733	n/a	n/a	1
405.1630000000	n/a	405163	FrequentVariableSOA	1666	n/a	n/a	1
406.8300000000	n/a	406830	GoVariableSOA	292	n/a	n/a	1
408.3300000000	n/a	408330	FrequentVariableSOA	1700	n/a	n/a	1
410.0300000000	n/a	410030	GoVariableSOA	397	n/a	n/a	1
411.6300000000	n/a	411630	FrequentVariableSOA	1516	n/a	n/a	1
413.1460000000	n/a	413146	FrequentVariableSOA	1633	n/a	n/a	1
414.7800000000	n/a	414780	FrequentVariableSOA	1666	n/a	n/a	1
416.4460000000	n/a	416446	FrequentVariableSOA	1633	n/a	n/a	1
418.0800000000	n/a	418080	GoVariableSOA	320	n/a	n/a	1
419.7300000000	n/a	419730	FrequentVariableSOA	1683	n/a	n/a	1
421.4130000000	n/a	421413	FrequentVariableSOA	1550	n/a	n/a	1
422.9630000000	n/a	422963	FrequentVariableSOA	1516	n/a	n/a	1
424.4800000000	n/a	424480	NovelVariableSOA	1683	n/a	n/a	1
426.1630000000	n/a	426163	FrequentVariableSOA	1700	n/a	n/a	1
427.8630000000	n/a	427863	FrequentVariableSOA	1766	n/a	n/a	1
429.6300000000	n/a	429630	FrequentVariableSOA	1650	n/a	n/a	1
431.2800000000	n/a	431280	FrequentVariableSOA	1650	n/a	n/a	1
432.9300000000	n/a	432930	NovelVariableSOA	293	n/a	n/a	0
434.4630000000	n/a	434463	FrequentVariableSOA	1633	n/a	n/a	1
436.0960000000	n/a	436096	FrequentVariableSOA	1766	n/a	n/a	1
437.8630000000	n/a	437863	FrequentVariableSOA	1750	n/a	n/a	1
439.6130000000	n/a	439613	FrequentVariableSOA	1666	n/a	n/a	1
441.2800000000	n/a	441280	NovelVariableSOA	1666	n/a	n/a	1
442.9460000000	n/a	442946	FrequentVariableSOA	1800	n/a	n/a	1
444.7460000000	n/a	444746	FrequentVariableSOA	1566	n/a	n/a	1
446.3130000000	n/a	446313	GoVariableSOA	751	n/a	n/a	1
447.9630000000	n/a	447963	FrequentVariableSOA	1616	n/a	n/a	1
449.5800000000	n/a	449580	FrequentVariableSOA	1700	n/a	n/a	1
451.2800000000	n/a	451280	FrequentVariableSOA	1783	n/a	n/a	1
453.0630000000	n/a	453063	FrequentVariableSOA	1783	n/a	n/a	1
454.8460000000	n/a	454846	NovelVariableSOA	1533	n/a	n/a	1
456.3800000000	n/a	456380	FrequentVariableSOA	1516	n/a	n/a	1
457.8960000000	n/a	457896	FrequentVariableSOA	1600	n/a	n/a	1
459.4960000000	n/a	459496	FrequentVariableSOA	1650	n/a	n/a	1
461.1460000000	n/a	461146	FrequentVariableSOA	1516	n/a	n/a	1
462.6630000000	n/a	462663	FrequentVariableSOA	1566	n/a	n/a	1
464.2300000000	n/a	464230	GoFixedSOA	398	n/a	n/a	1
465.8630000000	n/a	465863	FrequentFixedSOA	1633	n/a	n/a	1
467.4960000000	n/a	467496	FrequentFixedSOA	1633	n/a	n/a	1
469.1300000000	n/a	469130	FrequentFixedSOA	1633	n/a	n/a	1
470.7630000000	n/a	470763	FrequentFixedSOA	1633	n/a	n/a	1
472.3960000000	n/a	472396	FrequentFixedSOA	1633	n/a	n/a	1
474.0300000000	n/a	474030	FrequentFixedSOA	1633	n/a	n/a	1
475.6630000000	n/a	475663	NovelFixedSOA	1633	n/a	n/a	1
477.2960000000	n/a	477296	FrequentFixedSOA	1633	n/a	n/a	1
478.9300000000	n/a	478930	FrequentFixedSOA	1633	n/a	n/a	1
480.5630000000	n/a	480563	FrequentFixedSOA	1633	n/a	n/a	1
482.1960000000	n/a	482196	NovelFixedSOA	1633	n/a	n/a	1
483.8300000000	n/a	483830	FrequentFixedSOA	1633	n/a	n/a	1
485.4630000000	n/a	485463	GoFixedSOA	402	n/a	n/a	1
487.0960000000	n/a	487096	FrequentFixedSOA	1633	n/a	n/a	1
488.7300000000	n/a	488730	FrequentFixedSOA	1633	n/a	n/a	1
490.3630000000	n/a	490363	GoFixedSOA	474	n/a	n/a	1
491.9960000000	n/a	491996	FrequentFixedSOA	1633	n/a	n/a	1
493.6300000000	n/a	493630	NovelFixedSOA	1633	n/a	n/a	1
495.2630000000	n/a	495263	FrequentFixedSOA	1633	n/a	n/a	1
496.8960000000	n/a	496896	FrequentFixedSOA	1633	n/a	n/a	1
498.5300000000	n/a	498530	FrequentFixedSOA	1633	n/a	n/a	1
500.1630000000	n/a	500163	FrequentFixedSOA	1633	n/a	n/a	1
501.7960000000	n/a	501796	FrequentFixedSOA	1633	n/a	n/a	1
503.4300000000	n/a	503430	GoFixedSOA	408	n/a	n/a	1
505.0630000000	n/a	505063	FrequentFixedSOA	1633	n/a	n/a	1
506.6960000000	n/a	506696	FrequentFixedSOA	1633	n/a	n/a	1
508.3300000000	n/a	508330	NovelFixedSOA	1633	n/a	n/a	1
509.9630000000	n/a	509963	FrequentFixedSOA	1633	n/a	n/a	1
511.5960000000	n/a	511596	FrequentFixedSOA	1633	n/a	n/a	1
513.2300000000	n/a	513230	FrequentFixedSOA	1633	n/a	n/a	1
514.8630000000	n/a	514863	FrequentFixedSOA	1633	n/a	n/a	1
516.4960000000	n/a	516496	FrequentFixedSOA	1633	n/a	n/a	1
518.1300000000	n/a	518130	NovelFixedSOA	1633	n/a	n/a	1
519.7630000000	n/a	519763	FrequentFixedSOA	1633	n/a	n/a	1
521.3960000000	n/a	521396	FrequentFixedSOA	1633	n/a	n/a	1
523.0300000000	n/a	523030	FrequentFixedSOA	1633	n/a	n/a	1
524.6630000000	n/a	524663	FrequentFixedSOA	1633	n/a	n/a	1
526.2960000000	n/a	526296	GoFixedSOA	487	n/a	n/a	1
527.9300000000	n/a	527930	FrequentFixedSOA	1633	n/a	n/a	1
529.5630000000	n/a	529563	FrequentFixedSOA	1633	n/a	n/a	1
531.1960000000	n/a	531196	NovelFixedSOA	1633	n/a	n/a	1
532.8300000000	n/a	532830	FrequentFixedSOA	1633	n/a	n/a	1
534.4630000000	n/a	534463	FrequentFixedSOA	1633	n/a	n/a	1
536.0960000000	n/a	536096	NovelFixedSOA	1633	n/a	n/a	1
537.7300000000	n/a	537730	FrequentFixedSOA	1633	n/a	n/a	1
539.3630000000	n/a	539363	FrequentFixedSOA	1633	n/a	n/a	1
540.9960000000	n/a	540996	FrequentFixedSOA	1633	n/a	n/a	1
542.6300000000	n/a	542630	FrequentFixedSOA	1633	n/a	n/a	1
544.2630000000	n/a	544263	FrequentFixedSOA	1633	n/a	n/a	1
545.8960000000	n/a	545896	GoFixedSOA	542	n/a	n/a	1
547.5300000000	n/a	547530	FrequentFixedSOA	1633	n/a	n/a	1
549.1630000000	n/a	549163	FrequentFixedSOA	1633	n/a	n/a	1
550.7960000000	n/a	550796	FrequentFixedSOA	1633	n/a	n/a	1
552.4300000000	n/a	552430	FrequentFixedSOA	1633	n/a	n/a	1
554.0630000000	n/a	554063	FrequentFixedSOA	1633	n/a	n/a	1
555.6960000000	n/a	555696	NovelFixedSOA	1633	n/a	n/a	1
557.3300000000	n/a	557330	FrequentFixedSOA	1633	n/a	n/a	1
558.9630000000	n/a	558963	GoFixedSOA	488	n/a	n/a	1
560.5960000000	n/a	560596	FrequentFixedSOA	1633	n/a	n/a	1
562.2290000000	n/a	562229	FrequentFixedSOA	1633	n/a	n/a	1
563.8630000000	n/a	563863	FrequentFixedSOA	1633	n/a	n/a	1
565.4960000000	n/a	565496	FrequentFixedSOA	1633	n/a	n/a	1
567.1290000000	n/a	567129	FrequentFixedSOA	1633	n/a	n/a	1
568.7630000000	n/a	568763	FrequentFixedSOA	1633	n/a	n/a	1
570.3960000000	n/a	570396	FrequentFixedSOA	1633	n/a	n/a	1
572.0290000000	n/a	572029	FrequentFixedSOA	1633	n/a	n/a	1
573.6630000000	n/a	573663	NovelFixedSOA	1633	n/a	n/a	1
575.2960000000	n/a	575296	FrequentFixedSOA	1633	n/a	n/a	1
576.9290000000	n/a	576929	FrequentFixedSOA	1633	n/a	n/a	1
578.5630000000	n/a	578563	GoVariableSOA	334	n/a	n/a	1
580.0960000000	n/a	580096	FrequentVariableSOA	1500	n/a	n/a	1
581.5960000000	n/a	581596	FrequentVariableSOA	1500	n/a	n/a	1
583.0960000000	n/a	583096	FrequentVariableSOA	1600	n/a	n/a	1
584.6960000000	n/a	584696	FrequentVariableSOA	1533	n/a	n/a	1
586.2290000000	n/a	586229	FrequentVariableSOA	1616	n/a	n/a	1
587.8460000000	n/a	587846	FrequentVariableSOA	1633	n/a	n/a	1
589.4790000000	n/a	589479	NovelVariableSOA	1750	n/a	n/a	1
591.2290000000	n/a	591229	FrequentVariableSOA	1600	n/a	n/a	1
592.8290000000	n/a	592829	FrequentVariableSOA	1766	n/a	n/a	1
594.5960000000	n/a	594596	FrequentVariableSOA	1616	n/a	n/a	1
596.2130000000	n/a	596213	NovelVariableSOA	1666	n/a	n/a	1
597.8790000000	n/a	597879	FrequentVariableSOA	1750	n/a	n/a	1
599.6290000000	n/a	599629	GoVariableSOA	385	n/a	n/a	1
601.3130000000	n/a	601313	FrequentVariableSOA	1766	n/a	n/a	1
603.0790000000	n/a	603079	FrequentVariableSOA	1783	n/a	n/a	1
604.8630000000	n/a	604863	GoVariableSOA	369	n/a	n/a	1
606.6290000000	n/a	606629	FrequentVariableSOA	1600	n/a	n/a	1
608.2290000000	n/a	608229	NovelVariableSOA	1766	n/a	n/a	1
609.9960000000	n/a	609996	FrequentVariableSOA	1566	n/a	n/a	1
611.5630000000	n/a	611563	FrequentVariableSOA	1600	n/a	n/a	1
613.1630000000	n/a	613163	FrequentVariableSOA	1716	n/a	n/a	1
614.8790000000	n/a	614879	FrequentVariableSOA	1733	n/a	n/a	1
616.6130000000	n/a	616613	FrequentVariableSOA	1550	n/a	n/a	1
618.1630000000	n/a	618163	GoVariableSOA	413	n/a	n/a	1
619.8790000000	n/a	619879	FrequentVariableSOA	1800	n/a	n/a	1
621.6790000000	n/a	621679	FrequentVariableSOA	1650	n/a	n/a	1
623.3290000000	n/a	623329	NovelVariableSOA	1650	n/a	n/a	1
624.9790000000	n/a	624979	FrequentVariableSOA	1783	n/a	n/a	1
626.7630000000	n/a	626763	FrequentVariableSOA	1583	n/a	n/a	1
628.3460000000	n/a	628346	FrequentVariableSOA	1583	n/a	n/a	1
629.9290000000	n/a	629929	FrequentVariableSOA	1650	n/a	n/a	1
631.5790000000	n/a	631579	FrequentVariableSOA	1516	n/a	n/a	1
633.0960000000	n/a	633096	NovelVariableSOA	1783	n/a	n/a	1
634.8790000000	n/a	634879	FrequentVariableSOA	1783	n/a	n/a	1
636.6630000000	n/a	636663	FrequentVariableSOA	1516	n/a	n/a	1
638.1790000000	n/a	638179	FrequentVariableSOA	1583	n/a	n/a	1
639.7630000000	n/a	639763	FrequentVariableSOA	1516	n/a	n/a	1
641.2790000000	n/a	641279	GoVariableSOA	475	n/a	n/a	1
642.8460000000	n/a	642846	FrequentVariableSOA	1583	n/a	n/a	1
644.4290000000	n/a	644429	FrequentVariableSOA	1500	n/a	n/a	1
645.9290000000	n/a	645929	NovelVariableSOA	1666	n/a	n/a	1
647.5960000000	n/a	647596	FrequentVariableSOA	1650	n/a	n/a	1
649.2460000000	n/a	649246	FrequentVariableSOA	1583	n/a	n/a	1
650.8290000000	n/a	650829	NovelVariableSOA	1516	n/a	n/a	1
652.3460000000	n/a	652346	FrequentVariableSOA	1583	n/a	n/a	1
653.9290000000	n/a	653929	FrequentVariableSOA	1583	n/a	n/a	1
655.5130000000	n/a	655513	FrequentVariableSOA	1616	n/a	n/a	1
657.1290000000	n/a	657129	FrequentVariableSOA	1683	n/a	n/a	1
658.8130000000	n/a	658813	FrequentVariableSOA	1516	n/a	n/a	1
660.3290000000	n/a	660329	GoVariableSOA	452	n/a	n/a	1
662.0630000000	n/a	662063	FrequentVariableSOA	1616	n/a	n/a	1
663.6790000000	n/a	663679	FrequentVariableSOA	1700	n/a	n/a	1
665.3790000000	n/a	665379	FrequentVariableSOA	1766	n/a	n/a	1
667.1460000000	n/a	667146	FrequentVariableSOA	1800	n/a	n/a	1
668.9460000000	n/a	668946	FrequentVariableSOA	1633	n/a	n/a	1
670.5790000000	n/a	670579	NovelVariableSOA	1633	n/a	n/a	1
672.2130000000	n/a	672213	FrequentVariableSOA	1666	n/a	n/a	1
673.8790000000	n/a	673879	GoVariableSOA	485	n/a	n/a	1
675.6290000000	n/a	675629	FrequentVariableSOA	1733	n/a	n/a	1
677.3630000000	n/a	677363	FrequentVariableSOA	1766	n/a	n/a	1
679.1290000000	n/a	679129	FrequentVariableSOA	1533	n/a	n/a	1
680.6630000000	n/a	680663	FrequentVariableSOA	1516	n/a	n/a	1
682.1790000000	n/a	682179	FrequentVariableSOA	1566	n/a	n/a	1
683.7460000000	n/a	683746	FrequentVariableSOA	1766	n/a	n/a	1
685.5130000000	n/a	685513	FrequentVariableSOA	1533	n/a	n/a	1
687.0460000000	n/a	687046	FrequentVariableSOA	1533	n/a	n/a	1
688.5790000000	n/a	688579	NovelVariableSOA	1650	n/a	n/a	1
690.2290000000	n/a	690229	FrequentVariableSOA	1750	n/a	n/a	1
691.9790000000	n/a	691979	FrequentVariableSOA	1550	n/a	n/a	1
693.5290000000	n/a	693529	GoFixedSOA	409	n/a	n/a	1
695.1630000000	n/a	695163	FrequentFixedSOA	1633	n/a	n/a	1
696.7960000000	n/a	696796	FrequentFixedSOA	1633	n/a	n/a	1
698.4290000000	n/a	698429	FrequentFixedSOA	1633	n/a	n/a	1
700.0630000000	n/a	700063	GoFixedSOA	496	n/a	n/a	1
701.6960000000	n/a	701696	FrequentFixedSOA	1633	n/a	n/a	1
703.3290000000	n/a	703329	FrequentFixedSOA	1633	n/a	n/a	1
704.9630000000	n/a	704963	FrequentFixedSOA	1633	n/a	n/a	1
706.5960000000	n/a	706596	FrequentFixedSOA	1633	n/a	n/a	1
708.2290000000	n/a	708229	GoFixedSOA	1633	n/a	n/a	0
709.8630000000	n/a	709863	FrequentFixedSOA	1633	n/a	n/a	1
711.4960000000	n/a	711496	FrequentFixedSOA	1633	n/a	n/a	1
713.1290000000	n/a	713129	NovelFixedSOA	1633	n/a	n/a	1
714.7630000000	n/a	714763	FrequentFixedSOA	1633	n/a	n/a	1
716.3960000000	n/a	716396	FrequentFixedSOA	1633	n/a	n/a	1
718.0290000000	n/a	718029	GoFixedSOA	305	n/a	n/a	1
719.6630000000	n/a	719663	FrequentFixedSOA	1633	n/a	n/a	1
721.2960000000	n/a	721296	FrequentFixedSOA	1633	n/a	n/a	1
722.9290000000	n/a	722929	FrequentFixedSOA	1633	n/a	n/a	1
724.5630000000	n/a	724563	NovelFixedSOA	1633	n/a	n/a	1
726.1960000000	n/a	726196	FrequentFixedSOA	1633	n/a	n/a	1
727.8290000000	n/a	727829	NovelFixedSOA	1633	n/a	n/a	1
729.4630000000	n/a	729463	FrequentFixedSOA	1633	n/a	n/a	1
731.0960000000	n/a	731096	FrequentFixedSOA	1633	n/a	n/a	1
732.7290000000	n/a	732729	FrequentFixedSOA	1633	n/a	n/a	1
734.3630000000	n/a	734363	GoFixedSOA	288	n/a	n/a	1
735.9960000000	n/a	735996	FrequentFixedSOA	1633	n/a	n/a	1
737.6290000000	n/a	737629	FrequentFixedSOA	1633	n/a	n/a	1
739.2630000000	n/a	739263	FrequentFixedSOA	1633	n/a	n/a	1
740.8960000000	n/a	740896	GoFixedSOA	356	n/a	n/a	1
742.5290000000	n/a	742529	FrequentFixedSOA	1633	n/a	n/a	1
744.1630000000	n/a	744163	FrequentFixedSOA	1633	n/a	n/a	1
745.7960000000	n/a	745796	NovelFixedSOA	1633	n/a	n/a	1
747.4290000000	n/a	747429	FrequentFixedSOA	1633	n/a	n/a	1
749.0630000000	n/a	749063	GoFixedSOA	376	n/a	n/a	1
750.6960000000	n/a	750696	FrequentFixedSOA	1633	n/a	n/a	1
752.3290000000	n/a	752329	FrequentFixedSOA	1633	n/a	n/a	1
753.9630000000	n/a	753963	FrequentFixedSOA	1633	n/a	n/a	1
755.5960000000	n/a	755596	FrequentFixedSOA	1633	n/a	n/a	1
757.2290000000	n/a	757229	FrequentFixedSOA	1633	n/a	n/a	1
758.8630000000	n/a	758863	FrequentFixedSOA	1633	n/a	n/a	1
760.4960000000	n/a	760496	NovelFixedSOA	1633	n/a	n/a	1
762.1290000000	n/a	762129	FrequentFixedSOA	1633	n/a	n/a	1
763.7620000000	n/a	763762	FrequentFixedSOA	1633	n/a	n/a	1
765.3960000000	n/a	765396	FrequentFixedSOA	1633	n/a	n/a	1
767.0290000000	n/a	767029	GoFixedSOA	375	n/a	n/a	1
768.6620000000	n/a	768662	FrequentFixedSOA	1633	n/a	n/a	1
770.2960000000	n/a	770296	FrequentFixedSOA	1633	n/a	n/a	1
771.9290000000	n/a	771929	FrequentFixedSOA	1633	n/a	n/a	1
773.5620000000	n/a	773562	FrequentFixedSOA	1633	n/a	n/a	1
775.1960000000	n/a	775196	NovelFixedSOA	1633	n/a	n/a	1
776.8290000000	n/a	776829	FrequentFixedSOA	1633	n/a	n/a	1
778.4620000000	n/a	778462	FrequentFixedSOA	1633	n/a	n/a	1
780.0960000000	n/a	780096	NovelFixedSOA	1633	n/a	n/a	1
781.7290000000	n/a	781729	FrequentFixedSOA	1633	n/a	n/a	1
783.3620000000	n/a	783362	NovelFixedSOA	1633	n/a	n/a	1
784.9960000000	n/a	784996	FrequentFixedSOA	1633	n/a	n/a	1
786.6290000000	n/a	786629	FrequentFixedSOA	1633	n/a	n/a	1
788.2620000000	n/a	788262	FrequentFixedSOA	1633	n/a	n/a	1
789.8960000000	n/a	789896	FrequentFixedSOA	1633	n/a	n/a	1
791.5290000000	n/a	791529	FrequentFixedSOA	1633	n/a	n/a	1
793.1620000000	n/a	793162	FrequentFixedSOA	1633	n/a	n/a	1
794.7960000000	n/a	794796	FrequentFixedSOA	1633	n/a	n/a	1
796.4290000000	n/a	796429	GoFixedSOA	458	n/a	n/a	1
798.0620000000	n/a	798062	FrequentFixedSOA	1633	n/a	n/a	1
799.6960000000	n/a	799696	GoFixedSOA	390	n/a	n/a	1
801.3290000000	n/a	801329	FrequentFixedSOA	1633	n/a	n/a	1
802.9620000000	n/a	802962	FrequentFixedSOA	1633	n/a	n/a	1
804.5960000000	n/a	804596	NovelFixedSOA	1633	n/a	n/a	1
806.2290000000	n/a	806229	FrequentFixedSOA	1633	n/a	n/a	1
807.8620000000	n/a	807862	GoVariableSOA	356	n/a	n/a	1
809.6460000000	n/a	809646	FrequentVariableSOA	1550	n/a	n/a	1
811.1960000000	n/a	811196	FrequentVariableSOA	1616	n/a	n/a	1
812.8120000000	n/a	812812	FrequentVariableSOA	1766	n/a	n/a	1
814.5790000000	n/a	814579	GoVariableSOA	261	n/a	n/a	1
816.3120000000	n/a	816312	FrequentVariableSOA	1783	n/a	n/a	1
818.0960000000	n/a	818096	FrequentVariableSOA	1733	n/a	n/a	1
819.8290000000	n/a	819829	FrequentVariableSOA	1683	n/a	n/a	1
821.5120000000	n/a	821512	FrequentVariableSOA	1800	n/a	n/a	1
823.3120000000	n/a	823312	GoVariableSOA	371	n/a	n/a	1
824.8460000000	n/a	824846	FrequentVariableSOA	1650	n/a	n/a	1
826.4960000000	n/a	826496	FrequentVariableSOA	1650	n/a	n/a	1
828.1460000000	n/a	828146	NovelVariableSOA	1766	n/a	n/a	1
829.9120000000	n/a	829912	FrequentVariableSOA	1600	n/a	n/a	1
831.5120000000	n/a	831512	FrequentVariableSOA	1683	n/a	n/a	1
833.1960000000	n/a	833196	GoVariableSOA	356	n/a	n/a	1
834.9620000000	n/a	834962	FrequentVariableSOA	1683	n/a	n/a	1
836.6460000000	n/a	836646	FrequentVariableSOA	1750	n/a	n/a	1
838.3960000000	n/a	838396	FrequentVariableSOA	1700	n/a	n/a	1
840.0960000000	n/a	840096	NovelVariableSOA	1600	n/a	n/a	1
841.6960000000	n/a	841696	FrequentVariableSOA	1550	n/a	n/a	1
843.2460000000	n/a	843246	NovelVariableSOA	1700	n/a	n/a	1
844.9460000000	n/a	844946	FrequentVariableSOA	1733	n/a	n/a	1
846.6790000000	n/a	846679	FrequentVariableSOA	1650	n/a	n/a	1
848.3290000000	n/a	848329	FrequentVariableSOA	1683	n/a	n/a	1
850.0120000000	n/a	850012	GoVariableSOA	418	n/a	n/a	1
851.5960000000	n/a	851596	FrequentVariableSOA	1666	n/a	n/a	1
853.2620000000	n/a	853262	FrequentVariableSOA	1566	n/a	n/a	1
854.8290000000	n/a	854829	FrequentVariableSOA	1583	n/a	n/a	1
856.4120000000	n/a	856412	GoVariableSOA	461	n/a	n/a	1
858.1290000000	n/a	858129	FrequentVariableSOA	1733	n/a	n/a	1
859.8620000000	n/a	859862	FrequentVariableSOA	1750	n/a	n/a	1
861.6120000000	n/a	861612	NovelVariableSOA	1633	n/a	n/a	1
863.2460000000	n/a	863246	FrequentVariableSOA	1566	n/a	n/a	1
864.8120000000	n/a	864812	GoVariableSOA	307	n/a	n/a	1
866.5290000000	n/a	866529	FrequentVariableSOA	1516	n/a	n/a	1
868.0460000000	n/a	868046	FrequentVariableSOA	1750	n/a	n/a	1
869.7960000000	n/a	869796	FrequentVariableSOA	1533	n/a	n/a	1
871.3290000000	n/a	871329	FrequentVariableSOA	1716	n/a	n/a	1
873.0460000000	n/a	873046	FrequentVariableSOA	1766	n/a	n/a	1
874.8120000000	n/a	874812	FrequentVariableSOA	1783	n/a	n/a	1
876.5960000000	n/a	876596	NovelVariableSOA	1733	n/a	n/a	1
878.3290000000	n/a	878329	FrequentVariableSOA	1700	n/a	n/a	1
880.0290000000	n/a	880029	FrequentVariableSOA	1650	n/a	n/a	1
881.6790000000	n/a	881679	FrequentVariableSOA	1800	n/a	n/a	1
883.4790000000	n/a	883479	GoVariableSOA	453	n/a	n/a	1
885.0790000000	n/a	885079	FrequentVariableSOA	1750	n/a	n/a	1
886.8290000000	n/a	886829	FrequentVariableSOA	1516	n/a	n/a	1
888.3460000000	n/a	888346	FrequentVariableSOA	1733	n/a	n/a	1
890.0790000000	n/a	890079	FrequentVariableSOA	1583	n/a	n/a	1
891.6620000000	n/a	891662	NovelVariableSOA	1666	n/a	n/a	1
893.3290000000	n/a	893329	FrequentVariableSOA	1550	n/a	n/a	1
894.8790000000	n/a	894879	FrequentVariableSOA	1666	n/a	n/a	1
896.5460000000	n/a	896546	NovelVariableSOA	1616	n/a	n/a	1
898.1620000000	n/a	898162	FrequentVariableSOA	1616	n/a	n/a	1
899.7790000000	n/a	899779	NovelVariableSOA	1566	n/a	n/a	1
901.3460000000	n/a	901346	FrequentVariableSOA	1633	n/a	n/a	1
902.9790000000	n/a	902979	FrequentVariableSOA	1550	n/a	n/a	1
904.5290000000	n/a	904529	FrequentVariableSOA	1616	n/a	n/a	1
906.1460000000	n/a	906146	FrequentVariableSOA	1583	n/a	n/a	1
907.7290000000	n/a	907729	FrequentVariableSOA	1533	n/a	n/a	1
909.2620000000	n/a	909262	FrequentVariableSOA	1516	n/a	n/a	1
910.7790000000	n/a	910779	FrequentVariableSOA	1600	n/a	n/a	1
912.3790000000	n/a	912379	GoVariableSOA	408	n/a	n/a	1
914.0790000000	n/a	914079	FrequentVariableSOA	1500	n/a	n/a	1
915.5790000000	n/a	915579	GoVariableSOA	406	n/a	n/a	1
917.3120000000	n/a	917312	FrequentVariableSOA	1516	n/a	n/a	1
918.8290000000	n/a	918829	FrequentVariableSOA	1600	n/a	n/a	1
920.4290000000	n/a	920429	NovelVariableSOA	1566	n/a	n/a	1
921.9960000000	n/a	921996	FrequentVariableSOA	1633	n/a	n/a	1
