onset	duration	sample	trial_type	response_time	stim_file	value	correct
4.6710000000	n/a	4671	FrequentFixedSOA	1633	n/a	n/a	1
6.3040000000	n/a	6304	FrequentFixedSOA	1633	n/a	n/a	1
7.9370000000	n/a	7937	FrequentFixedSOA	1633	n/a	n/a	1
9.5700000000	n/a	9570	FrequentFixedSOA	1633	n/a	n/a	1
11.2040000000	n/a	11204	FrequentFixedSOA	1633	n/a	n/a	1
12.8370000000	n/a	12837	FrequentFixedSOA	1633	n/a	n/a	1
14.4700000000	n/a	14470	FrequentFixedSOA	1633	n/a	n/a	1
16.1040000000	n/a	16104	FrequentFixedSOA	1633	n/a	n/a	1
17.7370000000	n/a	17737	FrequentFixedSOA	1633	n/a	n/a	1
19.3700000000	n/a	19370	FrequentFixedSOA	1633	n/a	n/a	1
21.0040000000	n/a	21004	NovelFixedSOA	1633	n/a	n/a	1
22.6370000000	n/a	22637	FrequentFixedSOA	1633	n/a	n/a	1
24.2700000000	n/a	24270	GoFixedSOA	566	n/a	n/a	1
25.9040000000	n/a	25904	FrequentFixedSOA	1633	n/a	n/a	1
27.5370000000	n/a	27537	FrequentFixedSOA	1633	n/a	n/a	1
29.1700000000	n/a	29170	FrequentFixedSOA	1633	n/a	n/a	1
30.8040000000	n/a	30804	GoFixedSOA	409	n/a	n/a	1
32.4370000000	n/a	32437	FrequentFixedSOA	1633	n/a	n/a	1
34.0700000000	n/a	34070	FrequentFixedSOA	1633	n/a	n/a	1
35.7040000000	n/a	35704	FrequentFixedSOA	1633	n/a	n/a	1
37.3370000000	n/a	37337	NovelFixedSOA	1633	n/a	n/a	1
38.9700000000	n/a	38970	FrequentFixedSOA	1633	n/a	n/a	1
40.6040000000	n/a	40604	FrequentFixedSOA	1633	n/a	n/a	1
42.2370000000	n/a	42237	FrequentFixedSOA	1633	n/a	n/a	1
43.8700000000	n/a	43870	GoFixedSOA	435	n/a	n/a	1
45.5040000000	n/a	45504	FrequentFixedSOA	1633	n/a	n/a	1
47.1370000000	n/a	47137	NovelFixedSOA	1633	n/a	n/a	1
48.7700000000	n/a	48770	FrequentFixedSOA	1633	n/a	n/a	1
50.4040000000	n/a	50404	FrequentFixedSOA	1633	n/a	n/a	1
52.0370000000	n/a	52037	FrequentFixedSOA	1633	n/a	n/a	1
53.6700000000	n/a	53670	GoFixedSOA	411	n/a	n/a	1
55.3040000000	n/a	55304	FrequentFixedSOA	1633	n/a	n/a	1
56.9370000000	n/a	56937	GoFixedSOA	464	n/a	n/a	1
58.5700000000	n/a	58570	FrequentFixedSOA	1633	n/a	n/a	1
60.2040000000	n/a	60204	FrequentFixedSOA	1633	n/a	n/a	1
61.8370000000	n/a	61837	GoFixedSOA	411	n/a	n/a	1
63.4700000000	n/a	63470	FrequentFixedSOA	1633	n/a	n/a	1
65.1040000000	n/a	65104	FrequentFixedSOA	1633	n/a	n/a	1
66.7370000000	n/a	66737	FrequentFixedSOA	1633	n/a	n/a	1
68.3700000000	n/a	68370	FrequentFixedSOA	1633	n/a	n/a	1
70.0040000000	n/a	70004	NovelFixedSOA	1633	n/a	n/a	1
71.6370000000	n/a	71637	FrequentFixedSOA	1633	n/a	n/a	1
73.2700000000	n/a	73270	NovelFixedSOA	1633	n/a	n/a	1
74.9040000000	n/a	74904	FrequentFixedSOA	1633	n/a	n/a	1
76.5370000000	n/a	76537	FrequentFixedSOA	1633	n/a	n/a	1
78.1700000000	n/a	78170	GoFixedSOA	304	n/a	n/a	1
79.8040000000	n/a	79804	FrequentFixedSOA	1633	n/a	n/a	1
81.4370000000	n/a	81437	FrequentFixedSOA	1633	n/a	n/a	1
83.0700000000	n/a	83070	FrequentFixedSOA	1633	n/a	n/a	1
84.7040000000	n/a	84704	FrequentFixedSOA	1633	n/a	n/a	1
86.3370000000	n/a	86337	NovelFixedSOA	1633	n/a	n/a	1
87.9700000000	n/a	87970	FrequentFixedSOA	1633	n/a	n/a	1
89.6040000000	n/a	89604	FrequentFixedSOA	1633	n/a	n/a	1
91.2370000000	n/a	91237	FrequentFixedSOA	1633	n/a	n/a	1
92.8700000000	n/a	92870	FrequentFixedSOA	1633	n/a	n/a	1
94.5040000000	n/a	94504	GoFixedSOA	514	n/a	n/a	1
96.1370000000	n/a	96137	FrequentFixedSOA	1633	n/a	n/a	1
97.7700000000	n/a	97770	FrequentFixedSOA	1633	n/a	n/a	1
99.4040000000	n/a	99404	NovelFixedSOA	1633	n/a	n/a	1
101.0370000000	n/a	101037	FrequentFixedSOA	1633	n/a	n/a	1
102.6700000000	n/a	102670	FrequentFixedSOA	1633	n/a	n/a	1
104.3040000000	n/a	104304	GoFixedSOA	331	n/a	n/a	1
105.9370000000	n/a	105937	FrequentFixedSOA	1633	n/a	n/a	1
107.5700000000	n/a	107570	FrequentFixedSOA	1633	n/a	n/a	1
109.2040000000	n/a	109204	FrequentFixedSOA	1633	n/a	n/a	1
110.8370000000	n/a	110837	FrequentFixedSOA	1633	n/a	n/a	1
112.4700000000	n/a	112470	NovelFixedSOA	1633	n/a	n/a	1
114.1040000000	n/a	114104	FrequentFixedSOA	1633	n/a	n/a	1
115.7370000000	n/a	115737	FrequentFixedSOA	1633	n/a	n/a	1
117.3700000000	n/a	117370	GoFixedSOA	357	n/a	n/a	1
119.0040000000	n/a	119004	FrequentVariableSOA	1616	n/a	n/a	1
120.6200000000	n/a	120620	FrequentVariableSOA	1666	n/a	n/a	1
122.2870000000	n/a	122287	FrequentVariableSOA	1533	n/a	n/a	1
123.8200000000	n/a	123820	FrequentVariableSOA	1616	n/a	n/a	1
125.4370000000	n/a	125437	FrequentVariableSOA	1583	n/a	n/a	1
127.0200000000	n/a	127020	FrequentVariableSOA	1666	n/a	n/a	1
128.6870000000	n/a	128687	FrequentVariableSOA	1666	n/a	n/a	1
130.3540000000	n/a	130354	FrequentVariableSOA	1766	n/a	n/a	1
132.1200000000	n/a	132120	FrequentVariableSOA	1650	n/a	n/a	1
133.7700000000	n/a	133770	FrequentVariableSOA	1800	n/a	n/a	1
135.5700000000	n/a	135570	NovelVariableSOA	1666	n/a	n/a	1
137.2370000000	n/a	137237	FrequentVariableSOA	1733	n/a	n/a	1
138.9700000000	n/a	138970	GoVariableSOA	470	n/a	n/a	1
140.4870000000	n/a	140487	FrequentVariableSOA	1616	n/a	n/a	1
142.1040000000	n/a	142104	FrequentVariableSOA	1550	n/a	n/a	1
143.6530000000	n/a	143653	FrequentVariableSOA	1583	n/a	n/a	1
145.2370000000	n/a	145237	GoVariableSOA	531	n/a	n/a	1
146.9700000000	n/a	146970	FrequentVariableSOA	1750	n/a	n/a	1
148.7200000000	n/a	148720	FrequentVariableSOA	1616	n/a	n/a	1
150.3370000000	n/a	150337	FrequentVariableSOA	1766	n/a	n/a	1
152.1030000000	n/a	152103	NovelVariableSOA	1616	n/a	n/a	1
153.7200000000	n/a	153720	FrequentVariableSOA	1800	n/a	n/a	1
155.5200000000	n/a	155520	FrequentVariableSOA	1650	n/a	n/a	1
157.1700000000	n/a	157170	FrequentVariableSOA	1733	n/a	n/a	1
158.9030000000	n/a	158903	GoVariableSOA	385	n/a	n/a	1
160.5370000000	n/a	160537	FrequentVariableSOA	1650	n/a	n/a	1
162.1870000000	n/a	162187	NovelVariableSOA	1683	n/a	n/a	1
163.8700000000	n/a	163870	FrequentVariableSOA	1766	n/a	n/a	1
165.6370000000	n/a	165637	FrequentVariableSOA	1750	n/a	n/a	1
167.3870000000	n/a	167387	FrequentVariableSOA	1700	n/a	n/a	1
169.0870000000	n/a	169087	GoVariableSOA	369	n/a	n/a	1
170.8370000000	n/a	170837	FrequentVariableSOA	1533	n/a	n/a	1
172.3700000000	n/a	172370	GoVariableSOA	413	n/a	n/a	1
174.1200000000	n/a	174120	FrequentVariableSOA	1616	n/a	n/a	1
175.7370000000	n/a	175737	FrequentVariableSOA	1733	n/a	n/a	1
177.4700000000	n/a	177470	GoVariableSOA	412	n/a	n/a	1
179.0370000000	n/a	179037	FrequentVariableSOA	1683	n/a	n/a	1
180.7200000000	n/a	180720	FrequentVariableSOA	1700	n/a	n/a	1
182.4200000000	n/a	182420	FrequentVariableSOA	1550	n/a	n/a	1
183.9700000000	n/a	183970	FrequentVariableSOA	1550	n/a	n/a	1
185.5200000000	n/a	185520	NovelVariableSOA	1516	n/a	n/a	1
187.0370000000	n/a	187037	FrequentVariableSOA	1750	n/a	n/a	1
188.7870000000	n/a	188787	NovelVariableSOA	1700	n/a	n/a	1
190.4870000000	n/a	190487	FrequentVariableSOA	1566	n/a	n/a	1
192.0530000000	n/a	192053	FrequentVariableSOA	1583	n/a	n/a	1
193.6370000000	n/a	193637	GoVariableSOA	390	n/a	n/a	1
195.2530000000	n/a	195253	FrequentVariableSOA	1700	n/a	n/a	1
196.9530000000	n/a	196953	FrequentVariableSOA	1616	n/a	n/a	1
198.5700000000	n/a	198570	FrequentVariableSOA	1716	n/a	n/a	1
200.2870000000	n/a	200287	FrequentVariableSOA	1650	n/a	n/a	1
201.9370000000	n/a	201937	NovelVariableSOA	1633	n/a	n/a	1
203.5700000000	n/a	203570	FrequentVariableSOA	1750	n/a	n/a	1
205.3200000000	n/a	205320	FrequentVariableSOA	1716	n/a	n/a	1
207.0370000000	n/a	207037	FrequentVariableSOA	1550	n/a	n/a	1
208.5870000000	n/a	208587	FrequentVariableSOA	1566	n/a	n/a	1
210.1530000000	n/a	210153	GoVariableSOA	373	n/a	n/a	1
211.7530000000	n/a	211753	FrequentVariableSOA	1516	n/a	n/a	1
213.2700000000	n/a	213270	FrequentVariableSOA	1650	n/a	n/a	1
214.9200000000	n/a	214920	NovelVariableSOA	1633	n/a	n/a	1
216.5530000000	n/a	216553	FrequentVariableSOA	1666	n/a	n/a	1
218.2200000000	n/a	218220	FrequentVariableSOA	1566	n/a	n/a	1
219.7870000000	n/a	219787	GoVariableSOA	522	n/a	n/a	1
221.5370000000	n/a	221537	FrequentVariableSOA	1500	n/a	n/a	1
223.0370000000	n/a	223037	FrequentVariableSOA	1666	n/a	n/a	1
224.7030000000	n/a	224703	FrequentVariableSOA	1750	n/a	n/a	1
226.4530000000	n/a	226453	FrequentVariableSOA	1566	n/a	n/a	1
228.0200000000	n/a	228020	NovelVariableSOA	1783	n/a	n/a	1
229.8030000000	n/a	229803	FrequentVariableSOA	1633	n/a	n/a	1
231.4370000000	n/a	231437	FrequentVariableSOA	1600	n/a	n/a	1
233.0370000000	n/a	233037	GoVariableSOA	533	n/a	n/a	1
234.7370000000	n/a	234737	FrequentFixedSOA	1633	n/a	n/a	1
236.3700000000	n/a	236370	FrequentFixedSOA	1633	n/a	n/a	1
238.0030000000	n/a	238003	FrequentFixedSOA	1633	n/a	n/a	1
239.6370000000	n/a	239637	GoFixedSOA	421	n/a	n/a	1
241.2700000000	n/a	241270	FrequentFixedSOA	1633	n/a	n/a	1
242.9030000000	n/a	242903	FrequentFixedSOA	1633	n/a	n/a	1
244.5370000000	n/a	244537	FrequentFixedSOA	1633	n/a	n/a	1
246.1700000000	n/a	246170	GoFixedSOA	420	n/a	n/a	1
247.8030000000	n/a	247803	FrequentFixedSOA	1633	n/a	n/a	1
249.4370000000	n/a	249437	FrequentFixedSOA	1633	n/a	n/a	1
251.0700000000	n/a	251070	FrequentFixedSOA	1633	n/a	n/a	1
252.7030000000	n/a	252703	NovelFixedSOA	1633	n/a	n/a	1
254.3370000000	n/a	254337	FrequentFixedSOA	1633	n/a	n/a	1
255.9700000000	n/a	255970	NovelFixedSOA	1633	n/a	n/a	1
257.6030000000	n/a	257603	FrequentFixedSOA	1633	n/a	n/a	1
259.2370000000	n/a	259237	FrequentFixedSOA	1633	n/a	n/a	1
260.8700000000	n/a	260870	NovelFixedSOA	1633	n/a	n/a	1
262.5030000000	n/a	262503	FrequentFixedSOA	1633	n/a	n/a	1
264.1370000000	n/a	264137	FrequentFixedSOA	1633	n/a	n/a	1
265.7700000000	n/a	265770	FrequentFixedSOA	1633	n/a	n/a	1
267.4030000000	n/a	267403	FrequentFixedSOA	1633	n/a	n/a	1
269.0370000000	n/a	269037	FrequentFixedSOA	1633	n/a	n/a	1
270.6700000000	n/a	270670	NovelFixedSOA	1633	n/a	n/a	1
272.3030000000	n/a	272303	FrequentFixedSOA	1633	n/a	n/a	1
273.9370000000	n/a	273937	FrequentFixedSOA	1633	n/a	n/a	1
275.5700000000	n/a	275570	FrequentFixedSOA	1633	n/a	n/a	1
277.2030000000	n/a	277203	FrequentFixedSOA	1633	n/a	n/a	1
278.8370000000	n/a	278837	FrequentFixedSOA	1633	n/a	n/a	1
280.4700000000	n/a	280470	GoFixedSOA	401	n/a	n/a	1
282.1030000000	n/a	282103	FrequentFixedSOA	1633	n/a	n/a	1
283.7370000000	n/a	283737	FrequentFixedSOA	1633	n/a	n/a	1
285.3700000000	n/a	285370	GoFixedSOA	444	n/a	n/a	1
287.0030000000	n/a	287003	FrequentFixedSOA	1633	n/a	n/a	1
288.6370000000	n/a	288637	NovelFixedSOA	1633	n/a	n/a	1
290.2700000000	n/a	290270	FrequentFixedSOA	1633	n/a	n/a	1
291.9030000000	n/a	291903	GoFixedSOA	391	n/a	n/a	1
293.5370000000	n/a	293537	FrequentFixedSOA	1633	n/a	n/a	1
295.1700000000	n/a	295170	GoFixedSOA	438	n/a	n/a	1
296.8030000000	n/a	296803	FrequentFixedSOA	1633	n/a	n/a	1
298.4370000000	n/a	298437	FrequentFixedSOA	1633	n/a	n/a	1
300.0700000000	n/a	300070	FrequentFixedSOA	1633	n/a	n/a	1
301.7030000000	n/a	301703	FrequentFixedSOA	1633	n/a	n/a	1
303.3370000000	n/a	303337	GoFixedSOA	413	n/a	n/a	1
304.9700000000	n/a	304970	FrequentFixedSOA	1633	n/a	n/a	1
306.6030000000	n/a	306603	FrequentFixedSOA	1633	n/a	n/a	1
308.2370000000	n/a	308237	FrequentFixedSOA	1633	n/a	n/a	1
309.8700000000	n/a	309870	NovelFixedSOA	1633	n/a	n/a	1
311.5030000000	n/a	311503	FrequentFixedSOA	1633	n/a	n/a	1
313.1370000000	n/a	313137	FrequentFixedSOA	1633	n/a	n/a	1
314.7700000000	n/a	314770	FrequentFixedSOA	1633	n/a	n/a	1
316.4030000000	n/a	316403	FrequentFixedSOA	1633	n/a	n/a	1
318.0370000000	n/a	318037	NovelFixedSOA	1633	n/a	n/a	1
319.6700000000	n/a	319670	FrequentFixedSOA	1633	n/a	n/a	1
321.3030000000	n/a	321303	FrequentFixedSOA	1633	n/a	n/a	1
322.9370000000	n/a	322937	FrequentFixedSOA	1633	n/a	n/a	1
324.5700000000	n/a	324570	FrequentFixedSOA	1633	n/a	n/a	1
326.2030000000	n/a	326203	NovelFixedSOA	1633	n/a	n/a	1
327.8370000000	n/a	327837	FrequentFixedSOA	1633	n/a	n/a	1
329.4700000000	n/a	329470	FrequentFixedSOA	1633	n/a	n/a	1
331.1030000000	n/a	331103	GoFixedSOA	303	n/a	n/a	1
332.7370000000	n/a	332737	FrequentFixedSOA	1633	n/a	n/a	1
334.3700000000	n/a	334370	FrequentFixedSOA	1633	n/a	n/a	1
336.0030000000	n/a	336003	FrequentFixedSOA	1633	n/a	n/a	1
337.6370000000	n/a	337637	FrequentFixedSOA	1633	n/a	n/a	1
339.2700000000	n/a	339270	NovelFixedSOA	1633	n/a	n/a	1
340.9030000000	n/a	340903	FrequentFixedSOA	1633	n/a	n/a	1
342.5370000000	n/a	342537	FrequentFixedSOA	1633	n/a	n/a	1
344.1700000000	n/a	344170	FrequentFixedSOA	1633	n/a	n/a	1
345.8030000000	n/a	345803	FrequentFixedSOA	1633	n/a	n/a	1
347.4370000000	n/a	347437	FrequentFixedSOA	1633	n/a	n/a	1
349.0700000000	n/a	349070	FrequentVariableSOA	1633	n/a	n/a	1
350.7030000000	n/a	350703	FrequentVariableSOA	1516	n/a	n/a	1
352.2200000000	n/a	352220	FrequentVariableSOA	1733	n/a	n/a	1
353.9530000000	n/a	353953	GoVariableSOA	280	n/a	n/a	1
355.6530000000	n/a	355653	FrequentVariableSOA	1766	n/a	n/a	1
357.4200000000	n/a	357420	FrequentVariableSOA	1650	n/a	n/a	1
359.0700000000	n/a	359070	FrequentVariableSOA	1683	n/a	n/a	1
360.7530000000	n/a	360753	GoVariableSOA	601	n/a	n/a	1
362.2870000000	n/a	362287	FrequentVariableSOA	1516	n/a	n/a	1
363.8030000000	n/a	363803	FrequentVariableSOA	1750	n/a	n/a	1
365.5530000000	n/a	365553	FrequentVariableSOA	1683	n/a	n/a	1
367.2370000000	n/a	367237	NovelVariableSOA	1666	n/a	n/a	1
368.9030000000	n/a	368903	FrequentVariableSOA	1516	n/a	n/a	1
370.4200000000	n/a	370420	NovelVariableSOA	1650	n/a	n/a	1
372.0700000000	n/a	372070	FrequentVariableSOA	1633	n/a	n/a	1
373.7030000000	n/a	373703	FrequentVariableSOA	1516	n/a	n/a	1
375.2200000000	n/a	375220	NovelVariableSOA	1650	n/a	n/a	1
376.8700000000	n/a	376870	FrequentVariableSOA	1666	n/a	n/a	1
378.5370000000	n/a	378537	FrequentVariableSOA	1766	n/a	n/a	1
380.3030000000	n/a	380303	FrequentVariableSOA	1700	n/a	n/a	1
382.0030000000	n/a	382003	FrequentVariableSOA	1800	n/a	n/a	1
383.8030000000	n/a	383803	FrequentVariableSOA	1766	n/a	n/a	1
385.5700000000	n/a	385570	NovelVariableSOA	1550	n/a	n/a	1
387.1200000000	n/a	387120	FrequentVariableSOA	1766	n/a	n/a	1
388.8870000000	n/a	388887	FrequentVariableSOA	1733	n/a	n/a	1
390.6200000000	n/a	390620	FrequentVariableSOA	1750	n/a	n/a	1
392.3700000000	n/a	392370	FrequentVariableSOA	1566	n/a	n/a	1
393.9360000000	n/a	393936	FrequentVariableSOA	1650	n/a	n/a	1
395.5860000000	n/a	395586	GoVariableSOA	387	n/a	n/a	1
397.1860000000	n/a	397186	FrequentVariableSOA	1783	n/a	n/a	1
398.9700000000	n/a	398970	FrequentVariableSOA	1533	n/a	n/a	1
400.5030000000	n/a	400503	GoVariableSOA	446	n/a	n/a	1
402.0030000000	n/a	402003	FrequentVariableSOA	1650	n/a	n/a	1
403.6530000000	n/a	403653	NovelVariableSOA	1716	n/a	n/a	1
405.3700000000	n/a	405370	FrequentVariableSOA	1550	n/a	n/a	1
406.9200000000	n/a	406920	GoVariableSOA	377	n/a	n/a	1
408.6860000000	n/a	408686	FrequentVariableSOA	1566	n/a	n/a	1
410.2530000000	n/a	410253	GoVariableSOA	514	n/a	n/a	1
411.9700000000	n/a	411970	FrequentVariableSOA	1783	n/a	n/a	1
413.7530000000	n/a	413753	FrequentVariableSOA	1783	n/a	n/a	1
415.5360000000	n/a	415536	FrequentVariableSOA	1583	n/a	n/a	1
417.1200000000	n/a	417120	FrequentVariableSOA	1550	n/a	n/a	1
418.6700000000	n/a	418670	GoVariableSOA	383	n/a	n/a	1
420.1860000000	n/a	420186	FrequentVariableSOA	1633	n/a	n/a	1
421.8200000000	n/a	421820	FrequentVariableSOA	1733	n/a	n/a	1
423.5530000000	n/a	423553	FrequentVariableSOA	1683	n/a	n/a	1
425.2360000000	n/a	425236	NovelVariableSOA	1516	n/a	n/a	1
426.7530000000	n/a	426753	FrequentVariableSOA	1583	n/a	n/a	1
428.3360000000	n/a	428336	FrequentVariableSOA	1633	n/a	n/a	1
429.9700000000	n/a	429970	FrequentVariableSOA	1633	n/a	n/a	1
431.6030000000	n/a	431603	FrequentVariableSOA	1750	n/a	n/a	1
433.3530000000	n/a	433353	NovelVariableSOA	1783	n/a	n/a	1
435.1360000000	n/a	435136	FrequentVariableSOA	1650	n/a	n/a	1
436.7860000000	n/a	436786	FrequentVariableSOA	1600	n/a	n/a	1
438.3860000000	n/a	438386	FrequentVariableSOA	1516	n/a	n/a	1
439.9030000000	n/a	439903	FrequentVariableSOA	1516	n/a	n/a	1
441.4200000000	n/a	441420	NovelVariableSOA	1666	n/a	n/a	1
443.0860000000	n/a	443086	FrequentVariableSOA	1500	n/a	n/a	1
444.5860000000	n/a	444586	FrequentVariableSOA	1583	n/a	n/a	1
446.1700000000	n/a	446170	GoVariableSOA	372	n/a	n/a	1
447.9360000000	n/a	447936	FrequentVariableSOA	1600	n/a	n/a	1
449.5360000000	n/a	449536	FrequentVariableSOA	1516	n/a	n/a	1
451.0530000000	n/a	451053	FrequentVariableSOA	1600	n/a	n/a	1
452.6530000000	n/a	452653	FrequentVariableSOA	1716	n/a	n/a	1
454.3700000000	n/a	454370	NovelVariableSOA	1583	n/a	n/a	1
455.9530000000	n/a	455953	FrequentVariableSOA	1600	n/a	n/a	1
457.5530000000	n/a	457553	FrequentVariableSOA	1583	n/a	n/a	1
459.1360000000	n/a	459136	FrequentVariableSOA	1783	n/a	n/a	1
460.9200000000	n/a	460920	FrequentVariableSOA	1600	n/a	n/a	1
462.5200000000	n/a	462520	FrequentVariableSOA	1633	n/a	n/a	1
464.1530000000	n/a	464153	GoFixedSOA	473	n/a	n/a	1
465.7860000000	n/a	465786	FrequentFixedSOA	1633	n/a	n/a	1
467.4200000000	n/a	467420	FrequentFixedSOA	1633	n/a	n/a	1
469.0530000000	n/a	469053	FrequentFixedSOA	1633	n/a	n/a	1
470.6860000000	n/a	470686	FrequentFixedSOA	1633	n/a	n/a	1
472.3200000000	n/a	472320	FrequentFixedSOA	1633	n/a	n/a	1
473.9530000000	n/a	473953	FrequentFixedSOA	1633	n/a	n/a	1
475.5860000000	n/a	475586	NovelFixedSOA	1633	n/a	n/a	1
477.2200000000	n/a	477220	FrequentFixedSOA	1633	n/a	n/a	1
478.8530000000	n/a	478853	FrequentFixedSOA	1633	n/a	n/a	1
480.4860000000	n/a	480486	FrequentFixedSOA	1633	n/a	n/a	1
482.1200000000	n/a	482120	NovelFixedSOA	1633	n/a	n/a	1
483.7530000000	n/a	483753	FrequentFixedSOA	1633	n/a	n/a	1
485.3860000000	n/a	485386	GoFixedSOA	520	n/a	n/a	1
487.0200000000	n/a	487020	FrequentFixedSOA	1633	n/a	n/a	1
488.6530000000	n/a	488653	FrequentFixedSOA	1633	n/a	n/a	1
490.2860000000	n/a	490286	GoFixedSOA	495	n/a	n/a	1
491.9200000000	n/a	491920	FrequentFixedSOA	1633	n/a	n/a	1
493.5530000000	n/a	493553	NovelFixedSOA	1633	n/a	n/a	1
495.1860000000	n/a	495186	FrequentFixedSOA	1633	n/a	n/a	1
496.8200000000	n/a	496820	FrequentFixedSOA	1633	n/a	n/a	1
498.4530000000	n/a	498453	FrequentFixedSOA	1633	n/a	n/a	1
500.0860000000	n/a	500086	FrequentFixedSOA	1633	n/a	n/a	1
501.7200000000	n/a	501720	FrequentFixedSOA	1633	n/a	n/a	1
503.3530000000	n/a	503353	GoFixedSOA	503	n/a	n/a	1
504.9860000000	n/a	504986	FrequentFixedSOA	1633	n/a	n/a	1
506.6200000000	n/a	506620	FrequentFixedSOA	1633	n/a	n/a	1
508.2530000000	n/a	508253	NovelFixedSOA	1633	n/a	n/a	1
509.8860000000	n/a	509886	FrequentFixedSOA	1633	n/a	n/a	1
511.5200000000	n/a	511520	FrequentFixedSOA	1633	n/a	n/a	1
513.1530000000	n/a	513153	FrequentFixedSOA	1633	n/a	n/a	1
514.7860000000	n/a	514786	FrequentFixedSOA	1633	n/a	n/a	1
516.4200000000	n/a	516420	FrequentFixedSOA	1633	n/a	n/a	1
518.0530000000	n/a	518053	NovelFixedSOA	1633	n/a	n/a	1
519.6860000000	n/a	519686	FrequentFixedSOA	1633	n/a	n/a	1
521.3200000000	n/a	521320	FrequentFixedSOA	1633	n/a	n/a	1
522.9530000000	n/a	522953	FrequentFixedSOA	1633	n/a	n/a	1
524.5860000000	n/a	524586	FrequentFixedSOA	1633	n/a	n/a	1
526.2200000000	n/a	526220	GoFixedSOA	592	n/a	n/a	1
527.8530000000	n/a	527853	FrequentFixedSOA	1633	n/a	n/a	1
529.4860000000	n/a	529486	FrequentFixedSOA	1633	n/a	n/a	1
531.1200000000	n/a	531120	NovelFixedSOA	1633	n/a	n/a	1
532.7530000000	n/a	532753	FrequentFixedSOA	1633	n/a	n/a	1
534.3860000000	n/a	534386	FrequentFixedSOA	1633	n/a	n/a	1
536.0200000000	n/a	536020	NovelFixedSOA	1633	n/a	n/a	1
537.6530000000	n/a	537653	FrequentFixedSOA	1633	n/a	n/a	1
539.2860000000	n/a	539286	FrequentFixedSOA	1633	n/a	n/a	1
540.9200000000	n/a	540920	FrequentFixedSOA	1633	n/a	n/a	1
542.5530000000	n/a	542553	FrequentFixedSOA	1633	n/a	n/a	1
544.1860000000	n/a	544186	FrequentFixedSOA	1633	n/a	n/a	1
545.8200000000	n/a	545820	GoFixedSOA	260	n/a	n/a	1
547.4530000000	n/a	547453	FrequentFixedSOA	1633	n/a	n/a	1
549.0860000000	n/a	549086	FrequentFixedSOA	1633	n/a	n/a	1
550.7200000000	n/a	550720	FrequentFixedSOA	1633	n/a	n/a	1
552.3530000000	n/a	552353	FrequentFixedSOA	1633	n/a	n/a	1
553.9860000000	n/a	553986	FrequentFixedSOA	1633	n/a	n/a	1
555.6200000000	n/a	555620	NovelFixedSOA	1633	n/a	n/a	1
557.2530000000	n/a	557253	FrequentFixedSOA	1633	n/a	n/a	1
558.8860000000	n/a	558886	GoFixedSOA	440	n/a	n/a	1
560.5200000000	n/a	560520	FrequentFixedSOA	1633	n/a	n/a	1
562.1530000000	n/a	562153	FrequentFixedSOA	1633	n/a	n/a	1
563.7860000000	n/a	563786	FrequentFixedSOA	1633	n/a	n/a	1
565.4200000000	n/a	565420	FrequentFixedSOA	1633	n/a	n/a	1
567.0530000000	n/a	567053	FrequentFixedSOA	1633	n/a	n/a	1
568.6860000000	n/a	568686	FrequentFixedSOA	1633	n/a	n/a	1
570.3200000000	n/a	570320	FrequentFixedSOA	1633	n/a	n/a	1
571.9530000000	n/a	571953	FrequentFixedSOA	1633	n/a	n/a	1
573.5860000000	n/a	573586	NovelFixedSOA	1633	n/a	n/a	1
575.2200000000	n/a	575220	FrequentFixedSOA	1633	n/a	n/a	1
576.8530000000	n/a	576853	FrequentFixedSOA	1633	n/a	n/a	1
578.4860000000	n/a	578486	GoVariableSOA	446	n/a	n/a	1
580.0030000000	n/a	580003	FrequentVariableSOA	1516	n/a	n/a	1
581.5200000000	n/a	581520	FrequentVariableSOA	1550	n/a	n/a	1
583.0700000000	n/a	583070	FrequentVariableSOA	1766	n/a	n/a	1
584.8360000000	n/a	584836	FrequentVariableSOA	1733	n/a	n/a	1
586.5700000000	n/a	586570	FrequentVariableSOA	1783	n/a	n/a	1
588.3530000000	n/a	588353	FrequentVariableSOA	1700	n/a	n/a	1
590.0530000000	n/a	590053	NovelVariableSOA	1500	n/a	n/a	1
591.5530000000	n/a	591553	FrequentVariableSOA	1766	n/a	n/a	1
593.3200000000	n/a	593320	FrequentVariableSOA	1600	n/a	n/a	1
594.9200000000	n/a	594920	FrequentVariableSOA	1516	n/a	n/a	1
596.4360000000	n/a	596436	NovelVariableSOA	1550	n/a	n/a	1
597.9860000000	n/a	597986	FrequentVariableSOA	1733	n/a	n/a	1
599.7200000000	n/a	599720	GoVariableSOA	434	n/a	n/a	1
601.3700000000	n/a	601370	FrequentVariableSOA	1750	n/a	n/a	1
603.1200000000	n/a	603120	FrequentVariableSOA	1650	n/a	n/a	1
604.7700000000	n/a	604770	GoVariableSOA	461	n/a	n/a	1
606.5530000000	n/a	606553	FrequentVariableSOA	1583	n/a	n/a	1
608.1360000000	n/a	608136	NovelVariableSOA	1733	n/a	n/a	1
609.8700000000	n/a	609870	FrequentVariableSOA	1500	n/a	n/a	1
611.3700000000	n/a	611370	FrequentVariableSOA	1633	n/a	n/a	1
613.0030000000	n/a	613003	FrequentVariableSOA	1566	n/a	n/a	1
614.5700000000	n/a	614570	FrequentVariableSOA	1716	n/a	n/a	1
616.2860000000	n/a	616286	FrequentVariableSOA	1600	n/a	n/a	1
617.8860000000	n/a	617886	GoVariableSOA	363	n/a	n/a	1
619.4360000000	n/a	619436	FrequentVariableSOA	1666	n/a	n/a	1
621.1030000000	n/a	621103	FrequentVariableSOA	1766	n/a	n/a	1
622.8700000000	n/a	622870	NovelVariableSOA	1766	n/a	n/a	1
624.6360000000	n/a	624636	FrequentVariableSOA	1550	n/a	n/a	1
626.1860000000	n/a	626186	FrequentVariableSOA	1716	n/a	n/a	1
627.9030000000	n/a	627903	FrequentVariableSOA	1566	n/a	n/a	1
629.4700000000	n/a	629470	FrequentVariableSOA	1666	n/a	n/a	1
631.1360000000	n/a	631136	FrequentVariableSOA	1616	n/a	n/a	1
632.7530000000	n/a	632753	NovelVariableSOA	1566	n/a	n/a	1
634.3200000000	n/a	634320	FrequentVariableSOA	1733	n/a	n/a	1
636.0530000000	n/a	636053	FrequentVariableSOA	1600	n/a	n/a	1
637.6530000000	n/a	637653	FrequentVariableSOA	1500	n/a	n/a	1
639.1530000000	n/a	639153	FrequentVariableSOA	1783	n/a	n/a	1
640.9360000000	n/a	640936	GoVariableSOA	400	n/a	n/a	1
642.5530000000	n/a	642553	FrequentVariableSOA	1550	n/a	n/a	1
644.1030000000	n/a	644103	FrequentVariableSOA	1766	n/a	n/a	1
645.8690000000	n/a	645869	NovelVariableSOA	1566	n/a	n/a	1
647.4360000000	n/a	647436	FrequentVariableSOA	1616	n/a	n/a	1
649.0530000000	n/a	649053	FrequentVariableSOA	1700	n/a	n/a	1
650.7530000000	n/a	650753	NovelVariableSOA	1550	n/a	n/a	1
652.3030000000	n/a	652303	FrequentVariableSOA	1666	n/a	n/a	1
653.9690000000	n/a	653969	FrequentVariableSOA	1616	n/a	n/a	1
655.5860000000	n/a	655586	FrequentVariableSOA	1666	n/a	n/a	1
657.2530000000	n/a	657253	FrequentVariableSOA	1716	n/a	n/a	1
658.9690000000	n/a	658969	FrequentVariableSOA	1533	n/a	n/a	1
660.5030000000	n/a	660503	GoVariableSOA	397	n/a	n/a	1
662.2860000000	n/a	662286	FrequentVariableSOA	1700	n/a	n/a	1
663.9860000000	n/a	663986	FrequentVariableSOA	1666	n/a	n/a	1
665.6530000000	n/a	665653	FrequentVariableSOA	1616	n/a	n/a	1
667.2690000000	n/a	667269	FrequentVariableSOA	1783	n/a	n/a	1
669.0530000000	n/a	669053	FrequentVariableSOA	1500	n/a	n/a	1
670.5530000000	n/a	670553	NovelVariableSOA	1666	n/a	n/a	1
672.2190000000	n/a	672219	FrequentVariableSOA	1766	n/a	n/a	1
673.9860000000	n/a	673986	GoVariableSOA	298	n/a	n/a	1
675.6190000000	n/a	675619	FrequentVariableSOA	1583	n/a	n/a	1
677.2030000000	n/a	677203	FrequentVariableSOA	1600	n/a	n/a	1
678.8030000000	n/a	678803	FrequentVariableSOA	1783	n/a	n/a	1
680.5860000000	n/a	680586	FrequentVariableSOA	1666	n/a	n/a	1
682.2530000000	n/a	682253	FrequentVariableSOA	1616	n/a	n/a	1
683.8690000000	n/a	683869	FrequentVariableSOA	1583	n/a	n/a	1
685.4530000000	n/a	685453	FrequentVariableSOA	1733	n/a	n/a	1
687.1860000000	n/a	687186	FrequentVariableSOA	1516	n/a	n/a	1
688.7030000000	n/a	688703	NovelVariableSOA	1750	n/a	n/a	1
690.4530000000	n/a	690453	FrequentVariableSOA	1533	n/a	n/a	1
691.9860000000	n/a	691986	FrequentVariableSOA	1650	n/a	n/a	1
693.6360000000	n/a	693636	GoFixedSOA	405	n/a	n/a	1
695.2690000000	n/a	695269	FrequentFixedSOA	1633	n/a	n/a	1
696.9030000000	n/a	696903	FrequentFixedSOA	1633	n/a	n/a	1
698.5360000000	n/a	698536	FrequentFixedSOA	1633	n/a	n/a	1
700.1690000000	n/a	700169	GoFixedSOA	477	n/a	n/a	1
701.8030000000	n/a	701803	FrequentFixedSOA	1633	n/a	n/a	1
703.4360000000	n/a	703436	FrequentFixedSOA	1633	n/a	n/a	1
705.0690000000	n/a	705069	FrequentFixedSOA	1633	n/a	n/a	1
706.7030000000	n/a	706703	FrequentFixedSOA	1633	n/a	n/a	1
708.3360000000	n/a	708336	GoFixedSOA	360	n/a	n/a	1
709.9690000000	n/a	709969	FrequentFixedSOA	1633	n/a	n/a	1
711.6030000000	n/a	711603	FrequentFixedSOA	1633	n/a	n/a	1
713.2360000000	n/a	713236	NovelFixedSOA	1633	n/a	n/a	1
714.8690000000	n/a	714869	FrequentFixedSOA	1633	n/a	n/a	1
716.5030000000	n/a	716503	FrequentFixedSOA	1633	n/a	n/a	1
718.1360000000	n/a	718136	GoFixedSOA	472	n/a	n/a	1
719.7690000000	n/a	719769	FrequentFixedSOA	1633	n/a	n/a	1
721.4030000000	n/a	721403	FrequentFixedSOA	1633	n/a	n/a	1
723.0360000000	n/a	723036	FrequentFixedSOA	1633	n/a	n/a	1
724.6690000000	n/a	724669	NovelFixedSOA	1633	n/a	n/a	1
726.3030000000	n/a	726303	FrequentFixedSOA	1633	n/a	n/a	1
727.9360000000	n/a	727936	NovelFixedSOA	1633	n/a	n/a	1
729.5690000000	n/a	729569	FrequentFixedSOA	1633	n/a	n/a	1
731.2030000000	n/a	731203	FrequentFixedSOA	1633	n/a	n/a	1
732.8360000000	n/a	732836	FrequentFixedSOA	1633	n/a	n/a	1
734.4690000000	n/a	734469	GoFixedSOA	366	n/a	n/a	1
736.1030000000	n/a	736103	FrequentFixedSOA	1633	n/a	n/a	1
737.7360000000	n/a	737736	FrequentFixedSOA	1633	n/a	n/a	1
739.3690000000	n/a	739369	FrequentFixedSOA	1633	n/a	n/a	1
741.0030000000	n/a	741003	GoFixedSOA	296	n/a	n/a	1
742.6360000000	n/a	742636	FrequentFixedSOA	1633	n/a	n/a	1
744.2690000000	n/a	744269	FrequentFixedSOA	1633	n/a	n/a	1
745.9030000000	n/a	745903	NovelFixedSOA	1633	n/a	n/a	1
747.5360000000	n/a	747536	FrequentFixedSOA	1633	n/a	n/a	1
749.1690000000	n/a	749169	GoFixedSOA	309	n/a	n/a	1
750.8030000000	n/a	750803	FrequentFixedSOA	1633	n/a	n/a	1
752.4360000000	n/a	752436	FrequentFixedSOA	1633	n/a	n/a	1
754.0690000000	n/a	754069	FrequentFixedSOA	1633	n/a	n/a	1
755.7030000000	n/a	755703	FrequentFixedSOA	1633	n/a	n/a	1
757.3360000000	n/a	757336	FrequentFixedSOA	1633	n/a	n/a	1
758.9690000000	n/a	758969	FrequentFixedSOA	1633	n/a	n/a	1
760.6030000000	n/a	760603	NovelFixedSOA	1633	n/a	n/a	1
762.2360000000	n/a	762236	FrequentFixedSOA	1633	n/a	n/a	1
763.8690000000	n/a	763869	FrequentFixedSOA	1633	n/a	n/a	1
765.5030000000	n/a	765503	FrequentFixedSOA	1633	n/a	n/a	1
767.1360000000	n/a	767136	GoFixedSOA	364	n/a	n/a	1
768.7690000000	n/a	768769	FrequentFixedSOA	1633	n/a	n/a	1
770.4030000000	n/a	770403	FrequentFixedSOA	1633	n/a	n/a	1
772.0360000000	n/a	772036	FrequentFixedSOA	1633	n/a	n/a	1
773.6690000000	n/a	773669	FrequentFixedSOA	1633	n/a	n/a	1
775.3030000000	n/a	775303	NovelFixedSOA	1633	n/a	n/a	1
776.9360000000	n/a	776936	FrequentFixedSOA	1633	n/a	n/a	1
778.5690000000	n/a	778569	FrequentFixedSOA	1633	n/a	n/a	1
780.2030000000	n/a	780203	NovelFixedSOA	1633	n/a	n/a	1
781.8360000000	n/a	781836	FrequentFixedSOA	1633	n/a	n/a	1
783.4690000000	n/a	783469	NovelFixedSOA	1633	n/a	n/a	1
785.1030000000	n/a	785103	FrequentFixedSOA	1633	n/a	n/a	1
786.7360000000	n/a	786736	FrequentFixedSOA	1633	n/a	n/a	1
788.3690000000	n/a	788369	FrequentFixedSOA	1633	n/a	n/a	1
790.0030000000	n/a	790003	FrequentFixedSOA	1633	n/a	n/a	1
791.6360000000	n/a	791636	FrequentFixedSOA	1633	n/a	n/a	1
793.2690000000	n/a	793269	FrequentFixedSOA	1633	n/a	n/a	1
794.9030000000	n/a	794903	FrequentFixedSOA	1633	n/a	n/a	1
796.5360000000	n/a	796536	GoFixedSOA	303	n/a	n/a	1
798.1690000000	n/a	798169	FrequentFixedSOA	1633	n/a	n/a	1
799.8030000000	n/a	799803	GoFixedSOA	397	n/a	n/a	1
801.4360000000	n/a	801436	FrequentFixedSOA	1633	n/a	n/a	1
803.0690000000	n/a	803069	FrequentFixedSOA	1633	n/a	n/a	1
804.7030000000	n/a	804703	NovelFixedSOA	1633	n/a	n/a	1
806.3360000000	n/a	806336	FrequentFixedSOA	1633	n/a	n/a	1
807.9690000000	n/a	807969	GoVariableSOA	368	n/a	n/a	1
809.4860000000	n/a	809486	FrequentVariableSOA	1766	n/a	n/a	1
811.2530000000	n/a	811253	FrequentVariableSOA	1516	n/a	n/a	1
812.7690000000	n/a	812769	FrequentVariableSOA	1700	n/a	n/a	1
814.4690000000	n/a	814469	GoVariableSOA	374	n/a	n/a	1
816.1690000000	n/a	816169	FrequentVariableSOA	1750	n/a	n/a	1
817.9190000000	n/a	817919	FrequentVariableSOA	1650	n/a	n/a	1
819.5690000000	n/a	819569	FrequentVariableSOA	1700	n/a	n/a	1
821.2690000000	n/a	821269	FrequentVariableSOA	1500	n/a	n/a	1
822.7690000000	n/a	822769	GoVariableSOA	432	n/a	n/a	1
824.5690000000	n/a	824569	FrequentVariableSOA	1533	n/a	n/a	1
826.1030000000	n/a	826103	FrequentVariableSOA	1766	n/a	n/a	1
827.8690000000	n/a	827869	NovelVariableSOA	1650	n/a	n/a	1
829.5190000000	n/a	829519	FrequentVariableSOA	1700	n/a	n/a	1
831.2190000000	n/a	831219	FrequentVariableSOA	1666	n/a	n/a	1
832.8860000000	n/a	832886	GoVariableSOA	362	n/a	n/a	1
834.5360000000	n/a	834536	FrequentVariableSOA	1783	n/a	n/a	1
836.3190000000	n/a	836319	FrequentVariableSOA	1650	n/a	n/a	1
837.9690000000	n/a	837969	FrequentVariableSOA	1583	n/a	n/a	1
839.5530000000	n/a	839553	NovelVariableSOA	1716	n/a	n/a	1
841.2690000000	n/a	841269	FrequentVariableSOA	1533	n/a	n/a	1
842.8030000000	n/a	842803	NovelVariableSOA	1616	n/a	n/a	1
844.4190000000	n/a	844419	FrequentVariableSOA	1650	n/a	n/a	1
846.0690000000	n/a	846069	FrequentVariableSOA	1700	n/a	n/a	1
847.7690000000	n/a	847769	FrequentVariableSOA	1666	n/a	n/a	1
849.4360000000	n/a	849436	GoVariableSOA	461	n/a	n/a	1
851.1190000000	n/a	851119	FrequentVariableSOA	1716	n/a	n/a	1
852.8360000000	n/a	852836	FrequentVariableSOA	1766	n/a	n/a	1
854.6030000000	n/a	854603	FrequentVariableSOA	1800	n/a	n/a	1
856.4030000000	n/a	856403	GoVariableSOA	425	n/a	n/a	1
858.0530000000	n/a	858053	FrequentVariableSOA	1733	n/a	n/a	1
859.7860000000	n/a	859786	FrequentVariableSOA	1716	n/a	n/a	1
861.5030000000	n/a	861503	NovelVariableSOA	1600	n/a	n/a	1
863.1030000000	n/a	863103	FrequentVariableSOA	1616	n/a	n/a	1
864.7190000000	n/a	864719	GoVariableSOA	442	n/a	n/a	1
866.4860000000	n/a	866486	FrequentVariableSOA	1516	n/a	n/a	1
868.0030000000	n/a	868003	FrequentVariableSOA	1783	n/a	n/a	1
869.7860000000	n/a	869786	FrequentVariableSOA	1650	n/a	n/a	1
871.4360000000	n/a	871436	FrequentVariableSOA	1716	n/a	n/a	1
873.1530000000	n/a	873153	FrequentVariableSOA	1600	n/a	n/a	1
874.7530000000	n/a	874753	FrequentVariableSOA	1566	n/a	n/a	1
876.3190000000	n/a	876319	NovelVariableSOA	1733	n/a	n/a	1
878.0530000000	n/a	878053	FrequentVariableSOA	1666	n/a	n/a	1
879.7190000000	n/a	879719	FrequentVariableSOA	1633	n/a	n/a	1
881.3530000000	n/a	881353	FrequentVariableSOA	1500	n/a	n/a	1
882.8530000000	n/a	882853	GoVariableSOA	327	n/a	n/a	1
884.5690000000	n/a	884569	FrequentVariableSOA	1750	n/a	n/a	1
886.3190000000	n/a	886319	FrequentVariableSOA	1766	n/a	n/a	1
888.0860000000	n/a	888086	FrequentVariableSOA	1516	n/a	n/a	1
889.6030000000	n/a	889603	FrequentVariableSOA	1733	n/a	n/a	1
891.3360000000	n/a	891336	NovelVariableSOA	1733	n/a	n/a	1
893.0690000000	n/a	893069	FrequentVariableSOA	1750	n/a	n/a	1
894.8190000000	n/a	894819	FrequentVariableSOA	1500	n/a	n/a	1
896.3190000000	n/a	896319	NovelVariableSOA	1783	n/a	n/a	1
898.1030000000	n/a	898103	FrequentVariableSOA	1733	n/a	n/a	1
899.8360000000	n/a	899836	NovelVariableSOA	1550	n/a	n/a	1
901.3860000000	n/a	901386	FrequentVariableSOA	1766	n/a	n/a	1
903.1520000000	n/a	903152	FrequentVariableSOA	1650	n/a	n/a	1
904.8020000000	n/a	904802	FrequentVariableSOA	1683	n/a	n/a	1
906.4860000000	n/a	906486	FrequentVariableSOA	1583	n/a	n/a	1
908.0690000000	n/a	908069	FrequentVariableSOA	1700	n/a	n/a	1
909.7690000000	n/a	909769	FrequentVariableSOA	1633	n/a	n/a	1
911.4020000000	n/a	911402	FrequentVariableSOA	1500	n/a	n/a	1
912.9020000000	n/a	912902	GoVariableSOA	322	n/a	n/a	1
914.4190000000	n/a	914419	FrequentVariableSOA	1650	n/a	n/a	1
916.0690000000	n/a	916069	GoVariableSOA	473	n/a	n/a	1
917.6360000000	n/a	917636	FrequentVariableSOA	1750	n/a	n/a	1
919.3860000000	n/a	919386	FrequentVariableSOA	1616	n/a	n/a	1
921.0020000000	n/a	921002	NovelVariableSOA	1633	n/a	n/a	1
922.6360000000	n/a	922636	FrequentVariableSOA	1600	n/a	n/a	1
