onset	duration	sample	trial_type	response_time	stim_file	value	correct
3.4120000000	n/a	3412	FrequentFixedSOA	1633	n/a	n/a	1
5.0460000000	n/a	5046	FrequentFixedSOA	1633	n/a	n/a	1
6.6790000000	n/a	6679	FrequentFixedSOA	1633	n/a	n/a	1
8.3120000000	n/a	8312	FrequentFixedSOA	1633	n/a	n/a	1
9.9450000000	n/a	9945	FrequentFixedSOA	1633	n/a	n/a	1
11.5790000000	n/a	11579	FrequentFixedSOA	1633	n/a	n/a	1
13.2120000000	n/a	13212	FrequentFixedSOA	1633	n/a	n/a	1
14.8450000000	n/a	14845	FrequentFixedSOA	1633	n/a	n/a	1
16.4790000000	n/a	16479	FrequentFixedSOA	1633	n/a	n/a	1
18.1120000000	n/a	18112	FrequentFixedSOA	1633	n/a	n/a	1
19.7450000000	n/a	19745	NovelFixedSOA	313	n/a	n/a	0
21.3790000000	n/a	21379	FrequentFixedSOA	1633	n/a	n/a	1
23.0120000000	n/a	23012	GoFixedSOA	394	n/a	n/a	1
24.6450000000	n/a	24645	FrequentFixedSOA	1633	n/a	n/a	1
26.2790000000	n/a	26279	FrequentFixedSOA	1633	n/a	n/a	1
27.9120000000	n/a	27912	FrequentFixedSOA	1633	n/a	n/a	1
29.5450000000	n/a	29545	GoFixedSOA	338	n/a	n/a	1
31.1790000000	n/a	31179	FrequentFixedSOA	1633	n/a	n/a	1
32.8120000000	n/a	32812	FrequentFixedSOA	1633	n/a	n/a	1
34.4450000000	n/a	34445	FrequentFixedSOA	1633	n/a	n/a	1
36.0790000000	n/a	36079	NovelFixedSOA	349	n/a	n/a	0
37.7120000000	n/a	37712	FrequentFixedSOA	1633	n/a	n/a	1
39.3450000000	n/a	39345	FrequentFixedSOA	1633	n/a	n/a	1
40.9790000000	n/a	40979	FrequentFixedSOA	1633	n/a	n/a	1
42.6120000000	n/a	42612	GoFixedSOA	466	n/a	n/a	1
44.2450000000	n/a	44245	FrequentFixedSOA	1633	n/a	n/a	1
45.8790000000	n/a	45879	NovelFixedSOA	1633	n/a	n/a	1
47.5120000000	n/a	47512	FrequentFixedSOA	1633	n/a	n/a	1
49.1450000000	n/a	49145	FrequentFixedSOA	1633	n/a	n/a	1
50.7790000000	n/a	50779	FrequentFixedSOA	1633	n/a	n/a	1
52.4120000000	n/a	52412	GoFixedSOA	314	n/a	n/a	1
54.0450000000	n/a	54045	FrequentFixedSOA	1633	n/a	n/a	1
55.6790000000	n/a	55679	GoFixedSOA	357	n/a	n/a	1
57.3120000000	n/a	57312	FrequentFixedSOA	1633	n/a	n/a	1
58.9450000000	n/a	58945	FrequentFixedSOA	1633	n/a	n/a	1
60.5790000000	n/a	60579	GoFixedSOA	324	n/a	n/a	1
62.2120000000	n/a	62212	FrequentFixedSOA	1633	n/a	n/a	1
63.8450000000	n/a	63845	FrequentFixedSOA	1633	n/a	n/a	1
65.4790000000	n/a	65479	FrequentFixedSOA	1633	n/a	n/a	1
67.1120000000	n/a	67112	FrequentFixedSOA	1633	n/a	n/a	1
68.7450000000	n/a	68745	NovelFixedSOA	1633	n/a	n/a	1
70.3790000000	n/a	70379	FrequentFixedSOA	1633	n/a	n/a	1
72.0120000000	n/a	72012	NovelFixedSOA	1633	n/a	n/a	1
73.6450000000	n/a	73645	FrequentFixedSOA	1633	n/a	n/a	1
75.2790000000	n/a	75279	FrequentFixedSOA	1633	n/a	n/a	1
76.9120000000	n/a	76912	GoFixedSOA	320	n/a	n/a	1
78.5450000000	n/a	78545	FrequentFixedSOA	1633	n/a	n/a	1
80.1790000000	n/a	80179	FrequentFixedSOA	1633	n/a	n/a	1
81.8120000000	n/a	81812	FrequentFixedSOA	1633	n/a	n/a	1
83.4450000000	n/a	83445	FrequentFixedSOA	1633	n/a	n/a	1
85.0790000000	n/a	85079	NovelFixedSOA	1633	n/a	n/a	1
86.7120000000	n/a	86712	FrequentFixedSOA	1633	n/a	n/a	1
88.3450000000	n/a	88345	FrequentFixedSOA	1633	n/a	n/a	1
89.9790000000	n/a	89979	FrequentFixedSOA	1633	n/a	n/a	1
91.6120000000	n/a	91612	FrequentFixedSOA	1633	n/a	n/a	1
93.2450000000	n/a	93245	GoFixedSOA	307	n/a	n/a	1
94.8790000000	n/a	94879	FrequentFixedSOA	1633	n/a	n/a	1
96.5120000000	n/a	96512	FrequentFixedSOA	1633	n/a	n/a	1
98.1450000000	n/a	98145	NovelFixedSOA	1633	n/a	n/a	1
99.7790000000	n/a	99779	FrequentFixedSOA	1633	n/a	n/a	1
101.4120000000	n/a	101412	FrequentFixedSOA	1633	n/a	n/a	1
103.0450000000	n/a	103045	GoFixedSOA	324	n/a	n/a	1
104.6790000000	n/a	104679	FrequentFixedSOA	1633	n/a	n/a	1
106.3120000000	n/a	106312	FrequentFixedSOA	1633	n/a	n/a	1
107.9450000000	n/a	107945	FrequentFixedSOA	1633	n/a	n/a	1
109.5790000000	n/a	109579	FrequentFixedSOA	1633	n/a	n/a	1
111.2120000000	n/a	111212	NovelFixedSOA	1633	n/a	n/a	1
112.8450000000	n/a	112845	FrequentFixedSOA	1633	n/a	n/a	1
114.4790000000	n/a	114479	FrequentFixedSOA	1633	n/a	n/a	1
116.1120000000	n/a	116112	GoFixedSOA	321	n/a	n/a	1
117.7450000000	n/a	117745	FrequentVariableSOA	1516	n/a	n/a	1
119.2620000000	n/a	119262	FrequentVariableSOA	1733	n/a	n/a	1
120.9950000000	n/a	120995	FrequentVariableSOA	1716	n/a	n/a	1
122.7120000000	n/a	122712	FrequentVariableSOA	1750	n/a	n/a	1
124.4620000000	n/a	124462	FrequentVariableSOA	1716	n/a	n/a	1
126.1790000000	n/a	126179	FrequentVariableSOA	1550	n/a	n/a	1
127.7290000000	n/a	127729	FrequentVariableSOA	1650	n/a	n/a	1
129.3790000000	n/a	129379	FrequentVariableSOA	1533	n/a	n/a	1
130.9120000000	n/a	130912	FrequentVariableSOA	1650	n/a	n/a	1
132.5620000000	n/a	132562	FrequentVariableSOA	1583	n/a	n/a	1
134.1450000000	n/a	134145	NovelVariableSOA	1700	n/a	n/a	1
135.8450000000	n/a	135845	FrequentVariableSOA	1533	n/a	n/a	1
137.3790000000	n/a	137379	GoVariableSOA	339	n/a	n/a	1
139.1450000000	n/a	139145	FrequentVariableSOA	1700	n/a	n/a	1
140.8450000000	n/a	140845	FrequentVariableSOA	1683	n/a	n/a	1
142.5290000000	n/a	142529	FrequentVariableSOA	1733	n/a	n/a	1
144.2620000000	n/a	144262	GoVariableSOA	1600	n/a	n/a	0
145.8620000000	n/a	145862	FrequentVariableSOA	1616	n/a	n/a	1
147.4790000000	n/a	147479	FrequentVariableSOA	1650	n/a	n/a	1
149.1290000000	n/a	149129	FrequentVariableSOA	1666	n/a	n/a	1
150.7950000000	n/a	150795	NovelVariableSOA	1650	n/a	n/a	1
152.4450000000	n/a	152445	FrequentVariableSOA	1533	n/a	n/a	1
153.9790000000	n/a	153979	FrequentVariableSOA	1500	n/a	n/a	1
155.4790000000	n/a	155479	FrequentVariableSOA	1516	n/a	n/a	1
156.9950000000	n/a	156995	GoVariableSOA	339	n/a	n/a	1
158.7290000000	n/a	158729	FrequentVariableSOA	1766	n/a	n/a	1
160.4950000000	n/a	160495	NovelVariableSOA	1616	n/a	n/a	1
162.1120000000	n/a	162112	FrequentVariableSOA	1550	n/a	n/a	1
163.6620000000	n/a	163662	FrequentVariableSOA	1516	n/a	n/a	1
165.1790000000	n/a	165179	FrequentVariableSOA	1566	n/a	n/a	1
166.7450000000	n/a	166745	GoVariableSOA	297	n/a	n/a	1
168.4450000000	n/a	168445	FrequentVariableSOA	1750	n/a	n/a	1
170.1950000000	n/a	170195	GoVariableSOA	364	n/a	n/a	1
171.9450000000	n/a	171945	FrequentVariableSOA	1666	n/a	n/a	1
173.6120000000	n/a	173612	FrequentVariableSOA	1750	n/a	n/a	1
175.3620000000	n/a	175362	GoVariableSOA	313	n/a	n/a	1
177.0790000000	n/a	177079	FrequentVariableSOA	1583	n/a	n/a	1
178.6620000000	n/a	178662	FrequentVariableSOA	1633	n/a	n/a	1
180.2950000000	n/a	180295	FrequentVariableSOA	1683	n/a	n/a	1
181.9790000000	n/a	181979	FrequentVariableSOA	1533	n/a	n/a	1
183.5120000000	n/a	183512	NovelVariableSOA	1533	n/a	n/a	1
185.0450000000	n/a	185045	FrequentVariableSOA	1716	n/a	n/a	1
186.7620000000	n/a	186762	NovelVariableSOA	1600	n/a	n/a	1
188.3620000000	n/a	188362	FrequentVariableSOA	1533	n/a	n/a	1
189.8950000000	n/a	189895	FrequentVariableSOA	1583	n/a	n/a	1
191.4790000000	n/a	191479	GoVariableSOA	303	n/a	n/a	1
193.1290000000	n/a	193129	FrequentVariableSOA	1750	n/a	n/a	1
194.8790000000	n/a	194879	FrequentVariableSOA	1633	n/a	n/a	1
196.5120000000	n/a	196512	FrequentVariableSOA	1616	n/a	n/a	1
198.1290000000	n/a	198129	FrequentVariableSOA	1616	n/a	n/a	1
199.7450000000	n/a	199745	NovelVariableSOA	1516	n/a	n/a	1
201.2620000000	n/a	201262	FrequentVariableSOA	1583	n/a	n/a	1
202.8450000000	n/a	202845	FrequentVariableSOA	1583	n/a	n/a	1
204.4290000000	n/a	204429	FrequentVariableSOA	1716	n/a	n/a	1
206.1450000000	n/a	206145	FrequentVariableSOA	1500	n/a	n/a	1
207.6450000000	n/a	207645	GoVariableSOA	393	n/a	n/a	1
209.3950000000	n/a	209395	FrequentVariableSOA	1616	n/a	n/a	1
211.0120000000	n/a	211012	FrequentVariableSOA	1766	n/a	n/a	1
212.7780000000	n/a	212778	NovelVariableSOA	1716	n/a	n/a	1
214.4950000000	n/a	214495	FrequentVariableSOA	1516	n/a	n/a	1
216.0120000000	n/a	216012	FrequentVariableSOA	1766	n/a	n/a	1
217.7780000000	n/a	217778	GoVariableSOA	254	n/a	n/a	1
219.4620000000	n/a	219462	FrequentVariableSOA	1766	n/a	n/a	1
221.2280000000	n/a	221228	FrequentVariableSOA	1700	n/a	n/a	1
222.9280000000	n/a	222928	FrequentVariableSOA	1650	n/a	n/a	1
224.5780000000	n/a	224578	FrequentVariableSOA	1616	n/a	n/a	1
226.1950000000	n/a	226195	NovelVariableSOA	1550	n/a	n/a	1
227.7450000000	n/a	227745	FrequentVariableSOA	1583	n/a	n/a	1
229.3280000000	n/a	229328	FrequentVariableSOA	1516	n/a	n/a	1
230.8450000000	n/a	230845	GoVariableSOA	280	n/a	n/a	1
232.4950000000	n/a	232495	FrequentFixedSOA	1633	n/a	n/a	1
234.1280000000	n/a	234128	FrequentFixedSOA	1633	n/a	n/a	1
235.7620000000	n/a	235762	FrequentFixedSOA	1633	n/a	n/a	1
237.3950000000	n/a	237395	GoFixedSOA	341	n/a	n/a	1
239.0280000000	n/a	239028	FrequentFixedSOA	1633	n/a	n/a	1
240.6620000000	n/a	240662	FrequentFixedSOA	1633	n/a	n/a	1
242.2950000000	n/a	242295	FrequentFixedSOA	1633	n/a	n/a	1
243.9280000000	n/a	243928	GoFixedSOA	373	n/a	n/a	1
245.5620000000	n/a	245562	FrequentFixedSOA	1633	n/a	n/a	1
247.1950000000	n/a	247195	FrequentFixedSOA	1633	n/a	n/a	1
248.8280000000	n/a	248828	FrequentFixedSOA	1633	n/a	n/a	1
250.4620000000	n/a	250462	NovelFixedSOA	1633	n/a	n/a	1
252.0950000000	n/a	252095	FrequentFixedSOA	1633	n/a	n/a	1
253.7280000000	n/a	253728	NovelFixedSOA	1633	n/a	n/a	1
255.3620000000	n/a	255362	FrequentFixedSOA	1633	n/a	n/a	1
256.9950000000	n/a	256995	FrequentFixedSOA	1633	n/a	n/a	1
258.6280000000	n/a	258628	NovelFixedSOA	1633	n/a	n/a	1
260.2620000000	n/a	260262	FrequentFixedSOA	1633	n/a	n/a	1
261.8950000000	n/a	261895	FrequentFixedSOA	1633	n/a	n/a	1
263.5280000000	n/a	263528	FrequentFixedSOA	1633	n/a	n/a	1
265.1620000000	n/a	265162	FrequentFixedSOA	1633	n/a	n/a	1
266.7950000000	n/a	266795	FrequentFixedSOA	1633	n/a	n/a	1
268.4280000000	n/a	268428	NovelFixedSOA	1633	n/a	n/a	1
270.0620000000	n/a	270062	FrequentFixedSOA	1633	n/a	n/a	1
271.6950000000	n/a	271695	FrequentFixedSOA	1633	n/a	n/a	1
273.3280000000	n/a	273328	FrequentFixedSOA	1633	n/a	n/a	1
274.9620000000	n/a	274962	FrequentFixedSOA	1633	n/a	n/a	1
276.5950000000	n/a	276595	FrequentFixedSOA	1633	n/a	n/a	1
278.2280000000	n/a	278228	GoFixedSOA	307	n/a	n/a	1
279.8620000000	n/a	279862	FrequentFixedSOA	1633	n/a	n/a	1
281.4950000000	n/a	281495	FrequentFixedSOA	1633	n/a	n/a	1
283.1280000000	n/a	283128	GoFixedSOA	345	n/a	n/a	1
284.7620000000	n/a	284762	FrequentFixedSOA	1633	n/a	n/a	1
286.3950000000	n/a	286395	NovelFixedSOA	1633	n/a	n/a	1
288.0280000000	n/a	288028	FrequentFixedSOA	1633	n/a	n/a	1
289.6620000000	n/a	289662	GoFixedSOA	345	n/a	n/a	1
291.2950000000	n/a	291295	FrequentFixedSOA	1633	n/a	n/a	1
292.9280000000	n/a	292928	GoFixedSOA	341	n/a	n/a	1
294.5620000000	n/a	294562	FrequentFixedSOA	1633	n/a	n/a	1
296.1950000000	n/a	296195	FrequentFixedSOA	1633	n/a	n/a	1
297.8280000000	n/a	297828	FrequentFixedSOA	1633	n/a	n/a	1
299.4620000000	n/a	299462	FrequentFixedSOA	1633	n/a	n/a	1
301.0950000000	n/a	301095	GoFixedSOA	316	n/a	n/a	1
302.7280000000	n/a	302728	FrequentFixedSOA	1633	n/a	n/a	1
304.3620000000	n/a	304362	FrequentFixedSOA	1633	n/a	n/a	1
305.9950000000	n/a	305995	FrequentFixedSOA	1633	n/a	n/a	1
307.6280000000	n/a	307628	NovelFixedSOA	1633	n/a	n/a	1
309.2620000000	n/a	309262	FrequentFixedSOA	1633	n/a	n/a	1
310.8950000000	n/a	310895	FrequentFixedSOA	1633	n/a	n/a	1
312.5280000000	n/a	312528	FrequentFixedSOA	1633	n/a	n/a	1
314.1620000000	n/a	314162	FrequentFixedSOA	1633	n/a	n/a	1
315.7950000000	n/a	315795	NovelFixedSOA	1633	n/a	n/a	1
317.4280000000	n/a	317428	FrequentFixedSOA	1633	n/a	n/a	1
319.0620000000	n/a	319062	FrequentFixedSOA	1633	n/a	n/a	1
320.6950000000	n/a	320695	FrequentFixedSOA	1633	n/a	n/a	1
322.3280000000	n/a	322328	FrequentFixedSOA	1633	n/a	n/a	1
323.9620000000	n/a	323962	NovelFixedSOA	1633	n/a	n/a	1
325.5950000000	n/a	325595	FrequentFixedSOA	1633	n/a	n/a	1
327.2280000000	n/a	327228	FrequentFixedSOA	1633	n/a	n/a	1
328.8620000000	n/a	328862	GoFixedSOA	320	n/a	n/a	1
330.4950000000	n/a	330495	FrequentFixedSOA	1633	n/a	n/a	1
332.1280000000	n/a	332128	FrequentFixedSOA	1633	n/a	n/a	1
333.7620000000	n/a	333762	FrequentFixedSOA	1633	n/a	n/a	1
335.3950000000	n/a	335395	FrequentFixedSOA	1633	n/a	n/a	1
337.0280000000	n/a	337028	NovelFixedSOA	1633	n/a	n/a	1
338.6620000000	n/a	338662	FrequentFixedSOA	1633	n/a	n/a	1
340.2950000000	n/a	340295	FrequentFixedSOA	1633	n/a	n/a	1
341.9280000000	n/a	341928	FrequentFixedSOA	1633	n/a	n/a	1
343.5620000000	n/a	343562	FrequentFixedSOA	1633	n/a	n/a	1
345.1950000000	n/a	345195	FrequentFixedSOA	1633	n/a	n/a	1
346.8280000000	n/a	346828	FrequentVariableSOA	1633	n/a	n/a	1
348.4620000000	n/a	348462	FrequentVariableSOA	1766	n/a	n/a	1
350.2280000000	n/a	350228	FrequentVariableSOA	1500	n/a	n/a	1
351.7280000000	n/a	351728	GoVariableSOA	411	n/a	n/a	1
353.4620000000	n/a	353462	FrequentVariableSOA	1783	n/a	n/a	1
355.2450000000	n/a	355245	FrequentVariableSOA	1716	n/a	n/a	1
356.9620000000	n/a	356962	FrequentVariableSOA	1683	n/a	n/a	1
358.6450000000	n/a	358645	GoVariableSOA	357	n/a	n/a	1
360.3120000000	n/a	360312	FrequentVariableSOA	1783	n/a	n/a	1
362.0950000000	n/a	362095	FrequentVariableSOA	1783	n/a	n/a	1
363.8780000000	n/a	363878	FrequentVariableSOA	1516	n/a	n/a	1
365.3950000000	n/a	365395	NovelVariableSOA	1566	n/a	n/a	1
366.9620000000	n/a	366962	FrequentVariableSOA	1750	n/a	n/a	1
368.7120000000	n/a	368712	NovelVariableSOA	1716	n/a	n/a	1
370.4280000000	n/a	370428	FrequentVariableSOA	1683	n/a	n/a	1
372.1120000000	n/a	372112	FrequentVariableSOA	1583	n/a	n/a	1
373.6950000000	n/a	373695	NovelVariableSOA	1783	n/a	n/a	1
375.4780000000	n/a	375478	FrequentVariableSOA	1683	n/a	n/a	1
377.1620000000	n/a	377162	FrequentVariableSOA	1533	n/a	n/a	1
378.6950000000	n/a	378695	FrequentVariableSOA	1700	n/a	n/a	1
380.3950000000	n/a	380395	FrequentVariableSOA	1733	n/a	n/a	1
382.1280000000	n/a	382128	FrequentVariableSOA	1516	n/a	n/a	1
383.6450000000	n/a	383645	NovelVariableSOA	1733	n/a	n/a	1
385.3780000000	n/a	385378	FrequentVariableSOA	1783	n/a	n/a	1
387.1620000000	n/a	387162	FrequentVariableSOA	1583	n/a	n/a	1
388.7450000000	n/a	388745	FrequentVariableSOA	1733	n/a	n/a	1
390.4780000000	n/a	390478	FrequentVariableSOA	1500	n/a	n/a	1
391.9780000000	n/a	391978	FrequentVariableSOA	1600	n/a	n/a	1
393.5780000000	n/a	393578	GoVariableSOA	374	n/a	n/a	1
395.2620000000	n/a	395262	FrequentVariableSOA	1516	n/a	n/a	1
396.7780000000	n/a	396778	FrequentVariableSOA	1633	n/a	n/a	1
398.4120000000	n/a	398412	GoVariableSOA	340	n/a	n/a	1
400.1120000000	n/a	400112	FrequentVariableSOA	1633	n/a	n/a	1
401.7450000000	n/a	401745	NovelVariableSOA	1750	n/a	n/a	1
403.4950000000	n/a	403495	FrequentVariableSOA	1733	n/a	n/a	1
405.2280000000	n/a	405228	GoVariableSOA	325	n/a	n/a	1
406.8620000000	n/a	406862	FrequentVariableSOA	1583	n/a	n/a	1
408.4450000000	n/a	408445	GoVariableSOA	315	n/a	n/a	1
410.1610000000	n/a	410161	FrequentVariableSOA	1550	n/a	n/a	1
411.7110000000	n/a	411711	FrequentVariableSOA	1683	n/a	n/a	1
413.3950000000	n/a	413395	FrequentVariableSOA	1716	n/a	n/a	1
415.1110000000	n/a	415111	FrequentVariableSOA	1633	n/a	n/a	1
416.7450000000	n/a	416745	GoVariableSOA	338	n/a	n/a	1
418.5450000000	n/a	418545	FrequentVariableSOA	1600	n/a	n/a	1
420.1450000000	n/a	420145	FrequentVariableSOA	1783	n/a	n/a	1
421.9280000000	n/a	421928	FrequentVariableSOA	1766	n/a	n/a	1
423.6950000000	n/a	423695	NovelVariableSOA	1716	n/a	n/a	1
425.4110000000	n/a	425411	FrequentVariableSOA	1650	n/a	n/a	1
427.0610000000	n/a	427061	FrequentVariableSOA	1750	n/a	n/a	1
428.8110000000	n/a	428811	FrequentVariableSOA	1616	n/a	n/a	1
430.4280000000	n/a	430428	FrequentVariableSOA	1750	n/a	n/a	1
432.1780000000	n/a	432178	NovelVariableSOA	1550	n/a	n/a	1
433.7280000000	n/a	433728	FrequentVariableSOA	1550	n/a	n/a	1
435.2780000000	n/a	435278	FrequentVariableSOA	1750	n/a	n/a	1
437.0280000000	n/a	437028	FrequentVariableSOA	1583	n/a	n/a	1
438.6110000000	n/a	438611	FrequentVariableSOA	1550	n/a	n/a	1
440.1610000000	n/a	440161	NovelVariableSOA	1650	n/a	n/a	1
441.8110000000	n/a	441811	FrequentVariableSOA	1666	n/a	n/a	1
443.4780000000	n/a	443478	FrequentVariableSOA	1700	n/a	n/a	1
445.1780000000	n/a	445178	GoVariableSOA	376	n/a	n/a	1
446.6950000000	n/a	446695	FrequentVariableSOA	1633	n/a	n/a	1
448.3280000000	n/a	448328	FrequentVariableSOA	1666	n/a	n/a	1
449.9950000000	n/a	449995	FrequentVariableSOA	1616	n/a	n/a	1
451.6110000000	n/a	451611	FrequentVariableSOA	1533	n/a	n/a	1
453.1450000000	n/a	453145	NovelVariableSOA	1533	n/a	n/a	1
454.6780000000	n/a	454678	FrequentVariableSOA	1733	n/a	n/a	1
456.4110000000	n/a	456411	FrequentVariableSOA	1600	n/a	n/a	1
458.0110000000	n/a	458011	FrequentVariableSOA	1650	n/a	n/a	1
459.6610000000	n/a	459661	FrequentVariableSOA	1700	n/a	n/a	1
461.3610000000	n/a	461361	FrequentVariableSOA	1666	n/a	n/a	1
463.0280000000	n/a	463028	GoFixedSOA	398	n/a	n/a	1
464.6610000000	n/a	464661	FrequentFixedSOA	1633	n/a	n/a	1
466.2950000000	n/a	466295	FrequentFixedSOA	1633	n/a	n/a	1
467.9280000000	n/a	467928	FrequentFixedSOA	1633	n/a	n/a	1
469.5610000000	n/a	469561	FrequentFixedSOA	1633	n/a	n/a	1
471.1950000000	n/a	471195	FrequentFixedSOA	1633	n/a	n/a	1
472.8280000000	n/a	472828	FrequentFixedSOA	1633	n/a	n/a	1
474.4610000000	n/a	474461	NovelFixedSOA	1633	n/a	n/a	1
476.0950000000	n/a	476095	FrequentFixedSOA	1633	n/a	n/a	1
477.7280000000	n/a	477728	FrequentFixedSOA	1633	n/a	n/a	1
479.3610000000	n/a	479361	FrequentFixedSOA	1633	n/a	n/a	1
480.9950000000	n/a	480995	NovelFixedSOA	1633	n/a	n/a	1
482.6280000000	n/a	482628	FrequentFixedSOA	1633	n/a	n/a	1
484.2610000000	n/a	484261	GoFixedSOA	323	n/a	n/a	1
485.8950000000	n/a	485895	FrequentFixedSOA	1633	n/a	n/a	1
487.5280000000	n/a	487528	FrequentFixedSOA	1633	n/a	n/a	1
489.1610000000	n/a	489161	GoFixedSOA	432	n/a	n/a	1
490.7950000000	n/a	490795	FrequentFixedSOA	1633	n/a	n/a	1
492.4280000000	n/a	492428	NovelFixedSOA	1633	n/a	n/a	1
494.0610000000	n/a	494061	FrequentFixedSOA	1633	n/a	n/a	1
495.6950000000	n/a	495695	FrequentFixedSOA	1633	n/a	n/a	1
497.3280000000	n/a	497328	FrequentFixedSOA	1633	n/a	n/a	1
498.9610000000	n/a	498961	FrequentFixedSOA	1633	n/a	n/a	1
500.5950000000	n/a	500595	FrequentFixedSOA	1633	n/a	n/a	1
502.2280000000	n/a	502228	GoFixedSOA	320	n/a	n/a	1
503.8610000000	n/a	503861	FrequentFixedSOA	1633	n/a	n/a	1
505.4950000000	n/a	505495	FrequentFixedSOA	1633	n/a	n/a	1
507.1280000000	n/a	507128	NovelFixedSOA	1633	n/a	n/a	1
508.7610000000	n/a	508761	FrequentFixedSOA	1633	n/a	n/a	1
510.3950000000	n/a	510395	FrequentFixedSOA	1633	n/a	n/a	1
512.0280000000	n/a	512028	FrequentFixedSOA	1633	n/a	n/a	1
513.6610000000	n/a	513661	FrequentFixedSOA	1633	n/a	n/a	1
515.2950000000	n/a	515295	FrequentFixedSOA	1633	n/a	n/a	1
516.9280000000	n/a	516928	NovelFixedSOA	1633	n/a	n/a	1
518.5610000000	n/a	518561	FrequentFixedSOA	1633	n/a	n/a	1
520.1950000000	n/a	520195	FrequentFixedSOA	1633	n/a	n/a	1
521.8280000000	n/a	521828	FrequentFixedSOA	1633	n/a	n/a	1
523.4610000000	n/a	523461	FrequentFixedSOA	1633	n/a	n/a	1
525.0950000000	n/a	525095	GoFixedSOA	336	n/a	n/a	1
526.7280000000	n/a	526728	FrequentFixedSOA	1633	n/a	n/a	1
528.3610000000	n/a	528361	FrequentFixedSOA	1633	n/a	n/a	1
529.9950000000	n/a	529995	NovelFixedSOA	1633	n/a	n/a	1
531.6280000000	n/a	531628	FrequentFixedSOA	1633	n/a	n/a	1
533.2610000000	n/a	533261	FrequentFixedSOA	1633	n/a	n/a	1
534.8950000000	n/a	534895	NovelFixedSOA	1633	n/a	n/a	1
536.5280000000	n/a	536528	FrequentFixedSOA	1633	n/a	n/a	1
538.1610000000	n/a	538161	FrequentFixedSOA	1633	n/a	n/a	1
539.7950000000	n/a	539795	FrequentFixedSOA	1633	n/a	n/a	1
541.4280000000	n/a	541428	FrequentFixedSOA	1633	n/a	n/a	1
543.0610000000	n/a	543061	FrequentFixedSOA	1633	n/a	n/a	1
544.6950000000	n/a	544695	GoFixedSOA	317	n/a	n/a	1
546.3280000000	n/a	546328	FrequentFixedSOA	1633	n/a	n/a	1
547.9610000000	n/a	547961	FrequentFixedSOA	1633	n/a	n/a	1
549.5950000000	n/a	549595	FrequentFixedSOA	1633	n/a	n/a	1
551.2280000000	n/a	551228	FrequentFixedSOA	1633	n/a	n/a	1
552.8610000000	n/a	552861	FrequentFixedSOA	1633	n/a	n/a	1
554.4950000000	n/a	554495	NovelFixedSOA	1633	n/a	n/a	1
556.1280000000	n/a	556128	FrequentFixedSOA	1633	n/a	n/a	1
557.7610000000	n/a	557761	GoFixedSOA	399	n/a	n/a	1
559.3950000000	n/a	559395	FrequentFixedSOA	1633	n/a	n/a	1
561.0280000000	n/a	561028	FrequentFixedSOA	1633	n/a	n/a	1
562.6610000000	n/a	562661	FrequentFixedSOA	1633	n/a	n/a	1
564.2950000000	n/a	564295	FrequentFixedSOA	1633	n/a	n/a	1
565.9280000000	n/a	565928	FrequentFixedSOA	1633	n/a	n/a	1
567.5610000000	n/a	567561	FrequentFixedSOA	1633	n/a	n/a	1
569.1950000000	n/a	569195	FrequentFixedSOA	1633	n/a	n/a	1
570.8280000000	n/a	570828	FrequentFixedSOA	1633	n/a	n/a	1
572.4610000000	n/a	572461	NovelFixedSOA	1633	n/a	n/a	1
574.0950000000	n/a	574095	FrequentFixedSOA	1633	n/a	n/a	1
575.7280000000	n/a	575728	FrequentFixedSOA	1633	n/a	n/a	1
577.3610000000	n/a	577361	GoVariableSOA	427	n/a	n/a	1
579.0280000000	n/a	579028	FrequentVariableSOA	1683	n/a	n/a	1
580.7110000000	n/a	580711	FrequentVariableSOA	1700	n/a	n/a	1
582.4110000000	n/a	582411	FrequentVariableSOA	1650	n/a	n/a	1
584.0610000000	n/a	584061	FrequentVariableSOA	1766	n/a	n/a	1
585.8280000000	n/a	585828	FrequentVariableSOA	1700	n/a	n/a	1
587.5280000000	n/a	587528	FrequentVariableSOA	1750	n/a	n/a	1
589.2780000000	n/a	589278	NovelVariableSOA	1683	n/a	n/a	1
590.9610000000	n/a	590961	FrequentVariableSOA	1616	n/a	n/a	1
592.5780000000	n/a	592578	FrequentVariableSOA	1550	n/a	n/a	1
594.1280000000	n/a	594128	FrequentVariableSOA	1666	n/a	n/a	1
595.7950000000	n/a	595795	NovelVariableSOA	1700	n/a	n/a	1
597.4950000000	n/a	597495	FrequentVariableSOA	1616	n/a	n/a	1
599.1110000000	n/a	599111	GoVariableSOA	389	n/a	n/a	1
600.8450000000	n/a	600845	FrequentVariableSOA	1750	n/a	n/a	1
602.5950000000	n/a	602595	FrequentVariableSOA	1733	n/a	n/a	1
604.3280000000	n/a	604328	GoVariableSOA	481	n/a	n/a	1
605.9610000000	n/a	605961	FrequentVariableSOA	1533	n/a	n/a	1
607.4950000000	n/a	607495	NovelVariableSOA	1500	n/a	n/a	1
608.9950000000	n/a	608995	FrequentVariableSOA	1666	n/a	n/a	1
610.6610000000	n/a	610661	FrequentVariableSOA	1733	n/a	n/a	1
612.3950000000	n/a	612395	FrequentVariableSOA	1733	n/a	n/a	1
614.1280000000	n/a	614128	FrequentVariableSOA	1600	n/a	n/a	1
615.7280000000	n/a	615728	FrequentVariableSOA	1766	n/a	n/a	1
617.4940000000	n/a	617494	GoVariableSOA	364	n/a	n/a	1
619.1780000000	n/a	619178	FrequentVariableSOA	1550	n/a	n/a	1
620.7280000000	n/a	620728	FrequentVariableSOA	1766	n/a	n/a	1
622.4940000000	n/a	622494	NovelVariableSOA	1733	n/a	n/a	1
624.2280000000	n/a	624228	FrequentVariableSOA	1683	n/a	n/a	1
625.9110000000	n/a	625911	FrequentVariableSOA	1533	n/a	n/a	1
627.4440000000	n/a	627444	FrequentVariableSOA	1700	n/a	n/a	1
629.1440000000	n/a	629144	FrequentVariableSOA	1650	n/a	n/a	1
630.7940000000	n/a	630794	FrequentVariableSOA	1616	n/a	n/a	1
632.4110000000	n/a	632411	NovelVariableSOA	1633	n/a	n/a	1
634.0440000000	n/a	634044	FrequentVariableSOA	1600	n/a	n/a	1
635.6440000000	n/a	635644	FrequentVariableSOA	1766	n/a	n/a	1
637.4110000000	n/a	637411	FrequentVariableSOA	1716	n/a	n/a	1
639.1280000000	n/a	639128	FrequentVariableSOA	1700	n/a	n/a	1
640.8280000000	n/a	640828	GoVariableSOA	399	n/a	n/a	1
642.4440000000	n/a	642444	FrequentVariableSOA	1650	n/a	n/a	1
644.0940000000	n/a	644094	FrequentVariableSOA	1550	n/a	n/a	1
645.6440000000	n/a	645644	NovelVariableSOA	1533	n/a	n/a	1
647.1780000000	n/a	647178	FrequentVariableSOA	1533	n/a	n/a	1
648.7110000000	n/a	648711	FrequentVariableSOA	1566	n/a	n/a	1
650.2780000000	n/a	650278	NovelVariableSOA	1783	n/a	n/a	1
652.0610000000	n/a	652061	FrequentVariableSOA	1633	n/a	n/a	1
653.6940000000	n/a	653694	FrequentVariableSOA	1550	n/a	n/a	1
655.2440000000	n/a	655244	FrequentVariableSOA	1783	n/a	n/a	1
657.0280000000	n/a	657028	FrequentVariableSOA	1516	n/a	n/a	1
658.5440000000	n/a	658544	FrequentVariableSOA	1716	n/a	n/a	1
660.2610000000	n/a	660261	GoVariableSOA	319	n/a	n/a	1
661.8610000000	n/a	661861	FrequentVariableSOA	1716	n/a	n/a	1
663.5780000000	n/a	663578	FrequentVariableSOA	1750	n/a	n/a	1
665.3280000000	n/a	665328	FrequentVariableSOA	1550	n/a	n/a	1
666.8780000000	n/a	666878	FrequentVariableSOA	1600	n/a	n/a	1
668.4780000000	n/a	668478	FrequentVariableSOA	1516	n/a	n/a	1
669.9940000000	n/a	669994	NovelVariableSOA	1633	n/a	n/a	1
671.6280000000	n/a	671628	FrequentVariableSOA	1550	n/a	n/a	1
673.1780000000	n/a	673178	GoVariableSOA	1500	n/a	n/a	0
674.6780000000	n/a	674678	FrequentVariableSOA	1583	n/a	n/a	1
676.2610000000	n/a	676261	FrequentVariableSOA	1766	n/a	n/a	1
678.0280000000	n/a	678028	FrequentVariableSOA	1800	n/a	n/a	1
679.8280000000	n/a	679828	FrequentVariableSOA	1633	n/a	n/a	1
681.4610000000	n/a	681461	FrequentVariableSOA	1683	n/a	n/a	1
683.1440000000	n/a	683144	FrequentVariableSOA	1683	n/a	n/a	1
684.8280000000	n/a	684828	FrequentVariableSOA	1516	n/a	n/a	1
686.3440000000	n/a	686344	FrequentVariableSOA	1516	n/a	n/a	1
687.8610000000	n/a	687861	NovelVariableSOA	1683	n/a	n/a	1
689.5440000000	n/a	689544	FrequentVariableSOA	1683	n/a	n/a	1
691.2280000000	n/a	691228	FrequentVariableSOA	1566	n/a	n/a	1
692.7940000000	n/a	692794	GoFixedSOA	345	n/a	n/a	1
694.4280000000	n/a	694428	FrequentFixedSOA	1633	n/a	n/a	1
696.0610000000	n/a	696061	FrequentFixedSOA	1633	n/a	n/a	1
697.6940000000	n/a	697694	FrequentFixedSOA	1633	n/a	n/a	1
699.3280000000	n/a	699328	GoFixedSOA	323	n/a	n/a	1
700.9610000000	n/a	700961	FrequentFixedSOA	1633	n/a	n/a	1
702.5940000000	n/a	702594	FrequentFixedSOA	1633	n/a	n/a	1
704.2280000000	n/a	704228	FrequentFixedSOA	1633	n/a	n/a	1
705.8610000000	n/a	705861	FrequentFixedSOA	1633	n/a	n/a	1
707.4940000000	n/a	707494	GoFixedSOA	410	n/a	n/a	1
709.1280000000	n/a	709128	FrequentFixedSOA	1633	n/a	n/a	1
710.7610000000	n/a	710761	FrequentFixedSOA	1633	n/a	n/a	1
712.3940000000	n/a	712394	NovelFixedSOA	1633	n/a	n/a	1
714.0280000000	n/a	714028	FrequentFixedSOA	1633	n/a	n/a	1
715.6610000000	n/a	715661	FrequentFixedSOA	1633	n/a	n/a	1
717.2940000000	n/a	717294	GoFixedSOA	312	n/a	n/a	1
718.9280000000	n/a	718928	FrequentFixedSOA	1633	n/a	n/a	1
720.5610000000	n/a	720561	FrequentFixedSOA	1633	n/a	n/a	1
722.1940000000	n/a	722194	FrequentFixedSOA	1633	n/a	n/a	1
723.8280000000	n/a	723828	NovelFixedSOA	1633	n/a	n/a	1
725.4610000000	n/a	725461	FrequentFixedSOA	1633	n/a	n/a	1
727.0940000000	n/a	727094	NovelFixedSOA	1633	n/a	n/a	1
728.7280000000	n/a	728728	FrequentFixedSOA	1633	n/a	n/a	1
730.3610000000	n/a	730361	FrequentFixedSOA	1633	n/a	n/a	1
731.9940000000	n/a	731994	FrequentFixedSOA	1633	n/a	n/a	1
733.6280000000	n/a	733628	GoFixedSOA	325	n/a	n/a	1
735.2610000000	n/a	735261	FrequentFixedSOA	1633	n/a	n/a	1
736.8940000000	n/a	736894	FrequentFixedSOA	1633	n/a	n/a	1
738.5280000000	n/a	738528	FrequentFixedSOA	1633	n/a	n/a	1
740.1610000000	n/a	740161	GoFixedSOA	376	n/a	n/a	1
741.7940000000	n/a	741794	FrequentFixedSOA	1633	n/a	n/a	1
743.4280000000	n/a	743428	FrequentFixedSOA	1633	n/a	n/a	1
745.0610000000	n/a	745061	NovelFixedSOA	1633	n/a	n/a	1
746.6940000000	n/a	746694	FrequentFixedSOA	1633	n/a	n/a	1
748.3280000000	n/a	748328	GoFixedSOA	373	n/a	n/a	1
749.9610000000	n/a	749961	FrequentFixedSOA	1633	n/a	n/a	1
751.5940000000	n/a	751594	FrequentFixedSOA	1633	n/a	n/a	1
753.2280000000	n/a	753228	FrequentFixedSOA	1633	n/a	n/a	1
754.8610000000	n/a	754861	FrequentFixedSOA	1633	n/a	n/a	1
756.4940000000	n/a	756494	FrequentFixedSOA	1633	n/a	n/a	1
758.1280000000	n/a	758128	FrequentFixedSOA	1633	n/a	n/a	1
759.7610000000	n/a	759761	NovelFixedSOA	1633	n/a	n/a	1
761.3940000000	n/a	761394	FrequentFixedSOA	1633	n/a	n/a	1
763.0280000000	n/a	763028	FrequentFixedSOA	1633	n/a	n/a	1
764.6610000000	n/a	764661	FrequentFixedSOA	1633	n/a	n/a	1
766.2940000000	n/a	766294	GoFixedSOA	333	n/a	n/a	1
767.9280000000	n/a	767928	FrequentFixedSOA	1633	n/a	n/a	1
769.5610000000	n/a	769561	FrequentFixedSOA	1633	n/a	n/a	1
771.1940000000	n/a	771194	FrequentFixedSOA	1633	n/a	n/a	1
772.8280000000	n/a	772828	FrequentFixedSOA	1633	n/a	n/a	1
774.4610000000	n/a	774461	NovelFixedSOA	1633	n/a	n/a	1
776.0940000000	n/a	776094	FrequentFixedSOA	1633	n/a	n/a	1
777.7280000000	n/a	777728	FrequentFixedSOA	1633	n/a	n/a	1
779.3610000000	n/a	779361	NovelFixedSOA	1633	n/a	n/a	1
780.9940000000	n/a	780994	FrequentFixedSOA	1633	n/a	n/a	1
782.6280000000	n/a	782628	NovelFixedSOA	1633	n/a	n/a	1
784.2610000000	n/a	784261	FrequentFixedSOA	1633	n/a	n/a	1
785.8940000000	n/a	785894	FrequentFixedSOA	1633	n/a	n/a	1
787.5280000000	n/a	787528	FrequentFixedSOA	1633	n/a	n/a	1
789.1610000000	n/a	789161	FrequentFixedSOA	1633	n/a	n/a	1
790.7940000000	n/a	790794	FrequentFixedSOA	1633	n/a	n/a	1
792.4280000000	n/a	792428	FrequentFixedSOA	1633	n/a	n/a	1
794.0610000000	n/a	794061	FrequentFixedSOA	1633	n/a	n/a	1
795.6940000000	n/a	795694	GoFixedSOA	328	n/a	n/a	1
797.3280000000	n/a	797328	FrequentFixedSOA	1633	n/a	n/a	1
798.9610000000	n/a	798961	GoFixedSOA	340	n/a	n/a	1
800.5940000000	n/a	800594	FrequentFixedSOA	1633	n/a	n/a	1
802.2280000000	n/a	802228	FrequentFixedSOA	1633	n/a	n/a	1
803.8610000000	n/a	803861	NovelFixedSOA	1633	n/a	n/a	1
805.4940000000	n/a	805494	FrequentFixedSOA	1633	n/a	n/a	1
807.1280000000	n/a	807128	GoVariableSOA	257	n/a	n/a	1
808.9110000000	n/a	808911	FrequentVariableSOA	1766	n/a	n/a	1
810.6780000000	n/a	810678	FrequentVariableSOA	1550	n/a	n/a	1
812.2280000000	n/a	812228	FrequentVariableSOA	1550	n/a	n/a	1
813.7780000000	n/a	813778	GoVariableSOA	372	n/a	n/a	1
815.3110000000	n/a	815311	FrequentVariableSOA	1800	n/a	n/a	1
817.1110000000	n/a	817111	FrequentVariableSOA	1716	n/a	n/a	1
818.8280000000	n/a	818828	FrequentVariableSOA	1733	n/a	n/a	1
820.5610000000	n/a	820561	FrequentVariableSOA	1766	n/a	n/a	1
822.3270000000	n/a	822327	GoVariableSOA	325	n/a	n/a	1
823.9270000000	n/a	823927	FrequentVariableSOA	1683	n/a	n/a	1
825.6110000000	n/a	825611	FrequentVariableSOA	1500	n/a	n/a	1
827.1110000000	n/a	827111	NovelVariableSOA	1733	n/a	n/a	1
828.8440000000	n/a	828844	FrequentVariableSOA	1566	n/a	n/a	1
830.4110000000	n/a	830411	FrequentVariableSOA	1650	n/a	n/a	1
832.0610000000	n/a	832061	GoVariableSOA	314	n/a	n/a	1
833.7110000000	n/a	833711	FrequentVariableSOA	1800	n/a	n/a	1
835.5110000000	n/a	835511	FrequentVariableSOA	1766	n/a	n/a	1
837.2770000000	n/a	837277	FrequentVariableSOA	1733	n/a	n/a	1
839.0110000000	n/a	839011	NovelVariableSOA	1633	n/a	n/a	1
840.6440000000	n/a	840644	FrequentVariableSOA	1716	n/a	n/a	1
842.3610000000	n/a	842361	NovelVariableSOA	1750	n/a	n/a	1
844.1110000000	n/a	844111	FrequentVariableSOA	1650	n/a	n/a	1
845.7610000000	n/a	845761	FrequentVariableSOA	1616	n/a	n/a	1
847.3770000000	n/a	847377	FrequentVariableSOA	1616	n/a	n/a	1
848.9940000000	n/a	848994	GoVariableSOA	315	n/a	n/a	1
850.7110000000	n/a	850711	FrequentVariableSOA	1533	n/a	n/a	1
852.2440000000	n/a	852244	FrequentVariableSOA	1633	n/a	n/a	1
853.8770000000	n/a	853877	FrequentVariableSOA	1566	n/a	n/a	1
855.4440000000	n/a	855444	GoVariableSOA	393	n/a	n/a	1
856.9440000000	n/a	856944	FrequentVariableSOA	1733	n/a	n/a	1
858.6770000000	n/a	858677	FrequentVariableSOA	1800	n/a	n/a	1
860.4770000000	n/a	860477	NovelVariableSOA	1533	n/a	n/a	1
862.0110000000	n/a	862011	FrequentVariableSOA	1783	n/a	n/a	1
863.7940000000	n/a	863794	GoVariableSOA	329	n/a	n/a	1
865.3610000000	n/a	865361	FrequentVariableSOA	1550	n/a	n/a	1
866.9110000000	n/a	866911	FrequentVariableSOA	1583	n/a	n/a	1
868.4940000000	n/a	868494	FrequentVariableSOA	1583	n/a	n/a	1
870.0770000000	n/a	870077	FrequentVariableSOA	1550	n/a	n/a	1
871.6270000000	n/a	871627	FrequentVariableSOA	1700	n/a	n/a	1
873.3270000000	n/a	873327	FrequentVariableSOA	1566	n/a	n/a	1
874.8940000000	n/a	874894	NovelVariableSOA	1716	n/a	n/a	1
876.6110000000	n/a	876611	FrequentVariableSOA	1516	n/a	n/a	1
878.1270000000	n/a	878127	FrequentVariableSOA	1783	n/a	n/a	1
879.9110000000	n/a	879911	FrequentVariableSOA	1683	n/a	n/a	1
881.5940000000	n/a	881594	GoVariableSOA	350	n/a	n/a	1
883.2770000000	n/a	883277	FrequentVariableSOA	1700	n/a	n/a	1
884.9770000000	n/a	884977	FrequentVariableSOA	1683	n/a	n/a	1
886.6610000000	n/a	886661	FrequentVariableSOA	1550	n/a	n/a	1
888.2110000000	n/a	888211	FrequentVariableSOA	1750	n/a	n/a	1
889.9610000000	n/a	889961	NovelVariableSOA	1583	n/a	n/a	1
891.5440000000	n/a	891544	FrequentVariableSOA	1600	n/a	n/a	1
893.1440000000	n/a	893144	FrequentVariableSOA	1550	n/a	n/a	1
894.6940000000	n/a	894694	NovelVariableSOA	1616	n/a	n/a	1
896.3110000000	n/a	896311	FrequentVariableSOA	1750	n/a	n/a	1
898.0610000000	n/a	898061	NovelVariableSOA	1533	n/a	n/a	1
899.5940000000	n/a	899594	FrequentVariableSOA	1633	n/a	n/a	1
901.2270000000	n/a	901227	FrequentVariableSOA	1616	n/a	n/a	1
902.8440000000	n/a	902844	FrequentVariableSOA	1566	n/a	n/a	1
904.4110000000	n/a	904411	FrequentVariableSOA	1683	n/a	n/a	1
906.0940000000	n/a	906094	FrequentVariableSOA	1783	n/a	n/a	1
907.8770000000	n/a	907877	FrequentVariableSOA	1716	n/a	n/a	1
909.5940000000	n/a	909594	FrequentVariableSOA	1683	n/a	n/a	1
911.2770000000	n/a	911277	GoVariableSOA	445	n/a	n/a	1
913.0610000000	n/a	913061	FrequentVariableSOA	1533	n/a	n/a	1
914.5940000000	n/a	914594	GoVariableSOA	403	n/a	n/a	1
916.2770000000	n/a	916277	FrequentVariableSOA	1700	n/a	n/a	1
917.9770000000	n/a	917977	FrequentVariableSOA	1516	n/a	n/a	1
919.4940000000	n/a	919494	NovelVariableSOA	1533	n/a	n/a	1
921.0270000000	n/a	921027	FrequentVariableSOA	1683	n/a	n/a	1
