onset	duration	sample	trial_type	response_time	stim_file	value	correct
3.2410000000	n/a	3241	FrequentFixedSOA	1633	n/a	n/a	1
4.8740000000	n/a	4874	FrequentFixedSOA	1633	n/a	n/a	1
6.5070000000	n/a	6507	FrequentFixedSOA	1633	n/a	n/a	1
8.1410000000	n/a	8141	FrequentFixedSOA	1633	n/a	n/a	1
9.7740000000	n/a	9774	FrequentFixedSOA	1633	n/a	n/a	1
11.4070000000	n/a	11407	FrequentFixedSOA	1633	n/a	n/a	1
13.0410000000	n/a	13041	FrequentFixedSOA	1633	n/a	n/a	1
14.6740000000	n/a	14674	FrequentFixedSOA	1633	n/a	n/a	1
16.3070000000	n/a	16307	FrequentFixedSOA	1633	n/a	n/a	1
17.9410000000	n/a	17941	FrequentFixedSOA	1633	n/a	n/a	1
19.5740000000	n/a	19574	NovelFixedSOA	1633	n/a	n/a	1
21.2070000000	n/a	21207	FrequentFixedSOA	1633	n/a	n/a	1
22.8410000000	n/a	22841	GoFixedSOA	400	n/a	n/a	1
24.4740000000	n/a	24474	FrequentFixedSOA	1633	n/a	n/a	1
26.1070000000	n/a	26107	FrequentFixedSOA	1633	n/a	n/a	1
27.7410000000	n/a	27741	FrequentFixedSOA	1633	n/a	n/a	1
29.3740000000	n/a	29374	GoFixedSOA	450	n/a	n/a	1
31.0070000000	n/a	31007	FrequentFixedSOA	1633	n/a	n/a	1
32.6410000000	n/a	32641	FrequentFixedSOA	1633	n/a	n/a	1
34.2740000000	n/a	34274	FrequentFixedSOA	1633	n/a	n/a	1
35.9070000000	n/a	35907	NovelFixedSOA	1633	n/a	n/a	1
37.5410000000	n/a	37541	FrequentFixedSOA	1633	n/a	n/a	1
39.1740000000	n/a	39174	FrequentFixedSOA	1633	n/a	n/a	1
40.8070000000	n/a	40807	FrequentFixedSOA	1633	n/a	n/a	1
42.4410000000	n/a	42441	GoFixedSOA	361	n/a	n/a	1
44.0740000000	n/a	44074	FrequentFixedSOA	1633	n/a	n/a	1
45.7070000000	n/a	45707	NovelFixedSOA	1633	n/a	n/a	1
47.3410000000	n/a	47341	FrequentFixedSOA	1633	n/a	n/a	1
48.9740000000	n/a	48974	FrequentFixedSOA	1633	n/a	n/a	1
50.6070000000	n/a	50607	FrequentFixedSOA	1633	n/a	n/a	1
52.2410000000	n/a	52241	GoFixedSOA	332	n/a	n/a	1
53.8740000000	n/a	53874	FrequentFixedSOA	1633	n/a	n/a	1
55.5070000000	n/a	55507	GoFixedSOA	362	n/a	n/a	1
57.1410000000	n/a	57141	FrequentFixedSOA	1633	n/a	n/a	1
58.7740000000	n/a	58774	FrequentFixedSOA	1633	n/a	n/a	1
60.4070000000	n/a	60407	GoFixedSOA	320	n/a	n/a	1
62.0410000000	n/a	62041	FrequentFixedSOA	1633	n/a	n/a	1
63.6740000000	n/a	63674	FrequentFixedSOA	1633	n/a	n/a	1
65.3070000000	n/a	65307	FrequentFixedSOA	1633	n/a	n/a	1
66.9410000000	n/a	66941	FrequentFixedSOA	1633	n/a	n/a	1
68.5740000000	n/a	68574	NovelFixedSOA	1633	n/a	n/a	1
70.2070000000	n/a	70207	FrequentFixedSOA	1633	n/a	n/a	1
71.8410000000	n/a	71841	NovelFixedSOA	1633	n/a	n/a	1
73.4740000000	n/a	73474	FrequentFixedSOA	1633	n/a	n/a	1
75.1070000000	n/a	75107	FrequentFixedSOA	1633	n/a	n/a	1
76.7410000000	n/a	76741	GoFixedSOA	328	n/a	n/a	1
78.3740000000	n/a	78374	FrequentFixedSOA	1633	n/a	n/a	1
80.0070000000	n/a	80007	FrequentFixedSOA	1633	n/a	n/a	1
81.6410000000	n/a	81641	FrequentFixedSOA	1633	n/a	n/a	1
83.2740000000	n/a	83274	FrequentFixedSOA	1633	n/a	n/a	1
84.9070000000	n/a	84907	NovelFixedSOA	1633	n/a	n/a	1
86.5410000000	n/a	86541	FrequentFixedSOA	1633	n/a	n/a	1
88.1740000000	n/a	88174	FrequentFixedSOA	1633	n/a	n/a	1
89.8070000000	n/a	89807	FrequentFixedSOA	1633	n/a	n/a	1
91.4410000000	n/a	91441	FrequentFixedSOA	1633	n/a	n/a	1
93.0740000000	n/a	93074	GoFixedSOA	339	n/a	n/a	1
94.7070000000	n/a	94707	FrequentFixedSOA	1633	n/a	n/a	1
96.3410000000	n/a	96341	FrequentFixedSOA	1633	n/a	n/a	1
97.9740000000	n/a	97974	NovelFixedSOA	1633	n/a	n/a	1
99.6070000000	n/a	99607	FrequentFixedSOA	1633	n/a	n/a	1
101.2410000000	n/a	101241	FrequentFixedSOA	1633	n/a	n/a	1
102.8740000000	n/a	102874	GoFixedSOA	335	n/a	n/a	1
104.5070000000	n/a	104507	FrequentFixedSOA	1633	n/a	n/a	1
106.1410000000	n/a	106141	FrequentFixedSOA	1633	n/a	n/a	1
107.7740000000	n/a	107774	FrequentFixedSOA	1633	n/a	n/a	1
109.4070000000	n/a	109407	FrequentFixedSOA	1633	n/a	n/a	1
111.0410000000	n/a	111041	NovelFixedSOA	1633	n/a	n/a	1
112.6740000000	n/a	112674	FrequentFixedSOA	1633	n/a	n/a	1
114.3070000000	n/a	114307	FrequentFixedSOA	1633	n/a	n/a	1
115.9410000000	n/a	115941	GoFixedSOA	402	n/a	n/a	1
117.5740000000	n/a	117574	FrequentVariableSOA	1500	n/a	n/a	1
119.0740000000	n/a	119074	FrequentVariableSOA	1650	n/a	n/a	1
120.7240000000	n/a	120724	FrequentVariableSOA	1766	n/a	n/a	1
122.4910000000	n/a	122491	FrequentVariableSOA	1683	n/a	n/a	1
124.1740000000	n/a	124174	FrequentVariableSOA	1533	n/a	n/a	1
125.7070000000	n/a	125707	FrequentVariableSOA	1516	n/a	n/a	1
127.2240000000	n/a	127224	FrequentVariableSOA	1516	n/a	n/a	1
128.7410000000	n/a	128741	FrequentVariableSOA	1616	n/a	n/a	1
130.3570000000	n/a	130357	FrequentVariableSOA	1600	n/a	n/a	1
131.9570000000	n/a	131957	FrequentVariableSOA	1516	n/a	n/a	1
133.4740000000	n/a	133474	NovelVariableSOA	1800	n/a	n/a	1
135.2740000000	n/a	135274	FrequentVariableSOA	1566	n/a	n/a	1
136.8410000000	n/a	136841	GoVariableSOA	401	n/a	n/a	1
138.4570000000	n/a	138457	FrequentVariableSOA	1800	n/a	n/a	1
140.2570000000	n/a	140257	FrequentVariableSOA	1733	n/a	n/a	1
141.9910000000	n/a	141991	FrequentVariableSOA	1566	n/a	n/a	1
143.5570000000	n/a	143557	GoVariableSOA	381	n/a	n/a	1
145.2240000000	n/a	145224	FrequentVariableSOA	1766	n/a	n/a	1
146.9910000000	n/a	146991	FrequentVariableSOA	1766	n/a	n/a	1
148.7570000000	n/a	148757	FrequentVariableSOA	1516	n/a	n/a	1
150.2740000000	n/a	150274	NovelVariableSOA	1583	n/a	n/a	1
151.8570000000	n/a	151857	FrequentVariableSOA	1683	n/a	n/a	1
153.5410000000	n/a	153541	FrequentVariableSOA	1766	n/a	n/a	1
155.3070000000	n/a	155307	FrequentVariableSOA	1733	n/a	n/a	1
157.0410000000	n/a	157041	GoVariableSOA	423	n/a	n/a	1
158.6240000000	n/a	158624	FrequentVariableSOA	1750	n/a	n/a	1
160.3740000000	n/a	160374	NovelVariableSOA	1600	n/a	n/a	1
161.9740000000	n/a	161974	FrequentVariableSOA	1500	n/a	n/a	1
163.4740000000	n/a	163474	FrequentVariableSOA	1783	n/a	n/a	1
165.2570000000	n/a	165257	FrequentVariableSOA	1516	n/a	n/a	1
166.7740000000	n/a	166774	GoVariableSOA	476	n/a	n/a	1
168.4740000000	n/a	168474	FrequentVariableSOA	1616	n/a	n/a	1
170.0910000000	n/a	170091	GoVariableSOA	407	n/a	n/a	1
171.7070000000	n/a	171707	FrequentVariableSOA	1566	n/a	n/a	1
173.2740000000	n/a	173274	FrequentVariableSOA	1700	n/a	n/a	1
174.9740000000	n/a	174974	GoVariableSOA	381	n/a	n/a	1
176.5070000000	n/a	176507	FrequentVariableSOA	1783	n/a	n/a	1
178.2910000000	n/a	178291	FrequentVariableSOA	1733	n/a	n/a	1
180.0240000000	n/a	180024	FrequentVariableSOA	1583	n/a	n/a	1
181.6070000000	n/a	181607	FrequentVariableSOA	1633	n/a	n/a	1
183.2410000000	n/a	183241	NovelVariableSOA	1633	n/a	n/a	1
184.8740000000	n/a	184874	FrequentVariableSOA	1650	n/a	n/a	1
186.5240000000	n/a	186524	NovelVariableSOA	1616	n/a	n/a	1
188.1400000000	n/a	188140	FrequentVariableSOA	1533	n/a	n/a	1
189.6740000000	n/a	189674	FrequentVariableSOA	1700	n/a	n/a	1
191.3740000000	n/a	191374	GoVariableSOA	389	n/a	n/a	1
193.1240000000	n/a	193124	FrequentVariableSOA	1650	n/a	n/a	1
194.7740000000	n/a	194774	FrequentVariableSOA	1683	n/a	n/a	1
196.4570000000	n/a	196457	FrequentVariableSOA	1533	n/a	n/a	1
197.9900000000	n/a	197990	FrequentVariableSOA	1750	n/a	n/a	1
199.7400000000	n/a	199740	NovelVariableSOA	1700	n/a	n/a	1
201.4400000000	n/a	201440	FrequentVariableSOA	1533	n/a	n/a	1
202.9740000000	n/a	202974	FrequentVariableSOA	1700	n/a	n/a	1
204.6740000000	n/a	204674	FrequentVariableSOA	1750	n/a	n/a	1
206.4240000000	n/a	206424	FrequentVariableSOA	1716	n/a	n/a	1
208.1400000000	n/a	208140	GoVariableSOA	394	n/a	n/a	1
209.6740000000	n/a	209674	FrequentVariableSOA	1733	n/a	n/a	1
211.4070000000	n/a	211407	FrequentVariableSOA	1550	n/a	n/a	1
212.9570000000	n/a	212957	NovelVariableSOA	1766	n/a	n/a	1
214.7240000000	n/a	214724	FrequentVariableSOA	1650	n/a	n/a	1
216.3740000000	n/a	216374	FrequentVariableSOA	1566	n/a	n/a	1
217.9400000000	n/a	217940	GoVariableSOA	477	n/a	n/a	1
219.4740000000	n/a	219474	FrequentVariableSOA	1716	n/a	n/a	1
221.1900000000	n/a	221190	FrequentVariableSOA	1500	n/a	n/a	1
222.6900000000	n/a	222690	FrequentVariableSOA	1650	n/a	n/a	1
224.3400000000	n/a	224340	FrequentVariableSOA	1750	n/a	n/a	1
226.0900000000	n/a	226090	NovelVariableSOA	1666	n/a	n/a	1
227.7570000000	n/a	227757	FrequentVariableSOA	1650	n/a	n/a	1
229.4070000000	n/a	229407	FrequentVariableSOA	1650	n/a	n/a	1
231.0570000000	n/a	231057	GoVariableSOA	380	n/a	n/a	1
232.6570000000	n/a	232657	FrequentFixedSOA	1633	n/a	n/a	1
234.2900000000	n/a	234290	FrequentFixedSOA	1633	n/a	n/a	1
235.9240000000	n/a	235924	FrequentFixedSOA	1633	n/a	n/a	1
237.5570000000	n/a	237557	GoFixedSOA	1633	n/a	n/a	0
239.1900000000	n/a	239190	FrequentFixedSOA	1633	n/a	n/a	1
240.8240000000	n/a	240824	FrequentFixedSOA	1633	n/a	n/a	1
242.4570000000	n/a	242457	FrequentFixedSOA	1633	n/a	n/a	1
244.0900000000	n/a	244090	GoFixedSOA	397	n/a	n/a	1
245.7240000000	n/a	245724	FrequentFixedSOA	1633	n/a	n/a	1
247.3570000000	n/a	247357	FrequentFixedSOA	1633	n/a	n/a	1
248.9900000000	n/a	248990	FrequentFixedSOA	1633	n/a	n/a	1
250.6240000000	n/a	250624	NovelFixedSOA	1633	n/a	n/a	1
252.2570000000	n/a	252257	FrequentFixedSOA	1633	n/a	n/a	1
253.8900000000	n/a	253890	NovelFixedSOA	1633	n/a	n/a	1
255.5240000000	n/a	255524	FrequentFixedSOA	1633	n/a	n/a	1
257.1570000000	n/a	257157	FrequentFixedSOA	1633	n/a	n/a	1
258.7900000000	n/a	258790	NovelFixedSOA	1633	n/a	n/a	1
260.4240000000	n/a	260424	FrequentFixedSOA	1633	n/a	n/a	1
262.0570000000	n/a	262057	FrequentFixedSOA	1633	n/a	n/a	1
263.6900000000	n/a	263690	FrequentFixedSOA	1633	n/a	n/a	1
265.3240000000	n/a	265324	FrequentFixedSOA	1633	n/a	n/a	1
266.9570000000	n/a	266957	FrequentFixedSOA	1633	n/a	n/a	1
268.5900000000	n/a	268590	NovelFixedSOA	1633	n/a	n/a	1
270.2240000000	n/a	270224	FrequentFixedSOA	1633	n/a	n/a	1
271.8570000000	n/a	271857	FrequentFixedSOA	1633	n/a	n/a	1
273.4900000000	n/a	273490	FrequentFixedSOA	1633	n/a	n/a	1
275.1240000000	n/a	275124	FrequentFixedSOA	1633	n/a	n/a	1
276.7570000000	n/a	276757	FrequentFixedSOA	1633	n/a	n/a	1
278.3900000000	n/a	278390	GoFixedSOA	387	n/a	n/a	1
280.0240000000	n/a	280024	FrequentFixedSOA	1633	n/a	n/a	1
281.6570000000	n/a	281657	FrequentFixedSOA	1633	n/a	n/a	1
283.2900000000	n/a	283290	GoFixedSOA	514	n/a	n/a	1
284.9240000000	n/a	284924	FrequentFixedSOA	1633	n/a	n/a	1
286.5570000000	n/a	286557	NovelFixedSOA	1633	n/a	n/a	1
288.1900000000	n/a	288190	FrequentFixedSOA	1633	n/a	n/a	1
289.8240000000	n/a	289824	GoFixedSOA	425	n/a	n/a	1
291.4570000000	n/a	291457	FrequentFixedSOA	1633	n/a	n/a	1
293.0900000000	n/a	293090	GoFixedSOA	423	n/a	n/a	1
294.7240000000	n/a	294724	FrequentFixedSOA	1633	n/a	n/a	1
296.3570000000	n/a	296357	FrequentFixedSOA	1633	n/a	n/a	1
297.9900000000	n/a	297990	FrequentFixedSOA	1633	n/a	n/a	1
299.6240000000	n/a	299624	FrequentFixedSOA	1633	n/a	n/a	1
301.2570000000	n/a	301257	GoFixedSOA	378	n/a	n/a	1
302.8900000000	n/a	302890	FrequentFixedSOA	1633	n/a	n/a	1
304.5240000000	n/a	304524	FrequentFixedSOA	1633	n/a	n/a	1
306.1570000000	n/a	306157	FrequentFixedSOA	1633	n/a	n/a	1
307.7900000000	n/a	307790	NovelFixedSOA	1633	n/a	n/a	1
309.4240000000	n/a	309424	FrequentFixedSOA	1633	n/a	n/a	1
311.0570000000	n/a	311057	FrequentFixedSOA	1633	n/a	n/a	1
312.6900000000	n/a	312690	FrequentFixedSOA	1633	n/a	n/a	1
314.3240000000	n/a	314324	FrequentFixedSOA	1633	n/a	n/a	1
315.9570000000	n/a	315957	NovelFixedSOA	1633	n/a	n/a	1
317.5900000000	n/a	317590	FrequentFixedSOA	1633	n/a	n/a	1
319.2240000000	n/a	319224	FrequentFixedSOA	1633	n/a	n/a	1
320.8570000000	n/a	320857	FrequentFixedSOA	1633	n/a	n/a	1
322.4900000000	n/a	322490	FrequentFixedSOA	1633	n/a	n/a	1
324.1240000000	n/a	324124	NovelFixedSOA	1633	n/a	n/a	1
325.7570000000	n/a	325757	FrequentFixedSOA	1633	n/a	n/a	1
327.3900000000	n/a	327390	FrequentFixedSOA	1633	n/a	n/a	1
329.0240000000	n/a	329024	GoFixedSOA	443	n/a	n/a	1
330.6570000000	n/a	330657	FrequentFixedSOA	1633	n/a	n/a	1
332.2900000000	n/a	332290	FrequentFixedSOA	1633	n/a	n/a	1
333.9240000000	n/a	333924	FrequentFixedSOA	1633	n/a	n/a	1
335.5570000000	n/a	335557	FrequentFixedSOA	1633	n/a	n/a	1
337.1900000000	n/a	337190	NovelFixedSOA	1633	n/a	n/a	1
338.8240000000	n/a	338824	FrequentFixedSOA	1633	n/a	n/a	1
340.4570000000	n/a	340457	FrequentFixedSOA	1633	n/a	n/a	1
342.0900000000	n/a	342090	FrequentFixedSOA	1633	n/a	n/a	1
343.7240000000	n/a	343724	FrequentFixedSOA	1633	n/a	n/a	1
345.3570000000	n/a	345357	FrequentFixedSOA	1633	n/a	n/a	1
346.9900000000	n/a	346990	FrequentVariableSOA	1766	n/a	n/a	1
348.7570000000	n/a	348757	FrequentVariableSOA	1666	n/a	n/a	1
350.4240000000	n/a	350424	FrequentVariableSOA	1700	n/a	n/a	1
352.1240000000	n/a	352124	GoVariableSOA	532	n/a	n/a	1
353.6900000000	n/a	353690	FrequentVariableSOA	1516	n/a	n/a	1
355.2070000000	n/a	355207	FrequentVariableSOA	1633	n/a	n/a	1
356.8400000000	n/a	356840	FrequentVariableSOA	1716	n/a	n/a	1
358.5570000000	n/a	358557	GoVariableSOA	1783	n/a	n/a	0
360.3400000000	n/a	360340	FrequentVariableSOA	1633	n/a	n/a	1
361.9740000000	n/a	361974	FrequentVariableSOA	1783	n/a	n/a	1
363.7570000000	n/a	363757	FrequentVariableSOA	1533	n/a	n/a	1
365.2900000000	n/a	365290	NovelVariableSOA	1650	n/a	n/a	1
366.9400000000	n/a	366940	FrequentVariableSOA	1783	n/a	n/a	1
368.7240000000	n/a	368724	NovelVariableSOA	1800	n/a	n/a	1
370.5240000000	n/a	370524	FrequentVariableSOA	1683	n/a	n/a	1
372.2070000000	n/a	372207	FrequentVariableSOA	1683	n/a	n/a	1
373.8900000000	n/a	373890	NovelVariableSOA	1683	n/a	n/a	1
375.5740000000	n/a	375574	FrequentVariableSOA	1750	n/a	n/a	1
377.3240000000	n/a	377324	FrequentVariableSOA	1566	n/a	n/a	1
378.8900000000	n/a	378890	FrequentVariableSOA	1600	n/a	n/a	1
380.4900000000	n/a	380490	FrequentVariableSOA	1750	n/a	n/a	1
382.2400000000	n/a	382240	FrequentVariableSOA	1533	n/a	n/a	1
383.7740000000	n/a	383774	NovelVariableSOA	1700	n/a	n/a	1
385.4740000000	n/a	385474	FrequentVariableSOA	1550	n/a	n/a	1
387.0240000000	n/a	387024	FrequentVariableSOA	1633	n/a	n/a	1
388.6570000000	n/a	388657	FrequentVariableSOA	1633	n/a	n/a	1
390.2900000000	n/a	390290	FrequentVariableSOA	1550	n/a	n/a	1
391.8400000000	n/a	391840	FrequentVariableSOA	1516	n/a	n/a	1
393.3570000000	n/a	393357	GoVariableSOA	549	n/a	n/a	1
395.1400000000	n/a	395140	FrequentVariableSOA	1733	n/a	n/a	1
396.8730000000	n/a	396873	FrequentVariableSOA	1750	n/a	n/a	1
398.6230000000	n/a	398623	GoVariableSOA	413	n/a	n/a	1
400.3400000000	n/a	400340	FrequentVariableSOA	1800	n/a	n/a	1
402.1400000000	n/a	402140	NovelVariableSOA	1550	n/a	n/a	1
403.6900000000	n/a	403690	FrequentVariableSOA	1583	n/a	n/a	1
405.2730000000	n/a	405273	GoVariableSOA	413	n/a	n/a	1
406.9730000000	n/a	406973	FrequentVariableSOA	1533	n/a	n/a	1
408.5070000000	n/a	408507	GoVariableSOA	392	n/a	n/a	1
410.0400000000	n/a	410040	FrequentVariableSOA	1533	n/a	n/a	1
411.5730000000	n/a	411573	FrequentVariableSOA	1766	n/a	n/a	1
413.3400000000	n/a	413340	FrequentVariableSOA	1616	n/a	n/a	1
414.9570000000	n/a	414957	FrequentVariableSOA	1783	n/a	n/a	1
416.7400000000	n/a	416740	GoVariableSOA	453	n/a	n/a	1
418.4230000000	n/a	418423	FrequentVariableSOA	1566	n/a	n/a	1
419.9900000000	n/a	419990	FrequentVariableSOA	1766	n/a	n/a	1
421.7570000000	n/a	421757	FrequentVariableSOA	1683	n/a	n/a	1
423.4400000000	n/a	423440	NovelVariableSOA	1650	n/a	n/a	1
425.0900000000	n/a	425090	FrequentVariableSOA	1766	n/a	n/a	1
426.8570000000	n/a	426857	FrequentVariableSOA	1666	n/a	n/a	1
428.5230000000	n/a	428523	FrequentVariableSOA	1616	n/a	n/a	1
430.1400000000	n/a	430140	FrequentVariableSOA	1650	n/a	n/a	1
431.7900000000	n/a	431790	NovelVariableSOA	1783	n/a	n/a	1
433.5730000000	n/a	433573	FrequentVariableSOA	1666	n/a	n/a	1
435.2400000000	n/a	435240	FrequentVariableSOA	1566	n/a	n/a	1
436.8070000000	n/a	436807	FrequentVariableSOA	1733	n/a	n/a	1
438.5400000000	n/a	438540	FrequentVariableSOA	1583	n/a	n/a	1
440.1230000000	n/a	440123	NovelVariableSOA	1516	n/a	n/a	1
441.6400000000	n/a	441640	FrequentVariableSOA	1500	n/a	n/a	1
443.1400000000	n/a	443140	FrequentVariableSOA	1633	n/a	n/a	1
444.7730000000	n/a	444773	GoVariableSOA	417	n/a	n/a	1
446.5570000000	n/a	446557	FrequentVariableSOA	1700	n/a	n/a	1
448.2570000000	n/a	448257	FrequentVariableSOA	1733	n/a	n/a	1
449.9900000000	n/a	449990	FrequentVariableSOA	1716	n/a	n/a	1
451.7070000000	n/a	451707	FrequentVariableSOA	1533	n/a	n/a	1
453.2400000000	n/a	453240	NovelVariableSOA	1616	n/a	n/a	1
454.8570000000	n/a	454857	FrequentVariableSOA	1733	n/a	n/a	1
456.5900000000	n/a	456590	FrequentVariableSOA	1700	n/a	n/a	1
458.2900000000	n/a	458290	FrequentVariableSOA	1700	n/a	n/a	1
459.9900000000	n/a	459990	FrequentVariableSOA	1533	n/a	n/a	1
461.5230000000	n/a	461523	FrequentVariableSOA	1750	n/a	n/a	1
463.2730000000	n/a	463273	GoFixedSOA	471	n/a	n/a	1
464.9070000000	n/a	464907	FrequentFixedSOA	1633	n/a	n/a	1
466.5400000000	n/a	466540	FrequentFixedSOA	1633	n/a	n/a	1
468.1730000000	n/a	468173	FrequentFixedSOA	1633	n/a	n/a	1
469.8070000000	n/a	469807	FrequentFixedSOA	1633	n/a	n/a	1
471.4400000000	n/a	471440	FrequentFixedSOA	1633	n/a	n/a	1
473.0730000000	n/a	473073	FrequentFixedSOA	1633	n/a	n/a	1
474.7070000000	n/a	474707	NovelFixedSOA	1633	n/a	n/a	1
476.3400000000	n/a	476340	FrequentFixedSOA	1633	n/a	n/a	1
477.9730000000	n/a	477973	FrequentFixedSOA	1633	n/a	n/a	1
479.6070000000	n/a	479607	FrequentFixedSOA	1633	n/a	n/a	1
481.2400000000	n/a	481240	NovelFixedSOA	1633	n/a	n/a	1
482.8730000000	n/a	482873	FrequentFixedSOA	1633	n/a	n/a	1
484.5070000000	n/a	484507	GoFixedSOA	454	n/a	n/a	1
486.1400000000	n/a	486140	FrequentFixedSOA	1633	n/a	n/a	1
487.7730000000	n/a	487773	FrequentFixedSOA	1633	n/a	n/a	1
489.4070000000	n/a	489407	GoFixedSOA	447	n/a	n/a	1
491.0400000000	n/a	491040	FrequentFixedSOA	1633	n/a	n/a	1
492.6730000000	n/a	492673	NovelFixedSOA	1633	n/a	n/a	1
494.3070000000	n/a	494307	FrequentFixedSOA	1633	n/a	n/a	1
495.9400000000	n/a	495940	FrequentFixedSOA	1633	n/a	n/a	1
497.5730000000	n/a	497573	FrequentFixedSOA	1633	n/a	n/a	1
499.2070000000	n/a	499207	FrequentFixedSOA	1633	n/a	n/a	1
500.8400000000	n/a	500840	FrequentFixedSOA	1633	n/a	n/a	1
502.4730000000	n/a	502473	GoFixedSOA	515	n/a	n/a	1
504.1070000000	n/a	504107	FrequentFixedSOA	1633	n/a	n/a	1
505.7400000000	n/a	505740	FrequentFixedSOA	1633	n/a	n/a	1
507.3730000000	n/a	507373	NovelFixedSOA	1633	n/a	n/a	1
509.0070000000	n/a	509007	FrequentFixedSOA	1633	n/a	n/a	1
510.6400000000	n/a	510640	FrequentFixedSOA	1633	n/a	n/a	1
512.2730000000	n/a	512273	FrequentFixedSOA	1633	n/a	n/a	1
513.9070000000	n/a	513907	FrequentFixedSOA	1633	n/a	n/a	1
515.5400000000	n/a	515540	FrequentFixedSOA	1633	n/a	n/a	1
517.1730000000	n/a	517173	NovelFixedSOA	1633	n/a	n/a	1
518.8070000000	n/a	518807	FrequentFixedSOA	1633	n/a	n/a	1
520.4400000000	n/a	520440	FrequentFixedSOA	1633	n/a	n/a	1
522.0730000000	n/a	522073	FrequentFixedSOA	1633	n/a	n/a	1
523.7070000000	n/a	523707	FrequentFixedSOA	1633	n/a	n/a	1
525.3400000000	n/a	525340	GoFixedSOA	1633	n/a	n/a	0
526.9730000000	n/a	526973	FrequentFixedSOA	1633	n/a	n/a	1
528.6070000000	n/a	528607	FrequentFixedSOA	1633	n/a	n/a	1
530.2400000000	n/a	530240	NovelFixedSOA	1633	n/a	n/a	1
531.8730000000	n/a	531873	FrequentFixedSOA	1633	n/a	n/a	1
533.5070000000	n/a	533507	FrequentFixedSOA	1633	n/a	n/a	1
535.1400000000	n/a	535140	NovelFixedSOA	1633	n/a	n/a	1
536.7730000000	n/a	536773	FrequentFixedSOA	1633	n/a	n/a	1
538.4070000000	n/a	538407	FrequentFixedSOA	1633	n/a	n/a	1
540.0400000000	n/a	540040	FrequentFixedSOA	1633	n/a	n/a	1
541.6730000000	n/a	541673	FrequentFixedSOA	1633	n/a	n/a	1
543.3070000000	n/a	543307	FrequentFixedSOA	1633	n/a	n/a	1
544.9400000000	n/a	544940	GoFixedSOA	403	n/a	n/a	1
546.5730000000	n/a	546573	FrequentFixedSOA	1633	n/a	n/a	1
548.2070000000	n/a	548207	FrequentFixedSOA	1633	n/a	n/a	1
549.8400000000	n/a	549840	FrequentFixedSOA	1633	n/a	n/a	1
551.4730000000	n/a	551473	FrequentFixedSOA	1633	n/a	n/a	1
553.1070000000	n/a	553107	FrequentFixedSOA	1633	n/a	n/a	1
554.7400000000	n/a	554740	NovelFixedSOA	1633	n/a	n/a	1
556.3730000000	n/a	556373	FrequentFixedSOA	1633	n/a	n/a	1
558.0070000000	n/a	558007	GoFixedSOA	477	n/a	n/a	1
559.6400000000	n/a	559640	FrequentFixedSOA	1633	n/a	n/a	1
561.2730000000	n/a	561273	FrequentFixedSOA	1633	n/a	n/a	1
562.9070000000	n/a	562907	FrequentFixedSOA	1633	n/a	n/a	1
564.5400000000	n/a	564540	FrequentFixedSOA	1633	n/a	n/a	1
566.1730000000	n/a	566173	FrequentFixedSOA	1633	n/a	n/a	1
567.8070000000	n/a	567807	FrequentFixedSOA	1633	n/a	n/a	1
569.4400000000	n/a	569440	FrequentFixedSOA	1633	n/a	n/a	1
571.0730000000	n/a	571073	FrequentFixedSOA	1633	n/a	n/a	1
572.7070000000	n/a	572707	NovelFixedSOA	1633	n/a	n/a	1
574.3400000000	n/a	574340	FrequentFixedSOA	1633	n/a	n/a	1
575.9730000000	n/a	575973	FrequentFixedSOA	1633	n/a	n/a	1
577.6070000000	n/a	577607	GoVariableSOA	441	n/a	n/a	1
579.1570000000	n/a	579157	FrequentVariableSOA	1533	n/a	n/a	1
580.6900000000	n/a	580690	FrequentVariableSOA	1550	n/a	n/a	1
582.2400000000	n/a	582240	FrequentVariableSOA	1716	n/a	n/a	1
583.9570000000	n/a	583957	FrequentVariableSOA	1700	n/a	n/a	1
585.6570000000	n/a	585657	FrequentVariableSOA	1766	n/a	n/a	1
587.4230000000	n/a	587423	FrequentVariableSOA	1766	n/a	n/a	1
589.1900000000	n/a	589190	NovelVariableSOA	1700	n/a	n/a	1
590.8900000000	n/a	590890	FrequentVariableSOA	1616	n/a	n/a	1
592.5070000000	n/a	592507	FrequentVariableSOA	1766	n/a	n/a	1
594.2730000000	n/a	594273	FrequentVariableSOA	1600	n/a	n/a	1
595.8730000000	n/a	595873	NovelVariableSOA	1666	n/a	n/a	1
597.5400000000	n/a	597540	FrequentVariableSOA	1700	n/a	n/a	1
599.2400000000	n/a	599240	GoVariableSOA	448	n/a	n/a	1
600.7900000000	n/a	600790	FrequentVariableSOA	1733	n/a	n/a	1
602.5230000000	n/a	602523	FrequentVariableSOA	1750	n/a	n/a	1
604.2730000000	n/a	604273	GoVariableSOA	543	n/a	n/a	1
605.9560000000	n/a	605956	FrequentVariableSOA	1633	n/a	n/a	1
607.5900000000	n/a	607590	NovelVariableSOA	1733	n/a	n/a	1
609.3230000000	n/a	609323	FrequentVariableSOA	1650	n/a	n/a	1
610.9730000000	n/a	610973	FrequentVariableSOA	1650	n/a	n/a	1
612.6230000000	n/a	612623	FrequentVariableSOA	1566	n/a	n/a	1
614.1900000000	n/a	614190	FrequentVariableSOA	1766	n/a	n/a	1
615.9560000000	n/a	615956	FrequentVariableSOA	1566	n/a	n/a	1
617.5230000000	n/a	617523	GoVariableSOA	409	n/a	n/a	1
619.1730000000	n/a	619173	FrequentVariableSOA	1700	n/a	n/a	1
620.8730000000	n/a	620873	FrequentVariableSOA	1766	n/a	n/a	1
622.6400000000	n/a	622640	NovelVariableSOA	1616	n/a	n/a	1
624.2560000000	n/a	624256	FrequentVariableSOA	1666	n/a	n/a	1
625.9230000000	n/a	625923	FrequentVariableSOA	1733	n/a	n/a	1
627.6560000000	n/a	627656	FrequentVariableSOA	1800	n/a	n/a	1
629.4560000000	n/a	629456	FrequentVariableSOA	1783	n/a	n/a	1
631.2400000000	n/a	631240	FrequentVariableSOA	1700	n/a	n/a	1
632.9400000000	n/a	632940	NovelVariableSOA	1550	n/a	n/a	1
634.4900000000	n/a	634490	FrequentVariableSOA	1600	n/a	n/a	1
636.0900000000	n/a	636090	FrequentVariableSOA	1666	n/a	n/a	1
637.7560000000	n/a	637756	FrequentVariableSOA	1650	n/a	n/a	1
639.4060000000	n/a	639406	FrequentVariableSOA	1500	n/a	n/a	1
640.9060000000	n/a	640906	GoVariableSOA	1783	n/a	n/a	0
642.6900000000	n/a	642690	FrequentVariableSOA	1733	n/a	n/a	1
644.4230000000	n/a	644423	FrequentVariableSOA	1800	n/a	n/a	1
646.2230000000	n/a	646223	NovelVariableSOA	1716	n/a	n/a	1
647.9400000000	n/a	647940	FrequentVariableSOA	1700	n/a	n/a	1
649.6400000000	n/a	649640	FrequentVariableSOA	1583	n/a	n/a	1
651.2230000000	n/a	651223	NovelVariableSOA	1750	n/a	n/a	1
652.9730000000	n/a	652973	FrequentVariableSOA	1716	n/a	n/a	1
654.6900000000	n/a	654690	FrequentVariableSOA	1666	n/a	n/a	1
656.3560000000	n/a	656356	FrequentVariableSOA	1716	n/a	n/a	1
658.0730000000	n/a	658073	FrequentVariableSOA	1783	n/a	n/a	1
659.8560000000	n/a	659856	FrequentVariableSOA	1700	n/a	n/a	1
661.5560000000	n/a	661556	GoVariableSOA	1716	n/a	n/a	0
663.2730000000	n/a	663273	FrequentVariableSOA	1733	n/a	n/a	1
665.0060000000	n/a	665006	FrequentVariableSOA	1716	n/a	n/a	1
666.7230000000	n/a	666723	FrequentVariableSOA	1533	n/a	n/a	1
668.2560000000	n/a	668256	FrequentVariableSOA	1583	n/a	n/a	1
669.8400000000	n/a	669840	FrequentVariableSOA	1633	n/a	n/a	1
671.4730000000	n/a	671473	NovelVariableSOA	1550	n/a	n/a	1
673.0230000000	n/a	673023	FrequentVariableSOA	1666	n/a	n/a	1
674.6900000000	n/a	674690	GoVariableSOA	580	n/a	n/a	1
676.2560000000	n/a	676256	FrequentVariableSOA	1516	n/a	n/a	1
677.7730000000	n/a	677773	FrequentVariableSOA	1683	n/a	n/a	1
679.4560000000	n/a	679456	FrequentVariableSOA	1750	n/a	n/a	1
681.2060000000	n/a	681206	FrequentVariableSOA	1516	n/a	n/a	1
682.7230000000	n/a	682723	FrequentVariableSOA	1733	n/a	n/a	1
684.4560000000	n/a	684456	FrequentVariableSOA	1583	n/a	n/a	1
686.0400000000	n/a	686040	FrequentVariableSOA	1666	n/a	n/a	1
687.7060000000	n/a	687706	FrequentVariableSOA	1633	n/a	n/a	1
689.3400000000	n/a	689340	NovelVariableSOA	1516	n/a	n/a	1
690.8560000000	n/a	690856	FrequentVariableSOA	1683	n/a	n/a	1
692.5400000000	n/a	692540	FrequentVariableSOA	1666	n/a	n/a	1
694.2060000000	n/a	694206	GoFixedSOA	492	n/a	n/a	1
695.8400000000	n/a	695840	FrequentFixedSOA	1633	n/a	n/a	1
697.4730000000	n/a	697473	FrequentFixedSOA	1633	n/a	n/a	1
699.1060000000	n/a	699106	FrequentFixedSOA	1633	n/a	n/a	1
700.7400000000	n/a	700740	GoFixedSOA	1633	n/a	n/a	0
702.3730000000	n/a	702373	FrequentFixedSOA	1633	n/a	n/a	1
704.0060000000	n/a	704006	FrequentFixedSOA	1633	n/a	n/a	1
705.6400000000	n/a	705640	FrequentFixedSOA	1633	n/a	n/a	1
707.2730000000	n/a	707273	FrequentFixedSOA	1633	n/a	n/a	1
708.9060000000	n/a	708906	GoFixedSOA	373	n/a	n/a	1
710.5400000000	n/a	710540	FrequentFixedSOA	1633	n/a	n/a	1
712.1730000000	n/a	712173	FrequentFixedSOA	1633	n/a	n/a	1
713.8060000000	n/a	713806	NovelFixedSOA	1633	n/a	n/a	1
715.4400000000	n/a	715440	FrequentFixedSOA	1633	n/a	n/a	1
717.0730000000	n/a	717073	FrequentFixedSOA	1633	n/a	n/a	1
718.7060000000	n/a	718706	GoFixedSOA	359	n/a	n/a	1
720.3400000000	n/a	720340	FrequentFixedSOA	1633	n/a	n/a	1
721.9730000000	n/a	721973	FrequentFixedSOA	1633	n/a	n/a	1
723.6060000000	n/a	723606	FrequentFixedSOA	1633	n/a	n/a	1
725.2400000000	n/a	725240	NovelFixedSOA	1633	n/a	n/a	1
726.8730000000	n/a	726873	FrequentFixedSOA	1633	n/a	n/a	1
728.5060000000	n/a	728506	NovelFixedSOA	1633	n/a	n/a	1
730.1400000000	n/a	730140	FrequentFixedSOA	1633	n/a	n/a	1
731.7730000000	n/a	731773	FrequentFixedSOA	1633	n/a	n/a	1
733.4060000000	n/a	733406	FrequentFixedSOA	1633	n/a	n/a	1
735.0400000000	n/a	735040	GoFixedSOA	689	n/a	n/a	1
736.6730000000	n/a	736673	FrequentFixedSOA	1633	n/a	n/a	1
738.3060000000	n/a	738306	FrequentFixedSOA	1633	n/a	n/a	1
739.9400000000	n/a	739940	FrequentFixedSOA	1633	n/a	n/a	1
741.5730000000	n/a	741573	GoFixedSOA	474	n/a	n/a	1
743.2060000000	n/a	743206	FrequentFixedSOA	1633	n/a	n/a	1
744.8400000000	n/a	744840	FrequentFixedSOA	1633	n/a	n/a	1
746.4730000000	n/a	746473	NovelFixedSOA	1633	n/a	n/a	1
748.1060000000	n/a	748106	FrequentFixedSOA	1633	n/a	n/a	1
749.7400000000	n/a	749740	GoFixedSOA	473	n/a	n/a	1
751.3730000000	n/a	751373	FrequentFixedSOA	1633	n/a	n/a	1
753.0060000000	n/a	753006	FrequentFixedSOA	1633	n/a	n/a	1
754.6400000000	n/a	754640	FrequentFixedSOA	1633	n/a	n/a	1
756.2730000000	n/a	756273	FrequentFixedSOA	1633	n/a	n/a	1
757.9060000000	n/a	757906	FrequentFixedSOA	1633	n/a	n/a	1
759.5400000000	n/a	759540	FrequentFixedSOA	1633	n/a	n/a	1
761.1730000000	n/a	761173	NovelFixedSOA	1633	n/a	n/a	1
762.8060000000	n/a	762806	FrequentFixedSOA	1633	n/a	n/a	1
764.4400000000	n/a	764440	FrequentFixedSOA	1633	n/a	n/a	1
766.0730000000	n/a	766073	FrequentFixedSOA	1633	n/a	n/a	1
767.7060000000	n/a	767706	GoFixedSOA	390	n/a	n/a	1
769.3400000000	n/a	769340	FrequentFixedSOA	1633	n/a	n/a	1
770.9730000000	n/a	770973	FrequentFixedSOA	1633	n/a	n/a	1
772.6060000000	n/a	772606	FrequentFixedSOA	1633	n/a	n/a	1
774.2400000000	n/a	774240	FrequentFixedSOA	1633	n/a	n/a	1
775.8730000000	n/a	775873	NovelFixedSOA	1633	n/a	n/a	1
777.5060000000	n/a	777506	FrequentFixedSOA	1633	n/a	n/a	1
779.1400000000	n/a	779140	FrequentFixedSOA	1633	n/a	n/a	1
780.7730000000	n/a	780773	NovelFixedSOA	1633	n/a	n/a	1
782.4060000000	n/a	782406	FrequentFixedSOA	1633	n/a	n/a	1
784.0400000000	n/a	784040	NovelFixedSOA	1633	n/a	n/a	1
785.6730000000	n/a	785673	FrequentFixedSOA	1633	n/a	n/a	1
787.3060000000	n/a	787306	FrequentFixedSOA	1633	n/a	n/a	1
788.9400000000	n/a	788940	FrequentFixedSOA	1633	n/a	n/a	1
790.5730000000	n/a	790573	FrequentFixedSOA	1633	n/a	n/a	1
792.2060000000	n/a	792206	FrequentFixedSOA	1633	n/a	n/a	1
793.8400000000	n/a	793840	FrequentFixedSOA	1633	n/a	n/a	1
795.4730000000	n/a	795473	FrequentFixedSOA	1633	n/a	n/a	1
797.1060000000	n/a	797106	GoFixedSOA	664	n/a	n/a	1
798.7390000000	n/a	798739	FrequentFixedSOA	1633	n/a	n/a	1
800.3730000000	n/a	800373	GoFixedSOA	487	n/a	n/a	1
802.0060000000	n/a	802006	FrequentFixedSOA	1633	n/a	n/a	1
803.6390000000	n/a	803639	FrequentFixedSOA	1633	n/a	n/a	1
805.2730000000	n/a	805273	NovelFixedSOA	1633	n/a	n/a	1
806.9060000000	n/a	806906	FrequentFixedSOA	1633	n/a	n/a	1
808.5390000000	n/a	808539	GoVariableSOA	414	n/a	n/a	1
810.1560000000	n/a	810156	FrequentVariableSOA	1533	n/a	n/a	1
811.6890000000	n/a	811689	FrequentVariableSOA	1683	n/a	n/a	1
813.3730000000	n/a	813373	FrequentVariableSOA	1700	n/a	n/a	1
815.0730000000	n/a	815073	GoVariableSOA	538	n/a	n/a	1
816.6560000000	n/a	816656	FrequentVariableSOA	1766	n/a	n/a	1
818.4230000000	n/a	818423	FrequentVariableSOA	1616	n/a	n/a	1
820.0390000000	n/a	820039	FrequentVariableSOA	1766	n/a	n/a	1
821.8060000000	n/a	821806	FrequentVariableSOA	1650	n/a	n/a	1
823.4560000000	n/a	823456	GoVariableSOA	329	n/a	n/a	1
825.1560000000	n/a	825156	FrequentVariableSOA	1533	n/a	n/a	1
826.6890000000	n/a	826689	FrequentVariableSOA	1533	n/a	n/a	1
828.2230000000	n/a	828223	NovelVariableSOA	1750	n/a	n/a	1
829.9730000000	n/a	829973	FrequentVariableSOA	1550	n/a	n/a	1
831.5230000000	n/a	831523	FrequentVariableSOA	1666	n/a	n/a	1
833.1890000000	n/a	833189	GoVariableSOA	371	n/a	n/a	1
834.7890000000	n/a	834789	FrequentVariableSOA	1750	n/a	n/a	1
836.5390000000	n/a	836539	FrequentVariableSOA	1716	n/a	n/a	1
838.2560000000	n/a	838256	FrequentVariableSOA	1616	n/a	n/a	1
839.8730000000	n/a	839873	NovelVariableSOA	1516	n/a	n/a	1
841.3890000000	n/a	841389	FrequentVariableSOA	1783	n/a	n/a	1
843.1730000000	n/a	843173	NovelVariableSOA	1566	n/a	n/a	1
844.7390000000	n/a	844739	FrequentVariableSOA	1716	n/a	n/a	1
846.4560000000	n/a	846456	FrequentVariableSOA	1633	n/a	n/a	1
848.0890000000	n/a	848089	FrequentVariableSOA	1516	n/a	n/a	1
849.6060000000	n/a	849606	GoVariableSOA	399	n/a	n/a	1
851.2060000000	n/a	851206	FrequentVariableSOA	1566	n/a	n/a	1
852.7730000000	n/a	852773	FrequentVariableSOA	1800	n/a	n/a	1
854.5730000000	n/a	854573	FrequentVariableSOA	1500	n/a	n/a	1
856.0730000000	n/a	856073	GoVariableSOA	390	n/a	n/a	1
857.6230000000	n/a	857623	FrequentVariableSOA	1666	n/a	n/a	1
859.2890000000	n/a	859289	FrequentVariableSOA	1783	n/a	n/a	1
861.0730000000	n/a	861073	NovelVariableSOA	1750	n/a	n/a	1
862.8230000000	n/a	862823	FrequentVariableSOA	1766	n/a	n/a	1
864.5890000000	n/a	864589	GoVariableSOA	390	n/a	n/a	1
866.1730000000	n/a	866173	FrequentVariableSOA	1766	n/a	n/a	1
867.9390000000	n/a	867939	FrequentVariableSOA	1700	n/a	n/a	1
869.6390000000	n/a	869639	FrequentVariableSOA	1516	n/a	n/a	1
871.1560000000	n/a	871156	FrequentVariableSOA	1766	n/a	n/a	1
872.9230000000	n/a	872923	FrequentVariableSOA	1616	n/a	n/a	1
874.5390000000	n/a	874539	FrequentVariableSOA	1666	n/a	n/a	1
876.2060000000	n/a	876206	NovelVariableSOA	1783	n/a	n/a	1
877.9890000000	n/a	877989	FrequentVariableSOA	1550	n/a	n/a	1
879.5390000000	n/a	879539	FrequentVariableSOA	1766	n/a	n/a	1
881.3060000000	n/a	881306	FrequentVariableSOA	1533	n/a	n/a	1
882.8390000000	n/a	882839	GoVariableSOA	542	n/a	n/a	1
884.3890000000	n/a	884389	FrequentVariableSOA	1716	n/a	n/a	1
886.1060000000	n/a	886106	FrequentVariableSOA	1533	n/a	n/a	1
887.6390000000	n/a	887639	FrequentVariableSOA	1800	n/a	n/a	1
889.4390000000	n/a	889439	FrequentVariableSOA	1766	n/a	n/a	1
891.2060000000	n/a	891206	NovelVariableSOA	1666	n/a	n/a	1
892.8730000000	n/a	892873	FrequentVariableSOA	1583	n/a	n/a	1
894.4560000000	n/a	894456	FrequentVariableSOA	1683	n/a	n/a	1
896.1390000000	n/a	896139	NovelVariableSOA	1700	n/a	n/a	1
897.8390000000	n/a	897839	FrequentVariableSOA	1533	n/a	n/a	1
899.3730000000	n/a	899373	NovelVariableSOA	1683	n/a	n/a	1
901.0560000000	n/a	901056	FrequentVariableSOA	1550	n/a	n/a	1
902.6060000000	n/a	902606	FrequentVariableSOA	1600	n/a	n/a	1
904.2060000000	n/a	904206	FrequentVariableSOA	1583	n/a	n/a	1
905.7890000000	n/a	905789	FrequentVariableSOA	1516	n/a	n/a	1
907.3060000000	n/a	907306	FrequentVariableSOA	1600	n/a	n/a	1
908.9060000000	n/a	908906	FrequentVariableSOA	1800	n/a	n/a	1
910.7060000000	n/a	910706	FrequentVariableSOA	1533	n/a	n/a	1
912.2390000000	n/a	912239	GoVariableSOA	485	n/a	n/a	1
913.8390000000	n/a	913839	FrequentVariableSOA	1666	n/a	n/a	1
915.5060000000	n/a	915506	GoVariableSOA	467	n/a	n/a	1
917.2730000000	n/a	917273	FrequentVariableSOA	1683	n/a	n/a	1
918.9560000000	n/a	918956	FrequentVariableSOA	1716	n/a	n/a	1
920.6730000000	n/a	920673	NovelVariableSOA	1616	n/a	n/a	1
922.2890000000	n/a	922289	FrequentVariableSOA	1650	n/a	n/a	1
