onset	duration	sample	trial_type	response_time	stim_file	value	correct
27.6450000000	n/a	27645	ignore	7882	n/a	n/a	1
36.5950000000	n/a	36595	ignore	1000	n/a	n/a	1
38.5950000000	n/a	38595	ignore	1700	n/a	n/a	1
40.2950000000	n/a	40295	ignore	2445	n/a	n/a	1
43.8120000000	n/a	43812	ignore	1000	n/a	n/a	1
45.8120000000	n/a	45812	ignore	1700	n/a	n/a	1
47.5120000000	n/a	47512	ignore	3160	n/a	n/a	1
51.7450000000	n/a	51745	ignore	1000	n/a	n/a	1
53.7450000000	n/a	53745	ignore	1700	n/a	n/a	1
55.4450000000	n/a	55445	ignore	6272	n/a	n/a	1
62.7950000000	n/a	62795	ignore	1000	n/a	n/a	1
64.7950000000	n/a	64795	ignore	1700	n/a	n/a	1
66.4950000000	n/a	66495	ignore	5652	n/a	n/a	0
73.2120000000	n/a	73212	ignore	1000	n/a	n/a	1
75.2120000000	n/a	75212	ignore	1700	n/a	n/a	1
76.9120000000	n/a	76912	ignore	7371	n/a	n/a	1
85.3450000000	n/a	85345	ignore	1000	n/a	n/a	1
87.3450000000	n/a	87345	ignore	1700	n/a	n/a	1
89.0450000000	n/a	89045	ignore	1327	n/a	n/a	1
91.4450000000	n/a	91445	ignore	1000	n/a	n/a	1
93.4450000000	n/a	93445	ignore	1700	n/a	n/a	1
95.1450000000	n/a	95145	ignore	1567	n/a	n/a	1
97.7780000000	n/a	97778	ignore	1000	n/a	n/a	1
99.7790000000	n/a	99779	STATUS	1700	n/a	n/a	1
101.4780000000	n/a	101478	ignore	6415	n/a	n/a	1
107.9620000000	n/a	107962	ignore 	2000	n/a	n/a	1
114.7450000000	n/a	114745	ignore	1000	n/a	n/a	1
116.7450000000	n/a	116745	STATUS	1700	n/a	n/a	1
118.4450000000	n/a	118445	ignore	1652	n/a	n/a	0
121.1620000000	n/a	121162	ignore	1000	n/a	n/a	1
123.1620000000	n/a	123162	ignore	1700	n/a	n/a	1
124.8620000000	n/a	124862	ignore	4721	n/a	n/a	0
130.6450000000	n/a	130645	ignore	1000	n/a	n/a	1
132.6450000000	n/a	132645	ignore	1700	n/a	n/a	1
134.3450000000	n/a	134345	ignore	642	n/a	n/a	1
136.0620000000	n/a	136062	ignore	1000	n/a	n/a	1
138.0620000000	n/a	138062	ignore	1700	n/a	n/a	1
139.7620000000	n/a	139762	ignore	5761	n/a	n/a	1
146.5950000000	n/a	146595	ignore	1000	n/a	n/a	1
148.5950000000	n/a	148595	ignore	1700	n/a	n/a	1
150.2950000000	n/a	150295	ignore	969	n/a	n/a	0
152.3280000000	n/a	152328	ignore	1000	n/a	n/a	1
154.3280000000	n/a	154328	ignore	1700	n/a	n/a	1
156.0280000000	n/a	156028	ignore	4095	n/a	n/a	1
161.1950000000	n/a	161195	ignore	1000	n/a	n/a	1
163.1950000000	n/a	163195	ignore	1700	n/a	n/a	1
164.8950000000	n/a	164895	ignore	672	n/a	n/a	0
166.6450000000	n/a	166645	ignore	1000	n/a	n/a	1
168.6450000000	n/a	168645	ignore	1700	n/a	n/a	1
170.3450000000	n/a	170345	ignore	2166	n/a	n/a	1
172.5780000000	n/a	172578	ignore 	2000	n/a	n/a	1
182.2780000000	n/a	182278	PenaltyB1	2554	n/a	n/a	1
185.8950000000	n/a	185895	NeuCorrB1	1000	n/a	n/a	1
187.8950000000	n/a	187895	ignore	1700	n/a	n/a	1
189.5950000000	n/a	189595	PenaltyB1	1881	n/a	n/a	0
192.5450000000	n/a	192545	PunIncorrB1	1000	n/a	n/a	1
194.5450000000	n/a	194545	ignore	1700	n/a	n/a	1
196.2450000000	n/a	196245	PenaltyB1	632	n/a	n/a	0
197.9450000000	n/a	197945	PunIncorrB1	1000	n/a	n/a	1
199.9450000000	n/a	199945	STATUS	1700	n/a	n/a	1
201.6450000000	n/a	201645	RewardB1	1287	n/a	n/a	1
203.9950000000	n/a	203995	RewardCorrB1	1000	n/a	n/a	1
205.9950000000	n/a	205995	ignore	1700	n/a	n/a	1
207.6950000000	n/a	207695	RewardB1	4208	n/a	n/a	1
212.9780000000	n/a	212978	RewardCorrB1	1000	n/a	n/a	1
214.9780000000	n/a	214978	ignore	1700	n/a	n/a	1
216.6780000000	n/a	216678	PenaltyB1	1156	n/a	n/a	1
218.9120000000	n/a	218912	NeuCorrB1	1000	n/a	n/a	1
220.9120000000	n/a	220912	ignore	1700	n/a	n/a	1
222.6120000000	n/a	222612	PenaltyB1	2819	n/a	n/a	0
226.4950000000	n/a	226495	PunIncorrB1	1000	n/a	n/a	1
228.4950000000	n/a	228495	ignore	1700	n/a	n/a	1
230.1950000000	n/a	230195	PenaltyB1	952	n/a	n/a	1
232.2120000000	n/a	232212	NeuCorrB1	1000	n/a	n/a	1
234.2120000000	n/a	234212	ignore	1700	n/a	n/a	1
235.9120000000	n/a	235912	PenaltyB1	2451	n/a	n/a	1
239.4280000000	n/a	239428	PunCorrB1	1000	n/a	n/a	1
241.4280000000	n/a	241428	STATUS	1700	n/a	n/a	1
243.1280000000	n/a	243128	RewardB1	1050	n/a	n/a	1
245.2450000000	n/a	245245	RewardCorrB1	1000	n/a	n/a	1
247.2450000000	n/a	247245	ignore	1700	n/a	n/a	1
248.9450000000	n/a	248945	PenaltyB1	799	n/a	n/a	1
250.8120000000	n/a	250812	NeuCorrB1	1000	n/a	n/a	1
252.8120000000	n/a	252812	ignore	1700	n/a	n/a	1
254.5120000000	n/a	254512	RewardB1	658	n/a	n/a	1
256.2450000000	n/a	256245	NeuCorrB1	1000	n/a	n/a	1
258.2450000000	n/a	258245	ignore	1700	n/a	n/a	1
259.9450000000	n/a	259945	PenaltyB1	1702	n/a	n/a	0
262.7120000000	n/a	262712	PunIncorrB1	1000	n/a	n/a	1
264.7120000000	n/a	264712	STATUS	1700	n/a	n/a	1
266.4110000000	n/a	266411	RewardB1	1733	n/a	n/a	1
269.2110000000	n/a	269211	RewardCorrB1	1000	n/a	n/a	1
271.2120000000	n/a	271212	ignore	1700	n/a	n/a	1
272.9110000000	n/a	272911	PenaltyB1	1332	n/a	n/a	1
275.3110000000	n/a	275311	NeuCorrB1	1000	n/a	n/a	1
277.3120000000	n/a	277312	ignore	1700	n/a	n/a	1
279.0110000000	n/a	279011	PenaltyB1	2090	n/a	n/a	0
282.1780000000	n/a	282178	PunIncorrB1	1000	n/a	n/a	1
284.1780000000	n/a	284178	STATUS	1700	n/a	n/a	1
285.8780000000	n/a	285878	RewardB1	2385	n/a	n/a	1
289.3280000000	n/a	289328	NeuCorrB1	1000	n/a	n/a	1
291.3280000000	n/a	291328	STATUS	1700	n/a	n/a	1
293.0280000000	n/a	293028	PenaltyB1	784	n/a	n/a	1
294.8780000000	n/a	294878	NeuCorrB1	1000	n/a	n/a	1
296.8780000000	n/a	296878	STATUS	1700	n/a	n/a	1
298.5780000000	n/a	298578	RewardB1	794	n/a	n/a	1
300.4450000000	n/a	300445	RewardCorrB1	1000	n/a	n/a	1
302.4450000000	n/a	302445	ignore	1700	n/a	n/a	1
304.1450000000	n/a	304145	RewardB1	559	n/a	n/a	1
305.7780000000	n/a	305778	RewardCorrB1	1000	n/a	n/a	1
307.7780000000	n/a	307778	ignore	1700	n/a	n/a	1
309.4780000000	n/a	309478	RewardB1	2034	n/a	n/a	1
312.5780000000	n/a	312578	NeuCorrB1	1000	n/a	n/a	1
314.5780000000	n/a	314578	ignore	1700	n/a	n/a	1
316.2780000000	n/a	316278	RewardB1	1400	n/a	n/a	1
318.7450000000	n/a	318745	RewardCorrB1	1000	n/a	n/a	1
320.7450000000	n/a	320745	ignore	1700	n/a	n/a	1
322.4450000000	n/a	322445	RewardB1	777	n/a	n/a	1
324.2950000000	n/a	324295	RewardCorrB1	1000	n/a	n/a	1
326.2950000000	n/a	326295	ignore	1700	n/a	n/a	1
327.9950000000	n/a	327995	PenaltyB1	1675	n/a	n/a	1
330.7450000000	n/a	330745	NeuCorrB1	1000	n/a	n/a	1
332.7450000000	n/a	332745	ignore	1700	n/a	n/a	1
334.4450000000	n/a	334445	RewardB1	1080	n/a	n/a	1
336.5950000000	n/a	336595	RewardCorrB1	1000	n/a	n/a	1
338.5950000000	n/a	338595	ignore	1700	n/a	n/a	1
340.2950000000	n/a	340295	PenaltyB1	1628	n/a	n/a	1
342.9950000000	n/a	342995	PunCorrB1	1000	n/a	n/a	1
344.9950000000	n/a	344995	ignore	1700	n/a	n/a	1
346.6950000000	n/a	346695	RewardB1	645	n/a	n/a	1
348.4110000000	n/a	348411	RewardCorrB1	1000	n/a	n/a	1
350.4110000000	n/a	350411	ignore	1700	n/a	n/a	1
352.1110000000	n/a	352111	RewardB1	868	n/a	n/a	1
354.0450000000	n/a	354045	RewardCorrB1	1000	n/a	n/a	1
356.0450000000	n/a	356045	ignore	1700	n/a	n/a	1
357.7450000000	n/a	357745	RewardB1	654	n/a	n/a	1
359.4610000000	n/a	359461	RewardCorrB1	1000	n/a	n/a	1
361.4610000000	n/a	361461	ignore	1700	n/a	n/a	1
363.1610000000	n/a	363161	PenaltyB1	3016	n/a	n/a	1
367.2450000000	n/a	367245	NeuCorrB1	1000	n/a	n/a	1
369.2450000000	n/a	369245	ignore	1700	n/a	n/a	1
370.9450000000	n/a	370945	RewardB1	652	n/a	n/a	1
372.6610000000	n/a	372661	NeuCorrB1	1000	n/a	n/a	1
374.6610000000	n/a	374661	ignore	1700	n/a	n/a	1
376.3610000000	n/a	376361	PenaltyB1	4290	n/a	n/a	1
381.7280000000	n/a	381728	NeuCorrB1	1000	n/a	n/a	1
383.7280000000	n/a	383728	ignore	1700	n/a	n/a	1
385.4280000000	n/a	385428	RewardB1	810	n/a	n/a	1
387.3110000000	n/a	387311	RewardCorrB1	1000	n/a	n/a	1
389.3110000000	n/a	389311	ignore	1700	n/a	n/a	1
391.0110000000	n/a	391011	PenaltyB1	653	n/a	n/a	0
392.7280000000	n/a	392728	NeuIncorrB1	1000	n/a	n/a	1
394.7280000000	n/a	394728	ignore	1700	n/a	n/a	1
396.4280000000	n/a	396428	RewardB1	553	n/a	n/a	1
398.0450000000	n/a	398045	RewardCorrB1	1000	n/a	n/a	1
400.0450000000	n/a	400045	ignore	1700	n/a	n/a	1
401.7450000000	n/a	401745	PenaltyB1	1460	n/a	n/a	0
404.2780000000	n/a	404278	PunIncorrB1	1000	n/a	n/a	1
406.2780000000	n/a	406278	ignore	1700	n/a	n/a	1
407.9780000000	n/a	407978	PenaltyB1	1467	n/a	n/a	1
410.5110000000	n/a	410511	NeuCorrB1	1000	n/a	n/a	1
412.5110000000	n/a	412511	ignore	1700	n/a	n/a	1
414.2110000000	n/a	414211	RewardB1	2220	n/a	n/a	1
417.4950000000	n/a	417495	RewardCorrB1	1000	n/a	n/a	1
419.4950000000	n/a	419495	ignore	1700	n/a	n/a	1
421.1950000000	n/a	421195	PenaltyB1	1313	n/a	n/a	1
423.5780000000	n/a	423578	PunCorrB1	1000	n/a	n/a	1
425.5780000000	n/a	425578	ignore	1700	n/a	n/a	1
427.2780000000	n/a	427278	RewardB1	766	n/a	n/a	1
429.1110000000	n/a	429111	RewardCorrB1	1000	n/a	n/a	1
431.1110000000	n/a	431111	ignore	1700	n/a	n/a	1
437.0450000000	n/a	437045	RewardB2	1034	n/a	n/a	1
439.1450000000	n/a	439145	RewardCorrB2	1000	n/a	n/a	1
441.1450000000	n/a	441145	STATUS	1700	n/a	n/a	1
442.8450000000	n/a	442845	PenaltyB2	890	n/a	n/a	0
444.8110000000	n/a	444811	PunIncorrB2	1000	n/a	n/a	1
446.8110000000	n/a	446811	ignore	1700	n/a	n/a	1
448.5110000000	n/a	448511	RewardB2	698	n/a	n/a	1
450.2780000000	n/a	450278	RewardCorrB2	1000	n/a	n/a	1
452.2780000000	n/a	452278	STATUS	1700	n/a	n/a	1
453.9780000000	n/a	453978	RewardB2	1384	n/a	n/a	1
456.4280000000	n/a	456428	NeuCorrB2	1000	n/a	n/a	1
458.4280000000	n/a	458428	STATUS	1700	n/a	n/a	1
460.1280000000	n/a	460128	PenaltyB2	1527	n/a	n/a	0
462.7280000000	n/a	462728	PunIncorrB2	1000	n/a	n/a	1
464.7280000000	n/a	464728	ignore	1700	n/a	n/a	1
466.4280000000	n/a	466428	RewardB2	684	n/a	n/a	1
468.1780000000	n/a	468178	RewardCorrB2	1000	n/a	n/a	1
470.1780000000	n/a	470178	STATUS	1700	n/a	n/a	1
471.8780000000	n/a	471878	PenaltyB2	776	n/a	n/a	0
473.7280000000	n/a	473728	PunIncorrB2	1000	n/a	n/a	1
475.7280000000	n/a	475728	ignore	1700	n/a	n/a	1
477.4280000000	n/a	477428	RewardB2	735	n/a	n/a	1
479.2280000000	n/a	479228	RewardCorrB2	1000	n/a	n/a	1
481.2280000000	n/a	481228	STATUS	1700	n/a	n/a	1
482.9280000000	n/a	482928	PenaltyB2	1984	n/a	n/a	1
485.9780000000	n/a	485978	NeuCorrB2	1000	n/a	n/a	1
487.9780000000	n/a	487978	STATUS	1700	n/a	n/a	1
489.6780000000	n/a	489678	RewardB2	1429	n/a	n/a	1
492.1780000000	n/a	492178	RewardCorrB2	1000	n/a	n/a	1
494.1780000000	n/a	494178	STATUS	1700	n/a	n/a	1
495.8780000000	n/a	495878	PenaltyB2	3512	n/a	n/a	0
500.4610000000	n/a	500461	NeuIncorrB2	1000	n/a	n/a	1
502.4610000000	n/a	502461	STATUS	1700	n/a	n/a	1
504.1610000000	n/a	504161	RewardB2	626	n/a	n/a	1
505.8610000000	n/a	505861	RewardCorrB2	1000	n/a	n/a	1
507.8610000000	n/a	507861	STATUS	1700	n/a	n/a	1
509.5610000000	n/a	509561	PenaltyB2	1147	n/a	n/a	0
511.7780000000	n/a	511778	PunIncorrB2	1000	n/a	n/a	1
513.7780000000	n/a	513778	STATUS	1700	n/a	n/a	1
515.4780000000	n/a	515478	RewardB2	1329	n/a	n/a	1
517.8780000000	n/a	517878	RewardCorrB2	1000	n/a	n/a	1
519.8780000000	n/a	519878	STATUS	1700	n/a	n/a	1
521.5780000000	n/a	521578	PenaltyB2	1070	n/a	n/a	0
523.7110000000	n/a	523711	PunIncorrB2	1000	n/a	n/a	1
525.7110000000	n/a	525711	STATUS	1700	n/a	n/a	1
527.4110000000	n/a	527411	RewardB2	1651	n/a	n/a	1
530.1280000000	n/a	530128	NeuCorrB2	1000	n/a	n/a	1
532.1280000000	n/a	532128	STATUS	1700	n/a	n/a	1
533.8280000000	n/a	533828	PenaltyB2	1249	n/a	n/a	0
536.1440000000	n/a	536144	PunIncorrB2	1000	n/a	n/a	1
538.1440000000	n/a	538144	STATUS	1700	n/a	n/a	1
539.8440000000	n/a	539844	RewardB2	1073	n/a	n/a	1
541.9940000000	n/a	541994	RewardCorrB2	1000	n/a	n/a	1
543.9940000000	n/a	543994	STATUS	1700	n/a	n/a	1
545.6940000000	n/a	545694	PenaltyB2	1926	n/a	n/a	1
548.6940000000	n/a	548694	NeuCorrB2	1000	n/a	n/a	1
550.6940000000	n/a	550694	STATUS	1700	n/a	n/a	1
552.3940000000	n/a	552394	RewardB2	1398	n/a	n/a	1
554.8610000000	n/a	554861	RewardCorrB2	1000	n/a	n/a	1
556.8610000000	n/a	556861	STATUS	1700	n/a	n/a	1
558.5610000000	n/a	558561	PenaltyB2	954	n/a	n/a	1
560.5780000000	n/a	560578	PunCorrB2	1000	n/a	n/a	1
562.5780000000	n/a	562578	STATUS	1700	n/a	n/a	1
564.2780000000	n/a	564278	PenaltyB2	1088	n/a	n/a	1
566.4280000000	n/a	566428	NeuCorrB2	1000	n/a	n/a	1
568.4280000000	n/a	568428	STATUS	1700	n/a	n/a	1
570.1280000000	n/a	570128	PenaltyB2	833	n/a	n/a	0
572.0280000000	n/a	572028	PunIncorrB2	1000	n/a	n/a	1
574.0280000000	n/a	574028	STATUS	1700	n/a	n/a	1
575.7280000000	n/a	575728	RewardB2	1016	n/a	n/a	1
577.8110000000	n/a	577811	RewardCorrB2	1000	n/a	n/a	1
579.8110000000	n/a	579811	STATUS	1700	n/a	n/a	1
581.5110000000	n/a	581511	RewardB2	611	n/a	n/a	1
583.1940000000	n/a	583194	NeuCorrB2	1000	n/a	n/a	1
585.1940000000	n/a	585194	STATUS	1700	n/a	n/a	1
586.8940000000	n/a	586894	RewardB2	589	n/a	n/a	1
588.5610000000	n/a	588561	RewardCorrB2	1000	n/a	n/a	1
590.5610000000	n/a	590561	STATUS	1700	n/a	n/a	1
592.2610000000	n/a	592261	PenaltyB2	3654	n/a	n/a	1
596.9780000000	n/a	596978	NeuCorrB2	1000	n/a	n/a	1
598.9780000000	n/a	598978	STATUS	1700	n/a	n/a	1
600.6780000000	n/a	600678	PenaltyB2	1555	n/a	n/a	1
603.3110000000	n/a	603311	NeuCorrB2	1000	n/a	n/a	1
605.3110000000	n/a	605311	STATUS	1700	n/a	n/a	1
607.0110000000	n/a	607011	RewardB2	2936	n/a	n/a	1
611.0110000000	n/a	611011	RewardCorrB2	1000	n/a	n/a	1
613.0110000000	n/a	613011	STATUS	1700	n/a	n/a	1
614.7110000000	n/a	614711	PenaltyB2	986	n/a	n/a	1
616.7610000000	n/a	616761	NeuCorrB2	1000	n/a	n/a	1
618.7610000000	n/a	618761	STATUS	1700	n/a	n/a	1
620.4610000000	n/a	620461	RewardB2	997	n/a	n/a	1
622.5280000000	n/a	622528	NeuCorrB2	1000	n/a	n/a	1
624.5280000000	n/a	624528	STATUS	1700	n/a	n/a	1
626.2280000000	n/a	626228	PenaltyB2	882	n/a	n/a	1
628.1780000000	n/a	628178	NeuCorrB2	1000	n/a	n/a	1
630.1780000000	n/a	630178	STATUS	1700	n/a	n/a	1
631.8780000000	n/a	631878	RewardB2	946	n/a	n/a	1
633.8940000000	n/a	633894	RewardCorrB2	1000	n/a	n/a	1
635.8940000000	n/a	635894	STATUS	1700	n/a	n/a	1
637.5940000000	n/a	637594	PenaltyB2	2312	n/a	n/a	1
640.9780000000	n/a	640978	NeuCorrB2	1000	n/a	n/a	1
642.9780000000	n/a	642978	STATUS	1700	n/a	n/a	1
644.6780000000	n/a	644678	PenaltyB2	899	n/a	n/a	1
646.6440000000	n/a	646644	PunCorrB2	1000	n/a	n/a	1
648.6440000000	n/a	648644	STATUS	1700	n/a	n/a	1
650.3440000000	n/a	650344	RewardB2	749	n/a	n/a	1
652.1610000000	n/a	652161	RewardCorrB2	1000	n/a	n/a	1
654.1610000000	n/a	654161	STATUS	1700	n/a	n/a	1
655.8610000000	n/a	655861	PenaltyB2	1285	n/a	n/a	0
658.2110000000	n/a	658211	PunIncorrB2	1000	n/a	n/a	1
660.2110000000	n/a	660211	STATUS	1700	n/a	n/a	1
661.9110000000	n/a	661911	RewardB2	914	n/a	n/a	1
663.8940000000	n/a	663894	RewardCorrB2	1000	n/a	n/a	1
665.8940000000	n/a	665894	STATUS	1700	n/a	n/a	1
667.5940000000	n/a	667594	PenaltyB2	1022	n/a	n/a	1
669.6940000000	n/a	669694	PunCorrB2	1000	n/a	n/a	1
671.6940000000	n/a	671694	STATUS	1700	n/a	n/a	1
673.3940000000	n/a	673394	RewardB2	993	n/a	n/a	1
675.4610000000	n/a	675461	RewardCorrB2	1000	n/a	n/a	1
677.4610000000	n/a	677461	STATUS	1700	n/a	n/a	1
684.2610000000	n/a	684261	RewardB3	1328	n/a	n/a	1
686.6610000000	n/a	686661	RewardCorrB3	1000	n/a	n/a	1
688.6610000000	n/a	688661	STATUS	1700	n/a	n/a	1
690.3610000000	n/a	690361	PenaltyB3	1427	n/a	n/a	1
692.8610000000	n/a	692861	PunCorrB3	1000	n/a	n/a	1
694.8610000000	n/a	694861	STATUS	1700	n/a	n/a	1
696.5610000000	n/a	696561	RewardB3	898	n/a	n/a	1
698.5270000000	n/a	698527	RewardCorrB3	1000	n/a	n/a	1
700.5280000000	n/a	700528	STATUS	1700	n/a	n/a	1
702.2270000000	n/a	702227	PenaltyB3	2018	n/a	n/a	1
705.3110000000	n/a	705311	NeuCorrB3	1000	n/a	n/a	1
707.3110000000	n/a	707311	STATUS	1700	n/a	n/a	1
709.0110000000	n/a	709011	PenaltyB3	992	n/a	n/a	1
711.0770000000	n/a	711077	NeuCorrB3	1000	n/a	n/a	1
713.0770000000	n/a	713077	STATUS	1700	n/a	n/a	1
714.7770000000	n/a	714777	RewardB3	830	n/a	n/a	1
716.6770000000	n/a	716677	RewardCorrB3	1000	n/a	n/a	1
718.6770000000	n/a	718677	STATUS	1700	n/a	n/a	1
720.3770000000	n/a	720377	PenaltyB3	1552	n/a	n/a	1
722.9940000000	n/a	722994	PunCorrB3	1000	n/a	n/a	1
724.9940000000	n/a	724994	STATUS	1700	n/a	n/a	1
726.6940000000	n/a	726694	RewardB3	1368	n/a	n/a	1
729.1270000000	n/a	729127	RewardCorrB3	1000	n/a	n/a	1
731.1270000000	n/a	731127	STATUS	1700	n/a	n/a	1
732.8270000000	n/a	732827	PenaltyB3	1218	n/a	n/a	1
735.1110000000	n/a	735111	NeuCorrB3	1000	n/a	n/a	1
737.1110000000	n/a	737111	STATUS	1700	n/a	n/a	1
738.8110000000	n/a	738811	RewardB3	1940	n/a	n/a	1
741.8270000000	n/a	741827	NeuCorrB3	1000	n/a	n/a	1
743.8270000000	n/a	743827	STATUS	1700	n/a	n/a	1
745.5270000000	n/a	745527	PenaltyB3	1633	n/a	n/a	1
748.2270000000	n/a	748227	NeuCorrB3	1000	n/a	n/a	1
750.2270000000	n/a	750227	STATUS	1700	n/a	n/a	1
751.9270000000	n/a	751927	RewardB3	922	n/a	n/a	1
753.9270000000	n/a	753927	RewardCorrB3	1000	n/a	n/a	1
755.9270000000	n/a	755927	STATUS	1700	n/a	n/a	1
757.6270000000	n/a	757627	RewardB3	659	n/a	n/a	1
759.3610000000	n/a	759361	RewardCorrB3	1000	n/a	n/a	1
761.3610000000	n/a	761361	STATUS	1700	n/a	n/a	1
763.0610000000	n/a	763061	RewardB3	1645	n/a	n/a	1
765.7770000000	n/a	765777	RewardCorrB3	1000	n/a	n/a	1
767.7770000000	n/a	767777	STATUS	1700	n/a	n/a	1
769.4770000000	n/a	769477	PenaltyB3	1031	n/a	n/a	1
771.5770000000	n/a	771577	PunCorrB3	1000	n/a	n/a	1
773.5770000000	n/a	773577	STATUS	1700	n/a	n/a	1
775.2770000000	n/a	775277	RewardB3	809	n/a	n/a	1
777.1610000000	n/a	777161	RewardCorrB3	1000	n/a	n/a	1
779.1610000000	n/a	779161	STATUS	1700	n/a	n/a	1
780.8610000000	n/a	780861	PenaltyB3	1262	n/a	n/a	1
783.1940000000	n/a	783194	NeuCorrB3	1000	n/a	n/a	1
785.1940000000	n/a	785194	STATUS	1700	n/a	n/a	1
786.8940000000	n/a	786894	RewardB3	543	n/a	n/a	1
788.5110000000	n/a	788511	RewardCorrB3	1000	n/a	n/a	1
790.5110000000	n/a	790511	STATUS	1700	n/a	n/a	1
792.2110000000	n/a	792211	RewardB3	1447	n/a	n/a	1
794.7270000000	n/a	794727	RewardCorrB3	1000	n/a	n/a	1
796.7270000000	n/a	796727	STATUS	1700	n/a	n/a	1
798.4270000000	n/a	798427	RewardB3	612	n/a	n/a	1
800.1110000000	n/a	800111	NeuCorrB3	1000	n/a	n/a	1
802.1110000000	n/a	802111	STATUS	1700	n/a	n/a	1
803.8110000000	n/a	803811	RewardB3	559	n/a	n/a	1
805.4440000000	n/a	805444	RewardCorrB3	1000	n/a	n/a	1
807.4440000000	n/a	807444	STATUS	1700	n/a	n/a	1
809.1440000000	n/a	809144	RewardB3	494	n/a	n/a	1
810.7110000000	n/a	810711	RewardCorrB3	1000	n/a	n/a	1
812.7110000000	n/a	812711	STATUS	1700	n/a	n/a	1
814.4110000000	n/a	814411	PenaltyB3	2673	n/a	n/a	1
818.1610000000	n/a	818161	NeuCorrB3	1000	n/a	n/a	1
820.1610000000	n/a	820161	STATUS	1700	n/a	n/a	1
821.8610000000	n/a	821861	RewardB3	604	n/a	n/a	1
823.5270000000	n/a	823527	NeuCorrB3	1000	n/a	n/a	1
825.5270000000	n/a	825527	STATUS	1700	n/a	n/a	1
827.2270000000	n/a	827227	PenaltyB3	1897	n/a	n/a	1
830.1940000000	n/a	830194	NeuCorrB3	1000	n/a	n/a	1
832.1940000000	n/a	832194	STATUS	1700	n/a	n/a	1
833.8940000000	n/a	833894	PenaltyB3	779	n/a	n/a	1
835.7440000000	n/a	835744	NeuCorrB3	1000	n/a	n/a	1
837.7440000000	n/a	837744	STATUS	1700	n/a	n/a	1
839.4440000000	n/a	839444	RewardB3	746	n/a	n/a	1
841.2610000000	n/a	841261	RewardCorrB3	1000	n/a	n/a	1
843.2610000000	n/a	843261	STATUS	1700	n/a	n/a	1
844.9610000000	n/a	844961	PenaltyB3	1143	n/a	n/a	1
847.1770000000	n/a	847177	NeuCorrB3	1000	n/a	n/a	1
849.1770000000	n/a	849177	STATUS	1700	n/a	n/a	1
850.8770000000	n/a	850877	RewardB3	660	n/a	n/a	1
852.6110000000	n/a	852611	NeuCorrB3	1000	n/a	n/a	1
854.6110000000	n/a	854611	STATUS	1700	n/a	n/a	1
856.3110000000	n/a	856311	PenaltyB3	2931	n/a	n/a	1
860.3110000000	n/a	860311	NeuCorrB3	1000	n/a	n/a	1
862.3110000000	n/a	862311	STATUS	1700	n/a	n/a	1
864.0110000000	n/a	864011	RewardB3	985	n/a	n/a	1
866.0610000000	n/a	866061	RewardCorrB3	1000	n/a	n/a	1
868.0610000000	n/a	868061	STATUS	1700	n/a	n/a	1
869.7610000000	n/a	869761	PenaltyB3	811	n/a	n/a	1
871.6440000000	n/a	871644	PunCorrB3	1000	n/a	n/a	1
873.6440000000	n/a	873644	STATUS	1700	n/a	n/a	1
875.3440000000	n/a	875344	PenaltyB3	1663	n/a	n/a	1
878.0770000000	n/a	878077	NeuCorrB3	1000	n/a	n/a	1
880.0770000000	n/a	880077	STATUS	1700	n/a	n/a	1
881.7770000000	n/a	881777	PenaltyB3	814	n/a	n/a	1
883.6600000000	n/a	883660	NeuCorrB3	1000	n/a	n/a	1
885.6610000000	n/a	885661	STATUS	1700	n/a	n/a	1
887.3600000000	n/a	887360	PenaltyB3	1282	n/a	n/a	1
889.7100000000	n/a	889710	NeuCorrB3	1000	n/a	n/a	1
891.7110000000	n/a	891711	STATUS	1700	n/a	n/a	1
893.4100000000	n/a	893410	RewardB3	592	n/a	n/a	1
895.0770000000	n/a	895077	RewardCorrB3	1000	n/a	n/a	1
897.0770000000	n/a	897077	STATUS	1700	n/a	n/a	1
898.7770000000	n/a	898777	RewardB3	459	n/a	n/a	1
900.3100000000	n/a	900310	RewardCorrB3	1000	n/a	n/a	1
902.3110000000	n/a	902311	STATUS	1700	n/a	n/a	1
904.0100000000	n/a	904010	PenaltyB3	878	n/a	n/a	1
905.9600000000	n/a	905960	NeuCorrB3	1000	n/a	n/a	1
907.9610000000	n/a	907961	STATUS	1700	n/a	n/a	1
909.6600000000	n/a	909660	PenaltyB3	1833	n/a	n/a	1
912.5600000000	n/a	912560	NeuCorrB3	1000	n/a	n/a	1
914.5610000000	n/a	914561	STATUS	1700	n/a	n/a	1
916.2600000000	n/a	916260	PenaltyB3	861	n/a	n/a	1
918.1940000000	n/a	918194	NeuCorrB3	1000	n/a	n/a	1
920.1940000000	n/a	920194	STATUS	1700	n/a	n/a	1
925.9270000000	n/a	925927	RewardB4	713	n/a	n/a	1
927.7100000000	n/a	927710	RewardCorrB4	1000	n/a	n/a	1
929.7100000000	n/a	929710	STATUS	1700	n/a	n/a	1
931.4100000000	n/a	931410	PenaltyB4	1494	n/a	n/a	1
933.9770000000	n/a	933977	PunCorrB4	1000	n/a	n/a	1
935.9770000000	n/a	935977	STATUS	1700	n/a	n/a	1
937.6770000000	n/a	937677	RewardB4	951	n/a	n/a	1
939.6940000000	n/a	939694	RewardCorrB4	1000	n/a	n/a	1
941.6940000000	n/a	941694	STATUS	1700	n/a	n/a	1
943.3940000000	n/a	943394	PenaltyB4	1785	n/a	n/a	1
946.2440000000	n/a	946244	NeuCorrB4	1000	n/a	n/a	1
948.2440000000	n/a	948244	STATUS	1700	n/a	n/a	1
949.9440000000	n/a	949944	RewardB4	639	n/a	n/a	1
951.6600000000	n/a	951660	RewardCorrB4	1000	n/a	n/a	1
953.6600000000	n/a	953660	STATUS	1700	n/a	n/a	1
955.3600000000	n/a	955360	PenaltyB4	876	n/a	n/a	1
957.3100000000	n/a	957310	PunCorrB4	1000	n/a	n/a	1
959.3100000000	n/a	959310	STATUS	1700	n/a	n/a	1
961.0100000000	n/a	961010	PenaltyB4	1244	n/a	n/a	1
963.3270000000	n/a	963327	NeuCorrB4	1000	n/a	n/a	1
965.3270000000	n/a	965327	STATUS	1700	n/a	n/a	1
967.0270000000	n/a	967027	RewardB4	704	n/a	n/a	1
968.7940000000	n/a	968794	RewardCorrB4	1000	n/a	n/a	1
970.7940000000	n/a	970794	STATUS	1700	n/a	n/a	1
972.4940000000	n/a	972494	PenaltyB4	1493	n/a	n/a	1
975.0600000000	n/a	975060	NeuCorrB4	1000	n/a	n/a	1
977.0600000000	n/a	977060	STATUS	1700	n/a	n/a	1
978.7600000000	n/a	978760	RewardB4	564	n/a	n/a	1
980.3940000000	n/a	980394	NeuCorrB4	1000	n/a	n/a	1
982.3940000000	n/a	982394	STATUS	1700	n/a	n/a	1
984.0940000000	n/a	984094	PenaltyB4	1225	n/a	n/a	1
986.3940000000	n/a	986394	NeuCorrB4	1000	n/a	n/a	1
988.3940000000	n/a	988394	STATUS	1700	n/a	n/a	1
990.0940000000	n/a	990094	RewardB4	691	n/a	n/a	1
991.8600000000	n/a	991860	RewardCorrB4	1000	n/a	n/a	1
993.8600000000	n/a	993860	STATUS	1700	n/a	n/a	1
995.5600000000	n/a	995560	PenaltyB4	1409	n/a	n/a	1
998.0440000000	n/a	998044	NeuCorrB4	1000	n/a	n/a	1
1000.0440000000	n/a	1000044	STATUS	1700	n/a	n/a	1
1001.7440000000	n/a	1001744	PenaltyB4	796	n/a	n/a	1
1003.6100000000	n/a	1003610	NeuCorrB4	1000	n/a	n/a	1
1005.6100000000	n/a	1005610	STATUS	1700	n/a	n/a	1
1007.3100000000	n/a	1007310	RewardB4	709	n/a	n/a	1
1009.0940000000	n/a	1009094	RewardCorrB4	1000	n/a	n/a	1
1011.0940000000	n/a	1011094	STATUS	1700	n/a	n/a	1
1012.7940000000	n/a	1012794	RewardB4	483	n/a	n/a	1
1014.3440000000	n/a	1014344	NeuCorrB4	1000	n/a	n/a	1
1016.3440000000	n/a	1016344	STATUS	1700	n/a	n/a	1
1018.0440000000	n/a	1018044	RewardB4	1496	n/a	n/a	1
1020.6100000000	n/a	1020610	RewardCorrB4	1000	n/a	n/a	1
1022.6100000000	n/a	1022610	STATUS	1700	n/a	n/a	1
1024.3100000000	n/a	1024310	PenaltyB4	619	n/a	n/a	1
1025.9940000000	n/a	1025994	NeuCorrB4	1000	n/a	n/a	1
1027.9940000000	n/a	1027994	STATUS	1700	n/a	n/a	1
1029.6940000000	n/a	1029694	PenaltyB4	615	n/a	n/a	1
1031.3770000000	n/a	1031377	NeuCorrB4	1000	n/a	n/a	1
1033.3770000000	n/a	1033377	STATUS	1700	n/a	n/a	1
1035.0770000000	n/a	1035077	PenaltyB4	1069	n/a	n/a	1
1037.2100000000	n/a	1037210	PunCorrB4	1000	n/a	n/a	1
1039.2100000000	n/a	1039210	STATUS	1700	n/a	n/a	1
1040.9100000000	n/a	1040910	RewardB4	620	n/a	n/a	1
1042.5940000000	n/a	1042594	RewardCorrB4	1000	n/a	n/a	1
1044.5940000000	n/a	1044594	STATUS	1700	n/a	n/a	1
1046.2940000000	n/a	1046294	PenaltyB4	1189	n/a	n/a	1
1048.5600000000	n/a	1048560	NeuCorrB4	1000	n/a	n/a	1
1050.5600000000	n/a	1050560	STATUS	1700	n/a	n/a	1
1052.2600000000	n/a	1052260	RewardB4	1324	n/a	n/a	1
1054.6600000000	n/a	1054660	RewardCorrB4	1000	n/a	n/a	1
1056.6600000000	n/a	1056660	STATUS	1700	n/a	n/a	1
1058.3600000000	n/a	1058360	PenaltyB4	2671	n/a	n/a	1
1062.1100000000	n/a	1062110	NeuCorrB4	1000	n/a	n/a	1
1064.1100000000	n/a	1064110	STATUS	1700	n/a	n/a	1
1065.8100000000	n/a	1065810	RewardB4	855	n/a	n/a	1
1067.7440000000	n/a	1067744	NeuCorrB4	1000	n/a	n/a	1
1069.7440000000	n/a	1069744	STATUS	1700	n/a	n/a	1
1071.4440000000	n/a	1071444	PenaltyB4	1029	n/a	n/a	1
1073.5440000000	n/a	1073544	NeuCorrB4	1000	n/a	n/a	1
1075.5440000000	n/a	1075544	STATUS	1700	n/a	n/a	1
1077.2440000000	n/a	1077244	RewardB4	758	n/a	n/a	1
1079.0770000000	n/a	1079077	RewardCorrB4	1000	n/a	n/a	1
1081.0770000000	n/a	1081077	STATUS	1700	n/a	n/a	1
1082.7770000000	n/a	1082777	PenaltyB4	1158	n/a	n/a	1
1085.0100000000	n/a	1085010	NeuCorrB4	1000	n/a	n/a	1
1087.0100000000	n/a	1087010	STATUS	1700	n/a	n/a	1
1088.7100000000	n/a	1088710	RewardB4	758	n/a	n/a	1
1090.5430000000	n/a	1090543	RewardCorrB4	1000	n/a	n/a	1
1092.5440000000	n/a	1092544	STATUS	1700	n/a	n/a	1
1094.2430000000	n/a	1094243	PenaltyB4	1414	n/a	n/a	1
1096.7270000000	n/a	1096727	PunCorrB4	1000	n/a	n/a	1
1098.7270000000	n/a	1098727	STATUS	1700	n/a	n/a	1
1100.4270000000	n/a	1100427	RewardB4	663	n/a	n/a	1
1102.1600000000	n/a	1102160	RewardCorrB4	1000	n/a	n/a	1
1104.1600000000	n/a	1104160	STATUS	1700	n/a	n/a	1
1105.8600000000	n/a	1105860	PenaltyB4	925	n/a	n/a	1
1107.8600000000	n/a	1107860	NeuCorrB4	1000	n/a	n/a	1
1109.8600000000	n/a	1109860	STATUS	1700	n/a	n/a	1
1111.5600000000	n/a	1111560	RewardB4	725	n/a	n/a	1
1113.3600000000	n/a	1113360	RewardCorrB4	1000	n/a	n/a	1
1115.3600000000	n/a	1115360	STATUS	1700	n/a	n/a	1
1117.0600000000	n/a	1117060	PenaltyB4	3660	n/a	n/a	1
1121.7930000000	n/a	1121793	NeuCorrB4	1000	n/a	n/a	1
1123.7940000000	n/a	1123794	STATUS	1700	n/a	n/a	1
1125.4930000000	n/a	1125493	RewardB4	682	n/a	n/a	1
1127.2430000000	n/a	1127243	RewardCorrB4	1000	n/a	n/a	1
1129.2430000000	n/a	1129243	STATUS	1700	n/a	n/a	1
1130.9430000000	n/a	1130943	PenaltyB4	828	n/a	n/a	1
1132.8430000000	n/a	1132843	NeuCorrB4	1000	n/a	n/a	1
1134.8430000000	n/a	1134843	STATUS	1700	n/a	n/a	1
1136.5430000000	n/a	1136543	RewardB4	670	n/a	n/a	1
1138.2770000000	n/a	1138277	NeuCorrB4	1000	n/a	n/a	1
1140.2770000000	n/a	1140277	STATUS	1700	n/a	n/a	1
1141.9770000000	n/a	1141977	RewardB4	742	n/a	n/a	1
1143.7930000000	n/a	1143793	RewardCorrB4	1000	n/a	n/a	1
1145.7930000000	n/a	1145793	STATUS	1700	n/a	n/a	1
1147.4930000000	n/a	1147493	PenaltyB4	4850	n/a	n/a	1
1153.4100000000	n/a	1153410	NeuCorrB4	1000	n/a	n/a	1
1155.4100000000	n/a	1155410	STATUS	1700	n/a	n/a	1
1157.1100000000	n/a	1157110	RewardB4	551	n/a	n/a	1
1158.7270000000	n/a	1158727	RewardCorrB4	1000	n/a	n/a	1
1160.7270000000	n/a	1160727	STATUS	1700	n/a	n/a	1
1168.3930000000	n/a	1168393	STATUS	1700	n/a	n/a	1
