onset	duration	sample	trial_type	response_time	stim_file	value	correct
6.5380000000	n/a	6538	ignore	n/a	n/a	n/a	n/a
9.6380000000	n/a	9638	ignore	n/a	n/a	n/a	n/a
12.6520000000	n/a	12652	ignore	n/a	n/a	n/a	n/a
29.5210000000	n/a	29521	ignore	n/a	n/a	n/a	n/a
32.6210000000	n/a	32621	ignore	n/a	n/a	n/a	n/a
35.6080000000	n/a	35608	ignore	n/a	n/a	n/a	n/a
51.1050000000	n/a	51105	NeuStim	n/a	n/a	n/a	n/a
54.2050000000	n/a	54205	NeuNonAlcP1000	n/a	n/a	n/a	n/a
59.1920000000	n/a	59192	NeuNonAlcP1000	n/a	n/a	n/a	n/a
67.3550000000	n/a	67355	PosStim	n/a	n/a	n/a	n/a
70.3880000000	n/a	70388	PosAlcStimWithoutStartle	n/a	n/a	n/a	n/a
85.4380000000	n/a	85438	NeuStim	n/a	n/a	n/a	n/a
88.5380000000	n/a	88538	NeuAlcP2000	n/a	n/a	n/a	n/a
92.5250000000	n/a	92525	NeuAlcP2000	n/a	n/a	n/a	n/a
102.4380000000	n/a	102438	NegStim	n/a	n/a	n/a	n/a
105.5380000000	n/a	105538	NegNonAlcP2000	n/a	n/a	n/a	n/a
109.5250000000	n/a	109525	NegNonAlcP2000	n/a	n/a	n/a	n/a
120.7880000000	n/a	120788	NeuStim	n/a	n/a	n/a	n/a
123.8210000000	n/a	123821	NeuNonAlcStimWithoutStartle	n/a	n/a	n/a	n/a
140.4380000000	n/a	140438	PosStim	n/a	n/a	n/a	n/a
143.5380000000	n/a	143538	PosNonAlcP1000	n/a	n/a	n/a	n/a
148.5250000000	n/a	148525	PosNonAlcP1000	n/a	n/a	n/a	n/a
156.8710000000	n/a	156871	NeuStim	n/a	n/a	n/a	n/a
159.9710000000	n/a	159971	NeuAlcP1000	n/a	n/a	n/a	n/a
164.9580000000	n/a	164958	NeuAlcP1000	n/a	n/a	n/a	n/a
175.3710000000	n/a	175371	NegStim	n/a	n/a	n/a	n/a
178.4050000000	n/a	178405	NegNonAlcStimWithoutStartle	n/a	n/a	n/a	n/a
192.9710000000	n/a	192971	NeuStim	n/a	n/a	n/a	n/a
196.0710000000	n/a	196071	NeuNonAlcP1000	n/a	n/a	n/a	n/a
201.0580000000	n/a	201058	NeuNonAlcP1000	n/a	n/a	n/a	n/a
209.3210000000	n/a	209321	NegStim	n/a	n/a	n/a	n/a
212.4210000000	n/a	212421	NegNonAlcP3000	n/a	n/a	n/a	n/a
215.4080000000	n/a	215408	NegNonAlcP3000	n/a	n/a	n/a	n/a
226.0210000000	n/a	226021	PosStim	n/a	n/a	n/a	n/a
229.1210000000	n/a	229121	PosNonAlcP3000	n/a	n/a	n/a	n/a
232.1080000000	n/a	232108	PosNonAlcP3000	n/a	n/a	n/a	n/a
243.4710000000	n/a	243471	NeuStim	n/a	n/a	n/a	n/a
246.5710000000	n/a	246571	NeuAlcP1000	n/a	n/a	n/a	n/a
251.5580000000	n/a	251558	NeuAlcP1000	n/a	n/a	n/a	n/a
262.8710000000	n/a	262871	NegStim	n/a	n/a	n/a	n/a
265.9040000000	n/a	265904	NegAlcStimWithoutStartle	n/a	n/a	n/a	n/a
280.9040000000	n/a	280904	PosStim	n/a	n/a	n/a	n/a
283.9380000000	n/a	283938	PosNonAlcStimWithoutStartle	n/a	n/a	n/a	n/a
299.6210000000	n/a	299621	NegStim	n/a	n/a	n/a	n/a
302.7210000000	n/a	302721	NegAlcP3000	n/a	n/a	n/a	n/a
305.7080000000	n/a	305708	NegAlcP3000	n/a	n/a	n/a	n/a
316.3540000000	n/a	316354	NeuStim	n/a	n/a	n/a	n/a
319.3880000000	n/a	319388	NeuAlcStimWithoutStartle	n/a	n/a	n/a	n/a
334.0880000000	n/a	334088	PosStim	n/a	n/a	n/a	n/a
337.1880000000	n/a	337188	PosNonAlcP1000	n/a	n/a	n/a	n/a
342.1750000000	n/a	342175	PosNonAlcP1000	n/a	n/a	n/a	n/a
353.5040000000	n/a	353504	NegStim	n/a	n/a	n/a	n/a
356.6040000000	n/a	356604	NegAlcP3000	n/a	n/a	n/a	n/a
359.5910000000	n/a	359591	NegAlcP3000	n/a	n/a	n/a	n/a
371.0710000000	n/a	371071	NegStim	n/a	n/a	n/a	n/a
374.1040000000	n/a	374104	NegNonAlcStimWithoutStartle	n/a	n/a	n/a	n/a
390.6710000000	n/a	390671	PosStim	n/a	n/a	n/a	n/a
393.7710000000	n/a	393771	PosAlcP1000	n/a	n/a	n/a	n/a
398.7580000000	n/a	398758	PosAlcP1000	n/a	n/a	n/a	n/a
407.8210000000	n/a	407821	NeuStim	n/a	n/a	n/a	n/a
410.8540000000	n/a	410854	NeuAlcStimWithoutStartle	n/a	n/a	n/a	n/a
426.3370000000	n/a	426337	NegStim	n/a	n/a	n/a	n/a
429.4370000000	n/a	429437	NegNonAlcP1000	n/a	n/a	n/a	n/a
434.4240000000	n/a	434424	NegNonAlcP1000	n/a	n/a	n/a	n/a
445.0210000000	n/a	445021	PosStim	n/a	n/a	n/a	n/a
448.1210000000	n/a	448121	PosAlcP3000	n/a	n/a	n/a	n/a
451.1080000000	n/a	451108	PosAlcP3000	n/a	n/a	n/a	n/a
462.2710000000	n/a	462271	NeuStim	n/a	n/a	n/a	n/a
465.3710000000	n/a	465371	NeuAlcP3000	n/a	n/a	n/a	n/a
468.3580000000	n/a	468358	NeuAlcP3000	n/a	n/a	n/a	n/a
481.1040000000	n/a	481104	NegStim	n/a	n/a	n/a	n/a
484.1370000000	n/a	484137	NegAlcStimWithoutStartle	n/a	n/a	n/a	n/a
499.9040000000	n/a	499904	PosStim	n/a	n/a	n/a	n/a
503.0040000000	n/a	503004	PosNonAlcP2000	n/a	n/a	n/a	n/a
506.9910000000	n/a	506991	PosNonAlcP2000	n/a	n/a	n/a	n/a
516.2710000000	n/a	516271	NegStim	n/a	n/a	n/a	n/a
519.3710000000	n/a	519371	NegAlcP2000	n/a	n/a	n/a	n/a
523.3580000000	n/a	523358	NegAlcP2000	n/a	n/a	n/a	n/a
533.5040000000	n/a	533504	PosStim	n/a	n/a	n/a	n/a
536.6040000000	n/a	536604	PosAlcP2000	n/a	n/a	n/a	n/a
540.5910000000	n/a	540591	PosAlcP2000	n/a	n/a	n/a	n/a
551.5870000000	n/a	551587	NeuStim	n/a	n/a	n/a	n/a
554.6210000000	n/a	554621	NeuAlcStimWithoutStartle	n/a	n/a	n/a	n/a
568.2210000000	n/a	568221	NegStim	n/a	n/a	n/a	n/a
571.3210000000	n/a	571321	NegNonAlcP1000	n/a	n/a	n/a	n/a
576.3080000000	n/a	576308	NegNonAlcP1000	n/a	n/a	n/a	n/a
584.9370000000	n/a	584937	NeuStim	n/a	n/a	n/a	n/a
588.0370000000	n/a	588037	NeuNonAlcP1000	n/a	n/a	n/a	n/a
593.0240000000	n/a	593024	NeuNonAlcP1000	n/a	n/a	n/a	n/a
601.7540000000	n/a	601754	PosStim	n/a	n/a	n/a	n/a
604.8540000000	n/a	604854	PosNonAlcP3000	n/a	n/a	n/a	n/a
607.8410000000	n/a	607841	PosNonAlcP3000	n/a	n/a	n/a	n/a
620.5700000000	n/a	620570	NeuStim	n/a	n/a	n/a	n/a
623.6040000000	n/a	623604	NeuNonAlcStimWithoutStartle	n/a	n/a	n/a	n/a
640.3200000000	n/a	640320	NegStim	n/a	n/a	n/a	n/a
643.3540000000	n/a	643354	NegNonAlcStimWithoutStartle	n/a	n/a	n/a	n/a
656.4540000000	n/a	656454	NeuStim	n/a	n/a	n/a	n/a
659.5540000000	n/a	659554	NeuNonAlcP3000	n/a	n/a	n/a	n/a
662.5410000000	n/a	662541	NeuNonAlcP3000	n/a	n/a	n/a	n/a
674.0540000000	n/a	674054	PosStim	n/a	n/a	n/a	n/a
677.1540000000	n/a	677154	PosAlcP1000	n/a	n/a	n/a	n/a
682.1410000000	n/a	682141	PosAlcP1000	n/a	n/a	n/a	n/a
691.2370000000	n/a	691237	NegStim	n/a	n/a	n/a	n/a
694.3370000000	n/a	694337	NegNonAlcP1000	n/a	n/a	n/a	n/a
699.3240000000	n/a	699324	NegNonAlcP1000	n/a	n/a	n/a	n/a
710.1700000000	n/a	710170	PosStim	n/a	n/a	n/a	n/a
713.2040000000	n/a	713204	PosNonAlcStimWithoutStartle	n/a	n/a	n/a	n/a
729.1370000000	n/a	729137	NeuStim	n/a	n/a	n/a	n/a
732.2370000000	n/a	732237	NeuAlcP2000	n/a	n/a	n/a	n/a
736.2240000000	n/a	736224	NeuAlcP2000	n/a	n/a	n/a	n/a
749.1870000000	n/a	749187	PosStim	n/a	n/a	n/a	n/a
752.2870000000	n/a	752287	PosAlcP1000	n/a	n/a	n/a	n/a
757.2740000000	n/a	757274	PosAlcP1000	n/a	n/a	n/a	n/a
767.8200000000	n/a	767820	NegStim	n/a	n/a	n/a	n/a
770.8540000000	n/a	770854	NegNonAlcStimWithoutStartle	n/a	n/a	n/a	n/a
787.0370000000	n/a	787037	PosStim	n/a	n/a	n/a	n/a
790.1370000000	n/a	790137	PosNonAlcP2000	n/a	n/a	n/a	n/a
794.1240000000	n/a	794124	PosNonAlcP2000	n/a	n/a	n/a	n/a
805.9540000000	n/a	805954	NegStim	n/a	n/a	n/a	n/a
809.0530000000	n/a	809053	NegNonAlcP3000	n/a	n/a	n/a	n/a
812.0410000000	n/a	812041	NegNonAlcP3000	n/a	n/a	n/a	n/a
822.6530000000	n/a	822653	NeuStim	n/a	n/a	n/a	n/a
825.7530000000	n/a	825753	NeuNonAlcP2000	n/a	n/a	n/a	n/a
829.7400000000	n/a	829740	NeuNonAlcP2000	n/a	n/a	n/a	n/a
841.4200000000	n/a	841420	NegStim	n/a	n/a	n/a	n/a
844.4530000000	n/a	844453	NegAlcStimWithoutStartle	n/a	n/a	n/a	n/a
857.6030000000	n/a	857603	PosStim	n/a	n/a	n/a	n/a
860.6370000000	n/a	860637	PosAlcStimWithoutStartle	n/a	n/a	n/a	n/a
874.3530000000	n/a	874353	NeuStim	n/a	n/a	n/a	n/a
877.4530000000	n/a	877453	NeuAlcP3000	n/a	n/a	n/a	n/a
880.4400000000	n/a	880440	NeuAlcP3000	n/a	n/a	n/a	n/a
891.4370000000	n/a	891437	NegStim	n/a	n/a	n/a	n/a
894.5370000000	n/a	894537	NegNonAlcP1000	n/a	n/a	n/a	n/a
899.5240000000	n/a	899524	NegNonAlcP1000	n/a	n/a	n/a	n/a
908.5370000000	n/a	908537	NeuStim	n/a	n/a	n/a	n/a
911.6370000000	n/a	911637	NeuNonAlcP2000	n/a	n/a	n/a	n/a
915.6240000000	n/a	915624	NeuNonAlcP2000	n/a	n/a	n/a	n/a
925.5370000000	n/a	925537	PosStim	n/a	n/a	n/a	n/a
928.5700000000	n/a	928570	PosAlcStimWithoutStartle	n/a	n/a	n/a	n/a
942.1530000000	n/a	942153	NegStim	n/a	n/a	n/a	n/a
945.2530000000	n/a	945253	NegNonAlcP2000	n/a	n/a	n/a	n/a
949.2400000000	n/a	949240	NegNonAlcP2000	n/a	n/a	n/a	n/a
961.8370000000	n/a	961837	NeuStim	n/a	n/a	n/a	n/a
964.9370000000	n/a	964937	NeuAlcP1000	n/a	n/a	n/a	n/a
969.9240000000	n/a	969924	NeuAlcP1000	n/a	n/a	n/a	n/a
