onset	duration	sample	trial_type	response_time	stim_file	value	correct
2.7350000000	n/a	2735	ignore	3480	n/a	n/a	1
7.2850000000	n/a	7285	ignore	1000	n/a	n/a	1
9.2850000000	n/a	9285	ignore	1700	n/a	n/a	1
10.9850000000	n/a	10985	ignore	2232	n/a	n/a	1
14.2850000000	n/a	14285	ignore	1000	n/a	n/a	1
16.2850000000	n/a	16285	ignore	1700	n/a	n/a	1
17.9850000000	n/a	17985	ignore	2288	n/a	n/a	1
21.3510000000	n/a	21351	ignore	1000	n/a	n/a	1
23.3510000000	n/a	23351	ignore	1700	n/a	n/a	1
25.0510000000	n/a	25051	ignore	1512	n/a	n/a	1
27.6350000000	n/a	27635	ignore	1000	n/a	n/a	1
29.6350000000	n/a	29635	ignore	1700	n/a	n/a	1
31.3350000000	n/a	31335	ignore	1452	n/a	n/a	1
33.8510000000	n/a	33851	ignore	1000	n/a	n/a	1
35.8510000000	n/a	35851	ignore	1700	n/a	n/a	1
37.5510000000	n/a	37551	ignore	3487	n/a	n/a	0
42.1010000000	n/a	42101	ignore	1000	n/a	n/a	1
44.1010000000	n/a	44101	ignore	1700	n/a	n/a	1
45.8010000000	n/a	45801	ignore	1726	n/a	n/a	1
48.6010000000	n/a	48601	ignore	1000	n/a	n/a	1
50.6010000000	n/a	50601	ignore	1700	n/a	n/a	1
52.3010000000	n/a	52301	ignore	1986	n/a	n/a	1
55.3510000000	n/a	55351	ignore	1000	n/a	n/a	1
57.3510000000	n/a	57351	STATUS	1700	n/a	n/a	1
59.0510000000	n/a	59051	ignore	3881	n/a	n/a	1
63.0010000000	n/a	63001	ignore 	2000	n/a	n/a	1
71.4180000000	n/a	71418	ignore	1000	n/a	n/a	1
73.4180000000	n/a	73418	STATUS	1700	n/a	n/a	1
75.1180000000	n/a	75118	ignore	1344	n/a	n/a	0
77.5350000000	n/a	77535	ignore	1000	n/a	n/a	1
79.5350000000	n/a	79535	ignore	1700	n/a	n/a	1
81.2350000000	n/a	81235	ignore	1704	n/a	n/a	1
84.0010000000	n/a	84001	ignore	1000	n/a	n/a	1
86.0010000000	n/a	86001	ignore	1700	n/a	n/a	1
87.7010000000	n/a	87701	ignore	744	n/a	n/a	0
89.5180000000	n/a	89518	ignore	1000	n/a	n/a	1
91.5180000000	n/a	91518	ignore	1700	n/a	n/a	1
93.2180000000	n/a	93218	ignore	751	n/a	n/a	0
95.0350000000	n/a	95035	ignore	1000	n/a	n/a	1
97.0350000000	n/a	97035	ignore	1700	n/a	n/a	1
98.7350000000	n/a	98735	ignore	4094	n/a	n/a	0
103.9010000000	n/a	103901	ignore	1000	n/a	n/a	1
105.9010000000	n/a	105901	ignore	1700	n/a	n/a	1
107.6010000000	n/a	107601	ignore	1358	n/a	n/a	1
110.0350000000	n/a	110035	ignore	1000	n/a	n/a	1
112.0350000000	n/a	112035	ignore	1700	n/a	n/a	1
113.7350000000	n/a	113735	ignore	770	n/a	n/a	1
115.5680000000	n/a	115568	ignore	1000	n/a	n/a	1
117.5680000000	n/a	117568	ignore	1700	n/a	n/a	1
119.2680000000	n/a	119268	ignore	1725	n/a	n/a	0
121.0680000000	n/a	121068	STATUS	2000	n/a	n/a	1
173.8010000000	n/a	173801	PenaltyB1	2411	n/a	n/a	1
177.2840000000	n/a	177284	NeuCorrB1	1000	n/a	n/a	1
179.2850000000	n/a	179285	ignore	1700	n/a	n/a	1
180.9840000000	n/a	180984	PenaltyB1	2260	n/a	n/a	0
184.3180000000	n/a	184318	PunIncorrB1	1000	n/a	n/a	1
186.3180000000	n/a	186318	ignore	1700	n/a	n/a	1
188.0180000000	n/a	188018	PenaltyB1	1334	n/a	n/a	0
190.4180000000	n/a	190418	PunIncorrB1	1000	n/a	n/a	1
192.4180000000	n/a	192418	STATUS	1700	n/a	n/a	1
194.1180000000	n/a	194118	RewardB1	2542	n/a	n/a	0
197.7340000000	n/a	197734	NeuIncorrB1	1000	n/a	n/a	1
199.7340000000	n/a	199734	STATUS	1700	n/a	n/a	1
201.4340000000	n/a	201434	RewardB1	1804	n/a	n/a	1
204.3010000000	n/a	204301	RewardCorrB1	1000	n/a	n/a	1
206.3010000000	n/a	206301	ignore	1700	n/a	n/a	1
208.0010000000	n/a	208001	PenaltyB1	1287	n/a	n/a	0
210.3510000000	n/a	210351	PunIncorrB1	1000	n/a	n/a	1
212.3510000000	n/a	212351	STATUS	1700	n/a	n/a	1
214.0510000000	n/a	214051	PenaltyB1	3623	n/a	n/a	0
218.7510000000	n/a	218751	PunIncorrB1	1000	n/a	n/a	1
220.7510000000	n/a	220751	STATUS	1700	n/a	n/a	1
222.4510000000	n/a	222451	PenaltyB1	1844	n/a	n/a	1
225.3680000000	n/a	225368	NeuCorrB1	1000	n/a	n/a	1
227.3680000000	n/a	227368	STATUS	1700	n/a	n/a	1
229.0680000000	n/a	229068	PenaltyB1	1488	n/a	n/a	1
231.6180000000	n/a	231618	PunCorrB1	1000	n/a	n/a	1
233.6180000000	n/a	233618	STATUS	1700	n/a	n/a	1
235.3180000000	n/a	235318	RewardB1	2162	n/a	n/a	1
238.5510000000	n/a	238551	RewardCorrB1	1000	n/a	n/a	1
240.5510000000	n/a	240551	STATUS	1700	n/a	n/a	1
242.2510000000	n/a	242251	PenaltyB1	976	n/a	n/a	1
244.3010000000	n/a	244301	NeuCorrB1	1000	n/a	n/a	1
246.3010000000	n/a	246301	STATUS	1700	n/a	n/a	1
248.0010000000	n/a	248001	RewardB1	2191	n/a	n/a	1
251.2680000000	n/a	251268	NeuCorrB1	1000	n/a	n/a	1
253.2680000000	n/a	253268	STATUS	1700	n/a	n/a	1
254.9680000000	n/a	254968	PenaltyB1	1765	n/a	n/a	0
257.8010000000	n/a	257801	PunIncorrB1	1000	n/a	n/a	1
259.8010000000	n/a	259801	STATUS	1700	n/a	n/a	1
261.5010000000	n/a	261501	RewardB1	1033	n/a	n/a	0
263.6010000000	n/a	263601	NeuIncorrB1	1000	n/a	n/a	1
265.6010000000	n/a	265601	STATUS	1700	n/a	n/a	1
267.3010000000	n/a	267301	PenaltyB1	1145	n/a	n/a	1
269.5180000000	n/a	269518	NeuCorrB1	1000	n/a	n/a	1
271.5180000000	n/a	271518	STATUS	1700	n/a	n/a	1
273.2180000000	n/a	273218	PenaltyB1	1323	n/a	n/a	1
275.6180000000	n/a	275618	NeuCorrB1	1000	n/a	n/a	1
277.6180000000	n/a	277618	STATUS	1700	n/a	n/a	1
279.3180000000	n/a	279318	RewardB1	1569	n/a	n/a	0
281.9510000000	n/a	281951	RewIncorrB1	1000	n/a	n/a	1
283.9510000000	n/a	283951	STATUS	1700	n/a	n/a	1
285.6510000000	n/a	285651	PenaltyB1	2675	n/a	n/a	1
289.4010000000	n/a	289401	NeuCorrB1	1000	n/a	n/a	1
291.4010000000	n/a	291401	STATUS	1700	n/a	n/a	1
293.1010000000	n/a	293101	RewardB1	633	n/a	n/a	0
294.8010000000	n/a	294801	NeuIncorrB1	1000	n/a	n/a	1
296.8010000000	n/a	296801	STATUS	1700	n/a	n/a	1
298.5010000000	n/a	298501	RewardB1	794	n/a	n/a	0
300.3680000000	n/a	300368	NeuIncorrB1	1000	n/a	n/a	1
302.3680000000	n/a	302368	STATUS	1700	n/a	n/a	1
304.0680000000	n/a	304068	RewardB1	806	n/a	n/a	1
305.9510000000	n/a	305951	NeuCorrB1	1000	n/a	n/a	1
307.9510000000	n/a	307951	STATUS	1700	n/a	n/a	1
309.6510000000	n/a	309651	RewardB1	745	n/a	n/a	1
311.4680000000	n/a	311468	RewardCorrB1	1000	n/a	n/a	1
313.4680000000	n/a	313468	STATUS	1700	n/a	n/a	1
315.1680000000	n/a	315168	RewardB1	1604	n/a	n/a	1
317.8340000000	n/a	317834	RewardCorrB1	1000	n/a	n/a	1
319.8340000000	n/a	319834	ignore	1700	n/a	n/a	1
321.5340000000	n/a	321534	PenaltyB1	2621	n/a	n/a	1
325.2180000000	n/a	325218	NeuCorrB1	1000	n/a	n/a	1
327.2180000000	n/a	327218	ignore	1700	n/a	n/a	1
328.9180000000	n/a	328918	RewardB1	668	n/a	n/a	1
330.6510000000	n/a	330651	RewardCorrB1	1000	n/a	n/a	1
332.6510000000	n/a	332651	ignore	1700	n/a	n/a	1
334.3510000000	n/a	334351	PenaltyB1	1131	n/a	n/a	1
336.5510000000	n/a	336551	PunCorrB1	1000	n/a	n/a	1
338.5510000000	n/a	338551	ignore	1700	n/a	n/a	1
340.2510000000	n/a	340251	RewardB1	512	n/a	n/a	1
341.8340000000	n/a	341834	RewardCorrB1	1000	n/a	n/a	1
343.8340000000	n/a	343834	ignore	1700	n/a	n/a	1
345.5340000000	n/a	345534	RewardB1	1397	n/a	n/a	1
348.0010000000	n/a	348001	RewardCorrB1	1000	n/a	n/a	1
350.0010000000	n/a	350001	ignore	1700	n/a	n/a	1
351.7010000000	n/a	351701	RewardB1	613	n/a	n/a	1
353.3840000000	n/a	353384	RewardCorrB1	1000	n/a	n/a	1
355.3840000000	n/a	355384	ignore	1700	n/a	n/a	1
357.0840000000	n/a	357084	PenaltyB1	889	n/a	n/a	0
359.0510000000	n/a	359051	PunIncorrB1	1000	n/a	n/a	1
361.0510000000	n/a	361051	ignore	1700	n/a	n/a	1
362.7510000000	n/a	362751	RewardB1	483	n/a	n/a	1
364.3010000000	n/a	364301	NeuCorrB1	1000	n/a	n/a	1
366.3010000000	n/a	366301	ignore	1700	n/a	n/a	1
368.0010000000	n/a	368001	PenaltyB1	856	n/a	n/a	0
369.9340000000	n/a	369934	PunIncorrB1	1000	n/a	n/a	1
371.9340000000	n/a	371934	ignore	1700	n/a	n/a	1
373.6340000000	n/a	373634	RewardB1	375	n/a	n/a	0
375.0840000000	n/a	375084	NeuIncorrB1	1000	n/a	n/a	1
377.0840000000	n/a	377084	ignore	1700	n/a	n/a	1
378.7840000000	n/a	378784	PenaltyB1	989	n/a	n/a	1
380.8510000000	n/a	380851	PunCorrB1	1000	n/a	n/a	1
382.8510000000	n/a	382851	ignore	1700	n/a	n/a	1
384.5510000000	n/a	384551	RewardB1	570	n/a	n/a	1
386.1840000000	n/a	386184	RewardCorrB1	1000	n/a	n/a	1
388.1840000000	n/a	388184	ignore	1700	n/a	n/a	1
389.8840000000	n/a	389884	PenaltyB1	2827	n/a	n/a	1
393.7840000000	n/a	393784	NeuCorrB1	1000	n/a	n/a	1
395.7840000000	n/a	395784	ignore	1700	n/a	n/a	1
397.4840000000	n/a	397484	PenaltyB1	1585	n/a	n/a	1
400.1340000000	n/a	400134	NeuCorrB1	1000	n/a	n/a	1
402.1340000000	n/a	402134	ignore	1700	n/a	n/a	1
403.8340000000	n/a	403834	RewardB1	517	n/a	n/a	1
405.4170000000	n/a	405417	RewardCorrB1	1000	n/a	n/a	1
407.4170000000	n/a	407417	ignore	1700	n/a	n/a	1
409.1170000000	n/a	409117	PenaltyB1	1554	n/a	n/a	0
411.7340000000	n/a	411734	NeuIncorrB1	1000	n/a	n/a	1
413.7340000000	n/a	413734	ignore	1700	n/a	n/a	1
415.4340000000	n/a	415434	RewardB1	954	n/a	n/a	1
417.4510000000	n/a	417451	RewardCorrB1	1000	n/a	n/a	1
419.4510000000	n/a	419451	ignore	1700	n/a	n/a	1
422.7510000000	n/a	422751	RewardB2	951	n/a	n/a	1
424.7670000000	n/a	424767	RewardCorrB2	1000	n/a	n/a	1
426.7670000000	n/a	426767	ignore	1700	n/a	n/a	1
428.4670000000	n/a	428467	PenaltyB2	2604	n/a	n/a	0
432.1340000000	n/a	432134	PunIncorrB2	1000	n/a	n/a	1
434.1340000000	n/a	434134	ignore	1700	n/a	n/a	1
435.8340000000	n/a	435834	RewardB2	1002	n/a	n/a	1
437.9010000000	n/a	437901	RewardCorrB2	1000	n/a	n/a	1
439.9010000000	n/a	439901	ignore	1700	n/a	n/a	1
441.6010000000	n/a	441601	RewardB2	598	n/a	n/a	1
443.2670000000	n/a	443267	NeuCorrB2	1000	n/a	n/a	1
445.2670000000	n/a	445267	ignore	1700	n/a	n/a	1
446.9670000000	n/a	446967	PenaltyB2	1175	n/a	n/a	0
449.2170000000	n/a	449217	PunIncorrB2	1000	n/a	n/a	1
451.2170000000	n/a	451217	ignore	1700	n/a	n/a	1
452.9170000000	n/a	452917	RewardB2	534	n/a	n/a	1
454.5170000000	n/a	454517	RewardCorrB2	1000	n/a	n/a	1
456.5170000000	n/a	456517	ignore	1700	n/a	n/a	1
458.2170000000	n/a	458217	PenaltyB2	1429	n/a	n/a	0
460.7170000000	n/a	460717	PunIncorrB2	1000	n/a	n/a	1
462.7170000000	n/a	462717	ignore	1700	n/a	n/a	1
464.4170000000	n/a	464417	RewardB2	554	n/a	n/a	1
466.0340000000	n/a	466034	RewardCorrB2	1000	n/a	n/a	1
468.0340000000	n/a	468034	ignore	1700	n/a	n/a	1
469.7340000000	n/a	469734	PenaltyB2	885	n/a	n/a	0
471.6840000000	n/a	471684	PunIncorrB2	1000	n/a	n/a	1
473.6840000000	n/a	473684	ignore	1700	n/a	n/a	1
475.3840000000	n/a	475384	RewardB2	997	n/a	n/a	1
477.4510000000	n/a	477451	RewardCorrB2	1000	n/a	n/a	1
479.4510000000	n/a	479451	ignore	1700	n/a	n/a	1
481.1510000000	n/a	481151	PenaltyB2	2884	n/a	n/a	1
485.1010000000	n/a	485101	PunCorrB2	1000	n/a	n/a	1
487.1010000000	n/a	487101	ignore	1700	n/a	n/a	1
488.8010000000	n/a	488801	RewardB2	785	n/a	n/a	1
490.6510000000	n/a	490651	RewardCorrB2	1000	n/a	n/a	1
492.6510000000	n/a	492651	ignore	1700	n/a	n/a	1
494.3510000000	n/a	494351	PenaltyB2	1813	n/a	n/a	0
497.2340000000	n/a	497234	PunIncorrB2	1000	n/a	n/a	1
499.2340000000	n/a	499234	ignore	1700	n/a	n/a	1
500.9340000000	n/a	500934	RewardB2	443	n/a	n/a	1
502.4510000000	n/a	502451	RewardCorrB2	1000	n/a	n/a	1
504.4510000000	n/a	504451	ignore	1700	n/a	n/a	1
506.1510000000	n/a	506151	PenaltyB2	2084	n/a	n/a	0
509.3010000000	n/a	509301	PunIncorrB2	1000	n/a	n/a	1
511.3010000000	n/a	511301	ignore	1700	n/a	n/a	1
513.0010000000	n/a	513001	RewardB2	483	n/a	n/a	1
514.5510000000	n/a	514551	NeuCorrB2	1000	n/a	n/a	1
516.5510000000	n/a	516551	ignore	1700	n/a	n/a	1
518.2510000000	n/a	518251	PenaltyB2	1661	n/a	n/a	1
520.9840000000	n/a	520984	NeuCorrB2	1000	n/a	n/a	1
522.9840000000	n/a	522984	ignore	1700	n/a	n/a	1
524.6840000000	n/a	524684	RewardB2	561	n/a	n/a	1
526.3170000000	n/a	526317	RewardCorrB2	1000	n/a	n/a	1
528.3170000000	n/a	528317	ignore	1700	n/a	n/a	1
530.0170000000	n/a	530017	PenaltyB2	2218	n/a	n/a	0
533.3010000000	n/a	533301	PunIncorrB2	1000	n/a	n/a	1
535.3010000000	n/a	535301	ignore	1700	n/a	n/a	1
537.0010000000	n/a	537001	RewardB2	3416	n/a	n/a	1
541.4840000000	n/a	541484	RewardCorrB2	1000	n/a	n/a	1
543.4840000000	n/a	543484	ignore	1700	n/a	n/a	1
545.1840000000	n/a	545184	PenaltyB2	2207	n/a	n/a	0
548.4670000000	n/a	548467	NeuIncorrB2	1000	n/a	n/a	1
550.4670000000	n/a	550467	ignore	1700	n/a	n/a	1
552.1670000000	n/a	552167	PenaltyB2	879	n/a	n/a	0
554.1170000000	n/a	554117	PunIncorrB2	1000	n/a	n/a	1
556.1170000000	n/a	556117	ignore	1700	n/a	n/a	1
557.8170000000	n/a	557817	PenaltyB2	1178	n/a	n/a	0
560.0670000000	n/a	560067	PunIncorrB2	1000	n/a	n/a	1
562.0670000000	n/a	562067	ignore	1700	n/a	n/a	1
563.7670000000	n/a	563767	RewardB2	577	n/a	n/a	1
565.4170000000	n/a	565417	RewardCorrB2	1000	n/a	n/a	1
567.4170000000	n/a	567417	ignore	1700	n/a	n/a	1
569.1170000000	n/a	569117	RewardB2	629	n/a	n/a	1
570.8170000000	n/a	570817	NeuCorrB2	1000	n/a	n/a	1
572.8170000000	n/a	572817	ignore	1700	n/a	n/a	1
574.5170000000	n/a	574517	RewardB2	644	n/a	n/a	1
576.2340000000	n/a	576234	RewardCorrB2	1000	n/a	n/a	1
578.2340000000	n/a	578234	ignore	1700	n/a	n/a	1
579.9340000000	n/a	579934	PenaltyB2	2186	n/a	n/a	1
583.1840000000	n/a	583184	NeuCorrB2	1000	n/a	n/a	1
585.1840000000	n/a	585184	ignore	1700	n/a	n/a	1
586.8840000000	n/a	586884	PenaltyB2	1000	n/a	n/a	0
588.9500000000	n/a	588950	PunIncorrB2	1000	n/a	n/a	1
590.9510000000	n/a	590951	ignore	1700	n/a	n/a	1
592.6500000000	n/a	592650	RewardB2	541	n/a	n/a	1
594.2670000000	n/a	594267	RewardCorrB2	1000	n/a	n/a	1
596.2670000000	n/a	596267	ignore	1700	n/a	n/a	1
597.9670000000	n/a	597967	PenaltyB2	1408	n/a	n/a	1
600.4500000000	n/a	600450	NeuCorrB2	1000	n/a	n/a	1
602.4500000000	n/a	602450	ignore	1700	n/a	n/a	1
604.1500000000	n/a	604150	RewardB2	1027	n/a	n/a	1
606.2500000000	n/a	606250	NeuCorrB2	1000	n/a	n/a	1
608.2500000000	n/a	608250	ignore	1700	n/a	n/a	1
609.9500000000	n/a	609950	PenaltyB2	3058	n/a	n/a	1
614.0840000000	n/a	614084	NeuCorrB2	1000	n/a	n/a	1
616.0840000000	n/a	616084	ignore	1700	n/a	n/a	1
617.7840000000	n/a	617784	RewardB2	648	n/a	n/a	1
619.5000000000	n/a	619500	RewardCorrB2	1000	n/a	n/a	1
621.5000000000	n/a	621500	ignore	1700	n/a	n/a	1
623.2000000000	n/a	623200	PenaltyB2	1964	n/a	n/a	1
626.2340000000	n/a	626234	NeuCorrB2	1000	n/a	n/a	1
628.2340000000	n/a	628234	ignore	1700	n/a	n/a	1
629.9340000000	n/a	629934	PenaltyB2	1019	n/a	n/a	1
632.0170000000	n/a	632017	PunCorrB2	1000	n/a	n/a	1
634.0170000000	n/a	634017	ignore	1700	n/a	n/a	1
635.7170000000	n/a	635717	RewardB2	959	n/a	n/a	1
637.7500000000	n/a	637750	RewardCorrB2	1000	n/a	n/a	1
639.7500000000	n/a	639750	ignore	1700	n/a	n/a	1
641.4500000000	n/a	641450	PenaltyB2	4503	n/a	n/a	1
647.0170000000	n/a	647017	NeuCorrB2	1000	n/a	n/a	1
649.0170000000	n/a	649017	ignore	1700	n/a	n/a	1
650.7170000000	n/a	650717	RewardB2	598	n/a	n/a	1
652.3840000000	n/a	652384	RewardCorrB2	1000	n/a	n/a	1
654.3840000000	n/a	654384	ignore	1700	n/a	n/a	1
656.0840000000	n/a	656084	PenaltyB2	2156	n/a	n/a	1
659.3170000000	n/a	659317	PunCorrB2	1000	n/a	n/a	1
661.3170000000	n/a	661317	ignore	1700	n/a	n/a	1
663.0170000000	n/a	663017	RewardB2	1026	n/a	n/a	1
665.1170000000	n/a	665117	RewardCorrB2	1000	n/a	n/a	1
667.1170000000	n/a	667117	ignore	1700	n/a	n/a	1
670.9000000000	n/a	670900	RewardB3	1061	n/a	n/a	1
673.0340000000	n/a	673034	RewardCorrB3	1000	n/a	n/a	1
675.0340000000	n/a	675034	ignore	1700	n/a	n/a	1
676.7340000000	n/a	676734	PenaltyB3	1306	n/a	n/a	1
679.1170000000	n/a	679117	PunCorrB3	1000	n/a	n/a	1
681.1170000000	n/a	681117	ignore	1700	n/a	n/a	1
682.8170000000	n/a	682817	RewardB3	742	n/a	n/a	1
684.6340000000	n/a	684634	RewardCorrB3	1000	n/a	n/a	1
686.6340000000	n/a	686634	ignore	1700	n/a	n/a	1
688.3340000000	n/a	688334	PenaltyB3	1739	n/a	n/a	0
691.1500000000	n/a	691150	PunIncorrB3	1000	n/a	n/a	1
693.1500000000	n/a	693150	ignore	1700	n/a	n/a	1
694.8500000000	n/a	694850	PenaltyB3	1104	n/a	n/a	0
697.0170000000	n/a	697017	PunIncorrB3	1000	n/a	n/a	1
699.0170000000	n/a	699017	ignore	1700	n/a	n/a	1
700.7170000000	n/a	700717	RewardB3	640	n/a	n/a	1
702.4340000000	n/a	702434	RewardCorrB3	1000	n/a	n/a	1
704.4340000000	n/a	704434	ignore	1700	n/a	n/a	1
706.1340000000	n/a	706134	PenaltyB3	1977	n/a	n/a	0
709.1840000000	n/a	709184	NeuIncorrB3	1000	n/a	n/a	1
711.1840000000	n/a	711184	ignore	1700	n/a	n/a	1
712.8840000000	n/a	712884	RewardB3	1383	n/a	n/a	1
715.3340000000	n/a	715334	RewardCorrB3	1000	n/a	n/a	1
717.3340000000	n/a	717334	ignore	1700	n/a	n/a	1
719.0340000000	n/a	719034	PenaltyB3	1570	n/a	n/a	0
721.6670000000	n/a	721667	PunIncorrB3	1000	n/a	n/a	1
723.6670000000	n/a	723667	ignore	1700	n/a	n/a	1
725.3670000000	n/a	725367	RewardB3	628	n/a	n/a	1
727.0670000000	n/a	727067	NeuCorrB3	1000	n/a	n/a	1
729.0670000000	n/a	729067	ignore	1700	n/a	n/a	1
730.7670000000	n/a	730767	PenaltyB3	1148	n/a	n/a	0
732.9840000000	n/a	732984	PunIncorrB3	1000	n/a	n/a	1
734.9840000000	n/a	734984	ignore	1700	n/a	n/a	1
736.6840000000	n/a	736684	RewardB3	582	n/a	n/a	1
738.3340000000	n/a	738334	RewardCorrB3	1000	n/a	n/a	1
740.3340000000	n/a	740334	ignore	1700	n/a	n/a	1
742.0340000000	n/a	742034	RewardB3	739	n/a	n/a	1
743.8500000000	n/a	743850	RewardCorrB3	1000	n/a	n/a	1
745.8500000000	n/a	745850	ignore	1700	n/a	n/a	1
747.5500000000	n/a	747550	RewardB3	587	n/a	n/a	1
749.2000000000	n/a	749200	RewardCorrB3	1000	n/a	n/a	1
751.2000000000	n/a	751200	ignore	1700	n/a	n/a	1
752.9000000000	n/a	752900	PenaltyB3	1771	n/a	n/a	0
755.7340000000	n/a	755734	NeuIncorrB3	1000	n/a	n/a	1
757.7340000000	n/a	757734	ignore	1700	n/a	n/a	1
759.4340000000	n/a	759434	RewardB3	671	n/a	n/a	1
761.1670000000	n/a	761167	RewardCorrB3	1000	n/a	n/a	1
763.1670000000	n/a	763167	STATUS	1700	n/a	n/a	1
764.8670000000	n/a	764867	PenaltyB3	1435	n/a	n/a	1
767.3670000000	n/a	767367	NeuCorrB3	1000	n/a	n/a	1
769.3670000000	n/a	769367	STATUS	1700	n/a	n/a	1
771.0670000000	n/a	771067	RewardB3	827	n/a	n/a	1
772.9670000000	n/a	772967	RewardCorrB3	1000	n/a	n/a	1
774.9670000000	n/a	774967	STATUS	1700	n/a	n/a	1
776.6670000000	n/a	776667	RewardB3	633	n/a	n/a	1
778.3670000000	n/a	778367	RewardCorrB3	1000	n/a	n/a	1
780.3670000000	n/a	780367	STATUS	1700	n/a	n/a	1
782.0670000000	n/a	782067	RewardB3	557	n/a	n/a	1
783.7000000000	n/a	783700	NeuCorrB3	1000	n/a	n/a	1
785.7000000000	n/a	785700	STATUS	1700	n/a	n/a	1
787.4000000000	n/a	787400	RewardB3	726	n/a	n/a	1
789.2000000000	n/a	789200	RewardCorrB3	1000	n/a	n/a	1
791.2000000000	n/a	791200	STATUS	1700	n/a	n/a	1
792.9000000000	n/a	792900	RewardB3	685	n/a	n/a	1
794.6500000000	n/a	794650	RewardCorrB3	1000	n/a	n/a	1
796.6500000000	n/a	796650	STATUS	1700	n/a	n/a	1
798.3500000000	n/a	798350	PenaltyB3	2492	n/a	n/a	1
801.9170000000	n/a	801917	NeuCorrB3	1000	n/a	n/a	1
803.9170000000	n/a	803917	STATUS	1700	n/a	n/a	1
805.6170000000	n/a	805617	RewardB3	703	n/a	n/a	1
807.3830000000	n/a	807383	NeuCorrB3	1000	n/a	n/a	1
809.3840000000	n/a	809384	STATUS	1700	n/a	n/a	1
811.0830000000	n/a	811083	PenaltyB3	2419	n/a	n/a	1
814.5670000000	n/a	814567	NeuCorrB3	1000	n/a	n/a	1
816.5670000000	n/a	816567	STATUS	1700	n/a	n/a	1
818.2670000000	n/a	818267	PenaltyB3	887	n/a	n/a	1
820.2170000000	n/a	820217	NeuCorrB3	1000	n/a	n/a	1
822.2170000000	n/a	822217	STATUS	1700	n/a	n/a	1
823.9170000000	n/a	823917	RewardB3	678	n/a	n/a	1
825.6670000000	n/a	825667	RewardCorrB3	1000	n/a	n/a	1
827.6670000000	n/a	827667	STATUS	1700	n/a	n/a	1
829.3670000000	n/a	829367	PenaltyB3	1015	n/a	n/a	1
831.4500000000	n/a	831450	NeuCorrB3	1000	n/a	n/a	1
833.4500000000	n/a	833450	STATUS	1700	n/a	n/a	1
835.1500000000	n/a	835150	RewardB3	663	n/a	n/a	1
836.8830000000	n/a	836883	NeuCorrB3	1000	n/a	n/a	1
838.8830000000	n/a	838883	STATUS	1700	n/a	n/a	1
840.5830000000	n/a	840583	PenaltyB3	1193	n/a	n/a	0
842.8500000000	n/a	842850	PunIncorrB3	1000	n/a	n/a	1
844.8500000000	n/a	844850	STATUS	1700	n/a	n/a	1
846.5500000000	n/a	846550	RewardB3	885	n/a	n/a	1
848.5000000000	n/a	848500	RewardCorrB3	1000	n/a	n/a	1
850.5000000000	n/a	850500	STATUS	1700	n/a	n/a	1
852.2000000000	n/a	852200	PenaltyB3	1293	n/a	n/a	1
854.5670000000	n/a	854567	PunCorrB3	1000	n/a	n/a	1
856.5670000000	n/a	856567	STATUS	1700	n/a	n/a	1
858.2670000000	n/a	858267	PenaltyB3	2108	n/a	n/a	0
861.4500000000	n/a	861450	PunIncorrB3	1000	n/a	n/a	1
863.4500000000	n/a	863450	STATUS	1700	n/a	n/a	1
865.1500000000	n/a	865150	PenaltyB3	882	n/a	n/a	1
867.1000000000	n/a	867100	NeuCorrB3	1000	n/a	n/a	1
869.1000000000	n/a	869100	STATUS	1700	n/a	n/a	1
870.8000000000	n/a	870800	PenaltyB3	756	n/a	n/a	1
872.6330000000	n/a	872633	NeuCorrB3	1000	n/a	n/a	1
874.6330000000	n/a	874633	STATUS	1700	n/a	n/a	1
876.3330000000	n/a	876333	RewardB3	972	n/a	n/a	1
878.3830000000	n/a	878383	RewardCorrB3	1000	n/a	n/a	1
880.3830000000	n/a	880383	STATUS	1700	n/a	n/a	1
882.0830000000	n/a	882083	RewardB3	726	n/a	n/a	1
883.8830000000	n/a	883883	RewardCorrB3	1000	n/a	n/a	1
885.8830000000	n/a	885883	STATUS	1700	n/a	n/a	1
887.5830000000	n/a	887583	PenaltyB3	1054	n/a	n/a	1
889.7000000000	n/a	889700	NeuCorrB3	1000	n/a	n/a	1
891.7000000000	n/a	891700	STATUS	1700	n/a	n/a	1
893.4000000000	n/a	893400	PenaltyB3	699	n/a	n/a	1
895.1670000000	n/a	895167	NeuCorrB3	1000	n/a	n/a	1
897.1670000000	n/a	897167	STATUS	1700	n/a	n/a	1
898.8670000000	n/a	898867	PenaltyB3	1006	n/a	n/a	1
900.9500000000	n/a	900950	NeuCorrB3	1000	n/a	n/a	1
902.9500000000	n/a	902950	STATUS	1700	n/a	n/a	1
906.5330000000	n/a	906533	RewardB4	895	n/a	n/a	1
908.5000000000	n/a	908500	RewardCorrB4	1000	n/a	n/a	1
910.5000000000	n/a	910500	STATUS	1700	n/a	n/a	1
912.2000000000	n/a	912200	PenaltyB4	3678	n/a	n/a	1
916.9500000000	n/a	916950	PunCorrB4	1000	n/a	n/a	1
918.9500000000	n/a	918950	STATUS	1700	n/a	n/a	1
920.6500000000	n/a	920650	RewardB4	521	n/a	n/a	1
922.2330000000	n/a	922233	RewardCorrB4	1000	n/a	n/a	1
924.2330000000	n/a	924233	STATUS	1700	n/a	n/a	1
925.9330000000	n/a	925933	PenaltyB4	650	n/a	n/a	0
927.6500000000	n/a	927650	PunIncorrB4	1000	n/a	n/a	1
929.6500000000	n/a	929650	STATUS	1700	n/a	n/a	1
931.3500000000	n/a	931350	RewardB4	866	n/a	n/a	1
933.2830000000	n/a	933283	RewardCorrB4	1000	n/a	n/a	1
935.2830000000	n/a	935283	STATUS	1700	n/a	n/a	1
936.9830000000	n/a	936983	PenaltyB4	1131	n/a	n/a	1
939.1830000000	n/a	939183	PunCorrB4	1000	n/a	n/a	1
941.1830000000	n/a	941183	STATUS	1700	n/a	n/a	1
942.8830000000	n/a	942883	PenaltyB4	2246	n/a	n/a	0
946.2000000000	n/a	946200	PunIncorrB4	1000	n/a	n/a	1
948.2000000000	n/a	948200	STATUS	1700	n/a	n/a	1
949.9000000000	n/a	949900	RewardB4	867	n/a	n/a	1
951.8330000000	n/a	951833	RewardCorrB4	1000	n/a	n/a	1
953.8330000000	n/a	953833	STATUS	1700	n/a	n/a	1
955.5330000000	n/a	955533	PenaltyB4	3819	n/a	n/a	1
960.4170000000	n/a	960417	NeuCorrB4	1000	n/a	n/a	1
962.4170000000	n/a	962417	STATUS	1700	n/a	n/a	1
964.1160000000	n/a	964116	RewardB4	731	n/a	n/a	1
965.9170000000	n/a	965917	NeuCorrB4	1000	n/a	n/a	1
967.9170000000	n/a	967917	STATUS	1700	n/a	n/a	1
969.6160000000	n/a	969616	PenaltyB4	2875	n/a	n/a	0
973.5660000000	n/a	973566	PunIncorrB4	1000	n/a	n/a	1
975.5670000000	n/a	975567	STATUS	1700	n/a	n/a	1
977.2660000000	n/a	977266	RewardB4	2197	n/a	n/a	1
980.5330000000	n/a	980533	RewardCorrB4	1000	n/a	n/a	1
982.5330000000	n/a	982533	STATUS	1700	n/a	n/a	1
984.2330000000	n/a	984233	PenaltyB4	767	n/a	n/a	1
986.0660000000	n/a	986066	NeuCorrB4	1000	n/a	n/a	1
988.0670000000	n/a	988067	STATUS	1700	n/a	n/a	1
989.7660000000	n/a	989766	PenaltyB4	1019	n/a	n/a	1
991.8500000000	n/a	991850	NeuCorrB4	1000	n/a	n/a	1
993.8500000000	n/a	993850	STATUS	1700	n/a	n/a	1
995.5500000000	n/a	995550	RewardB4	859	n/a	n/a	1
997.4830000000	n/a	997483	RewardCorrB4	1000	n/a	n/a	1
999.4830000000	n/a	999483	STATUS	1700	n/a	n/a	1
1001.1830000000	n/a	1001183	RewardB4	934	n/a	n/a	1
1003.1830000000	n/a	1003183	NeuCorrB4	1000	n/a	n/a	1
1005.1830000000	n/a	1005183	STATUS	1700	n/a	n/a	1
1006.8830000000	n/a	1006883	RewardB4	629	n/a	n/a	1
1008.5830000000	n/a	1008583	RewardCorrB4	1000	n/a	n/a	1
1010.5830000000	n/a	1010583	STATUS	1700	n/a	n/a	1
1012.2830000000	n/a	1012283	PenaltyB4	1775	n/a	n/a	1
1015.1330000000	n/a	1015133	NeuCorrB4	1000	n/a	n/a	1
1017.1330000000	n/a	1017133	STATUS	1700	n/a	n/a	1
1018.8330000000	n/a	1018833	PenaltyB4	1038	n/a	n/a	1
1020.9330000000	n/a	1020933	NeuCorrB4	1000	n/a	n/a	1
1022.9330000000	n/a	1022933	STATUS	1700	n/a	n/a	1
1024.6330000000	n/a	1024633	PenaltyB4	4373	n/a	n/a	1
1030.0830000000	n/a	1030083	PunCorrB4	1000	n/a	n/a	1
1032.0830000000	n/a	1032083	STATUS	1700	n/a	n/a	1
1033.7830000000	n/a	1033783	RewardB4	696	n/a	n/a	1
1035.5500000000	n/a	1035550	RewardCorrB4	1000	n/a	n/a	1
1037.5500000000	n/a	1037550	STATUS	1700	n/a	n/a	1
1039.2500000000	n/a	1039250	PenaltyB4	1279	n/a	n/a	1
1041.6000000000	n/a	1041600	NeuCorrB4	1000	n/a	n/a	1
1043.6000000000	n/a	1043600	STATUS	1700	n/a	n/a	1
1045.3000000000	n/a	1045300	RewardB4	697	n/a	n/a	1
1047.0660000000	n/a	1047066	RewardCorrB4	1000	n/a	n/a	1
1049.0660000000	n/a	1049066	STATUS	1700	n/a	n/a	1
1050.7660000000	n/a	1050766	PenaltyB4	3488	n/a	n/a	1
1055.3160000000	n/a	1055316	NeuCorrB4	1000	n/a	n/a	1
1057.3160000000	n/a	1057316	STATUS	1700	n/a	n/a	1
1059.0160000000	n/a	1059016	RewardB4	554	n/a	n/a	1
1060.6330000000	n/a	1060633	NeuCorrB4	1000	n/a	n/a	1
1062.6330000000	n/a	1062633	STATUS	1700	n/a	n/a	1
1064.3330000000	n/a	1064333	PenaltyB4	868	n/a	n/a	0
1066.2660000000	n/a	1066266	PunIncorrB4	1000	n/a	n/a	1
1068.2660000000	n/a	1068266	STATUS	1700	n/a	n/a	1
1069.9660000000	n/a	1069966	RewardB4	604	n/a	n/a	1
1071.6330000000	n/a	1071633	RewardCorrB4	1000	n/a	n/a	1
1073.6330000000	n/a	1073633	STATUS	1700	n/a	n/a	1
1075.3330000000	n/a	1075333	PenaltyB4	2029	n/a	n/a	1
1078.4330000000	n/a	1078433	NeuCorrB4	1000	n/a	n/a	1
1080.4330000000	n/a	1080433	STATUS	1700	n/a	n/a	1
1082.1330000000	n/a	1082133	RewardB4	618	n/a	n/a	1
1083.8160000000	n/a	1083816	RewardCorrB4	1000	n/a	n/a	1
1085.8160000000	n/a	1085816	STATUS	1700	n/a	n/a	1
1087.5160000000	n/a	1087516	PenaltyB4	3427	n/a	n/a	1
1092.0160000000	n/a	1092016	PunCorrB4	1000	n/a	n/a	1
1094.0160000000	n/a	1094016	STATUS	1700	n/a	n/a	1
1095.7160000000	n/a	1095716	RewardB4	749	n/a	n/a	1
1097.5330000000	n/a	1097533	RewardCorrB4	1000	n/a	n/a	1
1099.5330000000	n/a	1099533	STATUS	1700	n/a	n/a	1
1101.2330000000	n/a	1101233	PenaltyB4	3923	n/a	n/a	0
1106.2330000000	n/a	1106233	PunIncorrB4	1000	n/a	n/a	1
1108.2330000000	n/a	1108233	STATUS	1700	n/a	n/a	1
1109.9330000000	n/a	1109933	RewardB4	516	n/a	n/a	1
1111.5160000000	n/a	1111516	RewardCorrB4	1000	n/a	n/a	1
1113.5160000000	n/a	1113516	STATUS	1700	n/a	n/a	1
1115.2160000000	n/a	1115216	PenaltyB4	2907	n/a	n/a	0
1119.2000000000	n/a	1119200	PunIncorrB4	1000	n/a	n/a	1
1121.2000000000	n/a	1121200	STATUS	1700	n/a	n/a	1
1122.9000000000	n/a	1122900	RewardB4	900	n/a	n/a	1
1124.8660000000	n/a	1124866	RewardCorrB4	1000	n/a	n/a	1
1126.8660000000	n/a	1126866	STATUS	1700	n/a	n/a	1
1128.5660000000	n/a	1128566	PenaltyB4	2233	n/a	n/a	0
1131.8660000000	n/a	1131866	PunIncorrB4	1000	n/a	n/a	1
1133.8660000000	n/a	1133866	STATUS	1700	n/a	n/a	1
1135.5660000000	n/a	1135566	RewardB4	491	n/a	n/a	1
1137.1330000000	n/a	1137133	NeuCorrB4	1000	n/a	n/a	1
1139.1330000000	n/a	1139133	STATUS	1700	n/a	n/a	1
1140.8330000000	n/a	1140833	RewardB4	687	n/a	n/a	1
1142.5830000000	n/a	1142583	RewardCorrB4	1000	n/a	n/a	1
1144.5830000000	n/a	1144583	STATUS	1700	n/a	n/a	1
1146.2830000000	n/a	1146283	PenaltyB4	1567	n/a	n/a	0
1148.9160000000	n/a	1148916	PunIncorrB4	1000	n/a	n/a	1
1150.9160000000	n/a	1150916	STATUS	1700	n/a	n/a	1
1152.6160000000	n/a	1152616	RewardB4	814	n/a	n/a	1
1154.5000000000	n/a	1154500	RewardCorrB4	1000	n/a	n/a	1
1156.5000000000	n/a	1156500	STATUS	1700	n/a	n/a	1
