onset	duration	sample	trial_type	response_time	stim_file	value	correct
10.1890000000	n/a	10189	ignore	n/a	n/a	n/a	n/a
13.2890000000	n/a	13289	ignore	n/a	n/a	n/a	n/a
16.2920000000	n/a	16292	ignore	n/a	n/a	n/a	n/a
31.9390000000	n/a	31939	ignore	n/a	n/a	n/a	n/a
35.0390000000	n/a	35039	ignore	n/a	n/a	n/a	n/a
38.0260000000	n/a	38026	ignore	n/a	n/a	n/a	n/a
56.0550000000	n/a	56055	PosStim	n/a	n/a	n/a	n/a
59.0890000000	n/a	59089	PosNonAlcStimWithoutStartle	n/a	n/a	n/a	n/a
73.7890000000	n/a	73789	NegStim	n/a	n/a	n/a	n/a
76.8220000000	n/a	76822	NegNonAlcStimWithoutStartle	n/a	n/a	n/a	n/a
90.2550000000	n/a	90255	NeuStim	n/a	n/a	n/a	n/a
93.3550000000	n/a	93355	NeuNonAlcP2000	n/a	n/a	n/a	n/a
97.3420000000	n/a	97342	NeuNonAlcP2000	n/a	n/a	n/a	n/a
108.2050000000	n/a	108205	NegStim	n/a	n/a	n/a	n/a
111.3050000000	n/a	111305	NegAlcP2000	n/a	n/a	n/a	n/a
115.2920000000	n/a	115292	NegAlcP2000	n/a	n/a	n/a	n/a
127.7220000000	n/a	127722	NeuStim	n/a	n/a	n/a	n/a
130.7550000000	n/a	130755	NeuAlcStimWithoutStartle	n/a	n/a	n/a	n/a
147.4890000000	n/a	147489	PosStim	n/a	n/a	n/a	n/a
150.5890000000	n/a	150589	PosAlcP1000	n/a	n/a	n/a	n/a
155.5760000000	n/a	155576	PosAlcP1000	n/a	n/a	n/a	n/a
166.0220000000	n/a	166022	NeuStim	n/a	n/a	n/a	n/a
169.1220000000	n/a	169122	NeuAlcP2000	n/a	n/a	n/a	n/a
173.1090000000	n/a	173109	NeuAlcP2000	n/a	n/a	n/a	n/a
183.0050000000	n/a	183005	NegStim	n/a	n/a	n/a	n/a
186.1050000000	n/a	186105	NegAlcP3000	n/a	n/a	n/a	n/a
189.0920000000	n/a	189092	NegAlcP3000	n/a	n/a	n/a	n/a
202.7220000000	n/a	202722	PosStim	n/a	n/a	n/a	n/a
205.7550000000	n/a	205755	PosNonAlcStimWithoutStartle	n/a	n/a	n/a	n/a
221.4220000000	n/a	221422	NeuStim	n/a	n/a	n/a	n/a
224.5220000000	n/a	224522	NeuAlcP1000	n/a	n/a	n/a	n/a
229.5090000000	n/a	229509	NeuAlcP1000	n/a	n/a	n/a	n/a
238.7380000000	n/a	238738	NegStim	n/a	n/a	n/a	n/a
241.8380000000	n/a	241838	NegNonAlcP3000	n/a	n/a	n/a	n/a
244.8250000000	n/a	244825	NegNonAlcP3000	n/a	n/a	n/a	n/a
258.5550000000	n/a	258555	PosStim	n/a	n/a	n/a	n/a
261.6550000000	n/a	261655	PosAlcP2000	n/a	n/a	n/a	n/a
265.6420000000	n/a	265642	PosAlcP2000	n/a	n/a	n/a	n/a
278.5050000000	n/a	278505	NegStim	n/a	n/a	n/a	n/a
281.5380000000	n/a	281538	NegNonAlcStimWithoutStartle	n/a	n/a	n/a	n/a
295.1050000000	n/a	295105	PosStim	n/a	n/a	n/a	n/a
298.1380000000	n/a	298138	PosAlcStimWithoutStartle	n/a	n/a	n/a	n/a
311.8720000000	n/a	311872	NeuStim	n/a	n/a	n/a	n/a
314.9720000000	n/a	314972	NeuNonAlcP3000	n/a	n/a	n/a	n/a
317.9590000000	n/a	317959	NeuNonAlcP3000	n/a	n/a	n/a	n/a
329.8880000000	n/a	329888	NegStim	n/a	n/a	n/a	n/a
332.9880000000	n/a	332988	NegAlcP1000	n/a	n/a	n/a	n/a
337.9750000000	n/a	337975	NegAlcP1000	n/a	n/a	n/a	n/a
347.3550000000	n/a	347355	NeuStim	n/a	n/a	n/a	n/a
350.4550000000	n/a	350455	NeuAlcP3000	n/a	n/a	n/a	n/a
353.4420000000	n/a	353442	NeuAlcP3000	n/a	n/a	n/a	n/a
363.7380000000	n/a	363738	PosStim	n/a	n/a	n/a	n/a
366.8380000000	n/a	366838	PosAlcP3000	n/a	n/a	n/a	n/a
369.8250000000	n/a	369825	PosAlcP3000	n/a	n/a	n/a	n/a
383.0220000000	n/a	383022	NeuStim	n/a	n/a	n/a	n/a
386.0550000000	n/a	386055	NeuAlcStimWithoutStartle	n/a	n/a	n/a	n/a
402.1720000000	n/a	402172	NegStim	n/a	n/a	n/a	n/a
405.2720000000	n/a	405272	NegAlcP1000	n/a	n/a	n/a	n/a
410.2590000000	n/a	410259	NegAlcP1000	n/a	n/a	n/a	n/a
418.9050000000	n/a	418905	NeuStim	n/a	n/a	n/a	n/a
422.0050000000	n/a	422005	NeuNonAlcP3000	n/a	n/a	n/a	n/a
424.9920000000	n/a	424992	NeuNonAlcP3000	n/a	n/a	n/a	n/a
438.8720000000	n/a	438872	NegStim	n/a	n/a	n/a	n/a
441.9710000000	n/a	441971	NegNonAlcP2000	n/a	n/a	n/a	n/a
445.9590000000	n/a	445959	NegNonAlcP2000	n/a	n/a	n/a	n/a
456.7210000000	n/a	456721	PosStim	n/a	n/a	n/a	n/a
459.7550000000	n/a	459755	PosNonAlcStimWithoutStartle	n/a	n/a	n/a	n/a
475.9550000000	n/a	475955	NeuStim	n/a	n/a	n/a	n/a
478.9880000000	n/a	478988	NeuNonAlcStimWithoutStartle	n/a	n/a	n/a	n/a
493.8210000000	n/a	493821	PosStim	n/a	n/a	n/a	n/a
496.9210000000	n/a	496921	PosNonAlcP1000	n/a	n/a	n/a	n/a
501.9080000000	n/a	501908	PosNonAlcP1000	n/a	n/a	n/a	n/a
511.6210000000	n/a	511621	NegStim	n/a	n/a	n/a	n/a
514.6550000000	n/a	514655	NegAlcStimWithoutStartle	n/a	n/a	n/a	n/a
529.9210000000	n/a	529921	NeuStim	n/a	n/a	n/a	n/a
533.0210000000	n/a	533021	NeuAlcP2000	n/a	n/a	n/a	n/a
537.0080000000	n/a	537008	NeuAlcP2000	n/a	n/a	n/a	n/a
549.8210000000	n/a	549821	PosStim	n/a	n/a	n/a	n/a
552.9210000000	n/a	552921	PosNonAlcP1000	n/a	n/a	n/a	n/a
557.9080000000	n/a	557908	PosNonAlcP1000	n/a	n/a	n/a	n/a
566.2550000000	n/a	566255	NeuStim	n/a	n/a	n/a	n/a
569.3550000000	n/a	569355	NeuNonAlcP1000	n/a	n/a	n/a	n/a
574.3420000000	n/a	574342	NeuNonAlcP1000	n/a	n/a	n/a	n/a
583.2710000000	n/a	583271	PosStim	n/a	n/a	n/a	n/a
586.3050000000	n/a	586305	PosNonAlcStimWithoutStartle	n/a	n/a	n/a	n/a
601.5550000000	n/a	601555	NegStim	n/a	n/a	n/a	n/a
604.6550000000	n/a	604655	NegAlcP2000	n/a	n/a	n/a	n/a
608.6420000000	n/a	608642	NegAlcP2000	n/a	n/a	n/a	n/a
619.6550000000	n/a	619655	NeuStim	n/a	n/a	n/a	n/a
622.7550000000	n/a	622755	NeuAlcP3000	n/a	n/a	n/a	n/a
625.7420000000	n/a	625742	NeuAlcP3000	n/a	n/a	n/a	n/a
638.0380000000	n/a	638038	NegStim	n/a	n/a	n/a	n/a
641.0710000000	n/a	641071	NegAlcStimWithoutStartle	n/a	n/a	n/a	n/a
654.6210000000	n/a	654621	NeuStim	n/a	n/a	n/a	n/a
657.7210000000	n/a	657721	NeuNonAlcP2000	n/a	n/a	n/a	n/a
661.7080000000	n/a	661708	NeuNonAlcP2000	n/a	n/a	n/a	n/a
672.4880000000	n/a	672488	PosStim	n/a	n/a	n/a	n/a
675.5880000000	n/a	675588	PosNonAlcP3000	n/a	n/a	n/a	n/a
678.5750000000	n/a	678575	PosNonAlcP3000	n/a	n/a	n/a	n/a
692.4880000000	n/a	692488	NegStim	n/a	n/a	n/a	n/a
695.5880000000	n/a	695588	NegAlcP3000	n/a	n/a	n/a	n/a
698.5750000000	n/a	698575	NegAlcP3000	n/a	n/a	n/a	n/a
709.1380000000	n/a	709138	PosStim	n/a	n/a	n/a	n/a
712.1710000000	n/a	712171	PosAlcStimWithoutStartle	n/a	n/a	n/a	n/a
727.7380000000	n/a	727738	NegStim	n/a	n/a	n/a	n/a
730.8380000000	n/a	730838	NegAlcP1000	n/a	n/a	n/a	n/a
735.8250000000	n/a	735825	NegAlcP1000	n/a	n/a	n/a	n/a
746.9040000000	n/a	746904	PosStim	n/a	n/a	n/a	n/a
749.9380000000	n/a	749938	PosAlcStimWithoutStartle	n/a	n/a	n/a	n/a
763.1040000000	n/a	763104	NegStim	n/a	n/a	n/a	n/a
766.2040000000	n/a	766204	NegNonAlcP2000	n/a	n/a	n/a	n/a
770.1910000000	n/a	770191	NegNonAlcP2000	n/a	n/a	n/a	n/a
779.5210000000	n/a	779521	PosStim	n/a	n/a	n/a	n/a
782.6210000000	n/a	782621	PosAlcP2000	n/a	n/a	n/a	n/a
786.6080000000	n/a	786608	PosAlcP2000	n/a	n/a	n/a	n/a
797.3210000000	n/a	797321	NeuStim	n/a	n/a	n/a	n/a
800.3540000000	n/a	800354	NeuNonAlcStimWithoutStartle	n/a	n/a	n/a	n/a
814.8880000000	n/a	814888	PosStim	n/a	n/a	n/a	n/a
817.9880000000	n/a	817988	PosNonAlcP2000	n/a	n/a	n/a	n/a
821.9750000000	n/a	821975	PosNonAlcP2000	n/a	n/a	n/a	n/a
831.1040000000	n/a	831104	NegStim	n/a	n/a	n/a	n/a
834.1380000000	n/a	834138	NegAlcStimWithoutStartle	n/a	n/a	n/a	n/a
848.9380000000	n/a	848938	PosStim	n/a	n/a	n/a	n/a
852.0380000000	n/a	852038	PosAlcP3000	n/a	n/a	n/a	n/a
855.0250000000	n/a	855025	PosAlcP3000	n/a	n/a	n/a	n/a
868.3710000000	n/a	868371	PosStim	n/a	n/a	n/a	n/a
871.4710000000	n/a	871471	PosNonAlcP3000	n/a	n/a	n/a	n/a
874.4580000000	n/a	874458	PosNonAlcP3000	n/a	n/a	n/a	n/a
884.8880000000	n/a	884888	NeuStim	n/a	n/a	n/a	n/a
887.9210000000	n/a	887921	NeuNonAlcStimWithoutStartle	n/a	n/a	n/a	n/a
902.5380000000	n/a	902538	NeuStim	n/a	n/a	n/a	n/a
905.6380000000	n/a	905638	NeuNonAlcP3000	n/a	n/a	n/a	n/a
908.6250000000	n/a	908625	NeuNonAlcP3000	n/a	n/a	n/a	n/a
920.8710000000	n/a	920871	PosStim	n/a	n/a	n/a	n/a
923.9710000000	n/a	923971	PosAlcP2000	n/a	n/a	n/a	n/a
927.9580000000	n/a	927958	PosAlcP2000	n/a	n/a	n/a	n/a
937.6380000000	n/a	937638	NegStim	n/a	n/a	n/a	n/a
940.7380000000	n/a	940738	NegAlcP1000	n/a	n/a	n/a	n/a
945.7250000000	n/a	945725	NegAlcP1000	n/a	n/a	n/a	n/a
957.7710000000	n/a	957771	PosStim	n/a	n/a	n/a	n/a
960.8710000000	n/a	960871	PosNonAlcP2000	n/a	n/a	n/a	n/a
964.8580000000	n/a	964858	PosNonAlcP2000	n/a	n/a	n/a	n/a
976.0710000000	n/a	976071	NeuStim	n/a	n/a	n/a	n/a
979.1040000000	n/a	979104	NeuNonAlcStimWithoutStartle	n/a	n/a	n/a	n/a
996.1210000000	n/a	996121	NegStim	n/a	n/a	n/a	n/a
999.2210000000	n/a	999221	NegAlcP2000	n/a	n/a	n/a	n/a
1003.2080000000	n/a	1003208	NegAlcP2000	n/a	n/a	n/a	n/a
1016.2040000000	n/a	1016204	PosStim	n/a	n/a	n/a	n/a
1019.3040000000	n/a	1019304	PosAlcP3000	n/a	n/a	n/a	n/a
1022.2910000000	n/a	1022291	PosAlcP3000	n/a	n/a	n/a	n/a
1034.5040000000	n/a	1034504	NeuStim	n/a	n/a	n/a	n/a
1037.5370000000	n/a	1037537	NeuAlcStimWithoutStartle	n/a	n/a	n/a	n/a
1054.4870000000	n/a	1054487	NegStim	n/a	n/a	n/a	n/a
1057.5870000000	n/a	1057587	NegNonAlcP3000	n/a	n/a	n/a	n/a
1060.5740000000	n/a	1060574	NegNonAlcP3000	n/a	n/a	n/a	n/a
