onset	duration	sample	trial_type	response_time	stim_file	value	correct
16.2220000000	n/a	16222	ignore	4884	n/a	n/a	0
22.1720000000	n/a	22172	ignore	1000	n/a	n/a	1
24.1720000000	n/a	24172	ignore	1700	n/a	n/a	1
25.8720000000	n/a	25872	ignore	4497	n/a	n/a	1
31.4380000000	n/a	31438	ignore	1000	n/a	n/a	1
33.4380000000	n/a	33438	ignore	1700	n/a	n/a	1
35.1380000000	n/a	35138	ignore	1820	n/a	n/a	1
38.0220000000	n/a	38022	ignore	1000	n/a	n/a	1
40.0220000000	n/a	40022	ignore	1700	n/a	n/a	1
41.7220000000	n/a	41722	ignore	2290	n/a	n/a	0
45.0880000000	n/a	45088	ignore	1000	n/a	n/a	1
47.0880000000	n/a	47088	ignore	1700	n/a	n/a	1
48.7880000000	n/a	48788	ignore	1472	n/a	n/a	0
51.3380000000	n/a	51338	ignore	1000	n/a	n/a	1
53.3380000000	n/a	53338	ignore	1700	n/a	n/a	1
55.0380000000	n/a	55038	ignore	980	n/a	n/a	1
57.0880000000	n/a	57088	ignore	1000	n/a	n/a	1
59.0880000000	n/a	59088	ignore	1700	n/a	n/a	1
60.7880000000	n/a	60788	ignore	312	n/a	n/a	0
62.1720000000	n/a	62172	ignore	1000	n/a	n/a	1
64.1720000000	n/a	64172	STATUS	1700	n/a	n/a	1
65.8720000000	n/a	65872	ignore	322	n/a	n/a	1
67.2720000000	n/a	67272	ignore	1000	n/a	n/a	1
69.2720000000	n/a	69272	STATUS	1700	n/a	n/a	1
70.9720000000	n/a	70972	ignore	6458	n/a	n/a	0
77.5050000000	n/a	77505	STATUS	2000	n/a	n/a	1
84.9550000000	n/a	84955	ignore	1000	n/a	n/a	1
86.9550000000	n/a	86955	STATUS	1700	n/a	n/a	1
88.6550000000	n/a	88655	ignore	3114	n/a	n/a	0
92.8380000000	n/a	92838	ignore	1000	n/a	n/a	1
94.8380000000	n/a	94838	ignore	1700	n/a	n/a	1
96.5380000000	n/a	96538	ignore	838	n/a	n/a	1
98.4550000000	n/a	98455	ignore	1000	n/a	n/a	1
100.4550000000	n/a	100455	ignore	1700	n/a	n/a	1
102.1550000000	n/a	102155	ignore	1694	n/a	n/a	0
104.9220000000	n/a	104922	ignore	1000	n/a	n/a	1
106.9220000000	n/a	106922	ignore	1700	n/a	n/a	1
108.6220000000	n/a	108622	ignore	1147	n/a	n/a	1
110.8380000000	n/a	110838	ignore	1000	n/a	n/a	1
112.8380000000	n/a	112838	ignore	1700	n/a	n/a	1
114.5380000000	n/a	114538	ignore	567	n/a	n/a	0
116.1720000000	n/a	116172	ignore	1000	n/a	n/a	1
118.1720000000	n/a	118172	ignore	1700	n/a	n/a	1
119.8720000000	n/a	119872	ignore	263	n/a	n/a	1
121.2050000000	n/a	121205	ignore	1000	n/a	n/a	1
123.2050000000	n/a	123205	ignore	1700	n/a	n/a	1
124.9050000000	n/a	124905	ignore	354	n/a	n/a	0
126.3220000000	n/a	126322	ignore	1000	n/a	n/a	1
128.3220000000	n/a	128322	ignore	1700	n/a	n/a	1
130.0220000000	n/a	130022	ignore	190	n/a	n/a	0
130.2880000000	n/a	130288	STATUS	2000	n/a	n/a	1
201.1710000000	n/a	201171	PenaltyB1	1483	n/a	n/a	0
203.7210000000	n/a	203721	PunIncorrB1	1000	n/a	n/a	1
205.7220000000	n/a	205722	ignore	1700	n/a	n/a	1
207.4210000000	n/a	207421	PenaltyB1	1795	n/a	n/a	0
210.2880000000	n/a	210288	PunIncorrB1	1000	n/a	n/a	1
212.2880000000	n/a	212288	STATUS	1700	n/a	n/a	1
213.9880000000	n/a	213988	PenaltyB1	1791	n/a	n/a	1
216.8550000000	n/a	216855	NeuCorrB1	1000	n/a	n/a	1
218.8550000000	n/a	218855	STATUS	1700	n/a	n/a	1
220.5550000000	n/a	220555	RewardB1	205	n/a	n/a	1
221.8380000000	n/a	221838	RewardCorrB1	1000	n/a	n/a	1
223.8380000000	n/a	223838	ignore	1700	n/a	n/a	1
225.5380000000	n/a	225538	RewardB1	504	n/a	n/a	0
227.1050000000	n/a	227105	NeuIncorrB1	1000	n/a	n/a	1
229.1050000000	n/a	229105	ignore	1700	n/a	n/a	1
230.8050000000	n/a	230805	PenaltyB1	263	n/a	n/a	1
232.1380000000	n/a	232138	NeuCorrB1	1000	n/a	n/a	1
234.1380000000	n/a	234138	ignore	1700	n/a	n/a	1
235.8380000000	n/a	235838	PenaltyB1	370	n/a	n/a	1
237.2710000000	n/a	237271	NeuCorrB1	1000	n/a	n/a	1
239.2710000000	n/a	239271	ignore	1700	n/a	n/a	1
240.9710000000	n/a	240971	PenaltyB1	453	n/a	n/a	0
242.4880000000	n/a	242488	PunIncorrB1	1000	n/a	n/a	1
244.4880000000	n/a	244488	STATUS	1700	n/a	n/a	1
246.1880000000	n/a	246188	PenaltyB1	66	n/a	n/a	0
247.2550000000	n/a	247255	NeuIncorrB1	1000	n/a	n/a	1
249.2550000000	n/a	249255	STATUS	1700	n/a	n/a	1
250.9550000000	n/a	250955	RewardB1	66	n/a	n/a	0
252.0880000000	n/a	252088	NeuIncorrB1	1000	n/a	n/a	1
254.0880000000	n/a	254088	STATUS	1700	n/a	n/a	1
255.7880000000	n/a	255788	PenaltyB1	66	n/a	n/a	0
256.8710000000	n/a	256871	PunIncorrB1	1000	n/a	n/a	1
258.8710000000	n/a	258871	STATUS	1700	n/a	n/a	1
260.5710000000	n/a	260571	RewardB1	596	n/a	n/a	0
262.2380000000	n/a	262238	RewIncorrB1	1000	n/a	n/a	1
264.2380000000	n/a	264238	STATUS	1700	n/a	n/a	1
265.9380000000	n/a	265938	PenaltyB1	597	n/a	n/a	1
267.6050000000	n/a	267605	NeuCorrB1	1000	n/a	n/a	1
269.6050000000	n/a	269605	STATUS	1700	n/a	n/a	1
271.3050000000	n/a	271305	RewardB1	66	n/a	n/a	0
272.3710000000	n/a	272371	NeuIncorrB1	1000	n/a	n/a	1
274.3710000000	n/a	274371	STATUS	1700	n/a	n/a	1
276.0710000000	n/a	276071	PenaltyB1	1465	n/a	n/a	1
278.6050000000	n/a	278605	NeuCorrB1	1000	n/a	n/a	1
280.6050000000	n/a	280605	STATUS	1700	n/a	n/a	1
282.3050000000	n/a	282305	PenaltyB1	554	n/a	n/a	1
283.9210000000	n/a	283921	NeuCorrB1	1000	n/a	n/a	1
285.9210000000	n/a	285921	STATUS	1700	n/a	n/a	1
287.6210000000	n/a	287621	RewardB1	66	n/a	n/a	0
288.7050000000	n/a	288705	RewIncorrB1	1000	n/a	n/a	1
290.7050000000	n/a	290705	ignore	1700	n/a	n/a	1
292.4050000000	n/a	292405	PenaltyB1	391	n/a	n/a	1
293.8710000000	n/a	293871	NeuCorrB1	1000	n/a	n/a	1
295.8710000000	n/a	295871	ignore	1700	n/a	n/a	1
297.5710000000	n/a	297571	RewardB1	1001	n/a	n/a	0
299.6380000000	n/a	299638	NeuIncorrB1	1000	n/a	n/a	1
301.6380000000	n/a	301638	ignore	1700	n/a	n/a	1
303.3380000000	n/a	303338	RewardB1	660	n/a	n/a	1
305.0710000000	n/a	305071	RewardCorrB1	1000	n/a	n/a	1
307.0710000000	n/a	307071	ignore	1700	n/a	n/a	1
308.7710000000	n/a	308771	RewardB1	722	n/a	n/a	0
310.5710000000	n/a	310571	RewIncorrB1	1000	n/a	n/a	1
312.5710000000	n/a	312571	ignore	1700	n/a	n/a	1
314.2710000000	n/a	314271	RewardB1	1010	n/a	n/a	1
316.3550000000	n/a	316355	RewardCorrB1	1000	n/a	n/a	1
318.3550000000	n/a	318355	ignore	1700	n/a	n/a	1
320.0550000000	n/a	320055	RewardB1	226	n/a	n/a	1
321.3550000000	n/a	321355	RewardCorrB1	1000	n/a	n/a	1
323.3550000000	n/a	323355	ignore	1700	n/a	n/a	1
325.0550000000	n/a	325055	PenaltyB1	707	n/a	n/a	1
326.8380000000	n/a	326838	NeuCorrB1	1000	n/a	n/a	1
328.8380000000	n/a	328838	ignore	1700	n/a	n/a	1
330.5380000000	n/a	330538	RewardB1	1005	n/a	n/a	0
332.6210000000	n/a	332621	NeuIncorrB1	1000	n/a	n/a	1
334.6210000000	n/a	334621	ignore	1700	n/a	n/a	1
336.3210000000	n/a	336321	PenaltyB1	1477	n/a	n/a	0
338.8710000000	n/a	338871	NeuIncorrB1	1000	n/a	n/a	1
340.8710000000	n/a	340871	ignore	1700	n/a	n/a	1
342.5710000000	n/a	342571	RewardB1	666	n/a	n/a	1
344.3050000000	n/a	344305	RewardCorrB1	1000	n/a	n/a	1
346.3050000000	n/a	346305	ignore	1700	n/a	n/a	1
348.0050000000	n/a	348005	RewardB1	341	n/a	n/a	1
349.4210000000	n/a	349421	RewardCorrB1	1000	n/a	n/a	1
351.4210000000	n/a	351421	ignore	1700	n/a	n/a	1
353.1210000000	n/a	353121	RewardB1	2034	n/a	n/a	0
356.2210000000	n/a	356221	NeuIncorrB1	1000	n/a	n/a	1
358.2210000000	n/a	358221	ignore	1700	n/a	n/a	1
359.9210000000	n/a	359921	PenaltyB1	2031	n/a	n/a	0
363.0210000000	n/a	363021	PunIncorrB1	1000	n/a	n/a	1
365.0210000000	n/a	365021	ignore	1700	n/a	n/a	1
366.7210000000	n/a	366721	RewardB1	784	n/a	n/a	0
368.5710000000	n/a	368571	RewIncorrB1	1000	n/a	n/a	1
370.5710000000	n/a	370571	ignore	1700	n/a	n/a	1
372.2710000000	n/a	372271	PenaltyB1	1443	n/a	n/a	0
374.7880000000	n/a	374788	PunIncorrB1	1000	n/a	n/a	1
376.7880000000	n/a	376788	ignore	1700	n/a	n/a	1
378.4880000000	n/a	378488	RewardB1	507	n/a	n/a	0
380.0710000000	n/a	380071	NeuIncorrB1	1000	n/a	n/a	1
382.0710000000	n/a	382071	ignore	1700	n/a	n/a	1
383.7710000000	n/a	383771	PenaltyB1	2406	n/a	n/a	1
387.2550000000	n/a	387255	PunCorrB1	1000	n/a	n/a	1
389.2550000000	n/a	389255	ignore	1700	n/a	n/a	1
390.9550000000	n/a	390955	RewardB1	102	n/a	n/a	1
392.1210000000	n/a	392121	RewardCorrB1	1000	n/a	n/a	1
394.1210000000	n/a	394121	ignore	1700	n/a	n/a	1
395.8210000000	n/a	395821	PenaltyB1	632	n/a	n/a	0
397.5210000000	n/a	397521	PunIncorrB1	1000	n/a	n/a	1
399.5210000000	n/a	399521	ignore	1700	n/a	n/a	1
401.2210000000	n/a	401221	PenaltyB1	301	n/a	n/a	0
402.5880000000	n/a	402588	PunIncorrB1	1000	n/a	n/a	1
404.5880000000	n/a	404588	ignore	1700	n/a	n/a	1
406.2880000000	n/a	406288	RewardB1	1412	n/a	n/a	1
408.7710000000	n/a	408771	RewardCorrB1	1000	n/a	n/a	1
410.7710000000	n/a	410771	ignore	1700	n/a	n/a	1
412.4710000000	n/a	412471	PenaltyB1	258	n/a	n/a	1
413.8050000000	n/a	413805	PunCorrB1	1000	n/a	n/a	1
415.8050000000	n/a	415805	ignore	1700	n/a	n/a	1
417.5050000000	n/a	417505	RewardB1	467	n/a	n/a	1
419.0380000000	n/a	419038	RewardCorrB1	1000	n/a	n/a	1
421.0380000000	n/a	421038	ignore	1700	n/a	n/a	1
493.3710000000	n/a	493371	RewardB2	3008	n/a	n/a	1
497.4540000000	n/a	497454	RewardCorrB2	1000	n/a	n/a	1
499.4540000000	n/a	499454	ignore	1700	n/a	n/a	1
501.1540000000	n/a	501154	PenaltyB2	386	n/a	n/a	0
502.6040000000	n/a	502604	PunIncorrB2	1000	n/a	n/a	1
504.6040000000	n/a	504604	ignore	1700	n/a	n/a	1
506.3040000000	n/a	506304	RewardB2	483	n/a	n/a	1
507.8540000000	n/a	507854	RewardCorrB2	1000	n/a	n/a	1
509.8540000000	n/a	509854	ignore	1700	n/a	n/a	1
511.5540000000	n/a	511554	RewardB2	229	n/a	n/a	0
512.8540000000	n/a	512854	RewIncorrB2	1000	n/a	n/a	1
514.8540000000	n/a	514854	ignore	1700	n/a	n/a	1
516.5540000000	n/a	516554	PenaltyB2	1038	n/a	n/a	0
518.6710000000	n/a	518671	PunIncorrB2	1000	n/a	n/a	1
520.6710000000	n/a	520671	ignore	1700	n/a	n/a	1
522.3710000000	n/a	522371	RewardB2	702	n/a	n/a	1
524.1380000000	n/a	524138	RewardCorrB2	1000	n/a	n/a	1
526.1380000000	n/a	526138	ignore	1700	n/a	n/a	1
527.8380000000	n/a	527838	PenaltyB2	1040	n/a	n/a	1
529.9540000000	n/a	529954	NeuCorrB2	1000	n/a	n/a	1
531.9540000000	n/a	531954	ignore	1700	n/a	n/a	1
533.6540000000	n/a	533654	RewardB2	531	n/a	n/a	1
535.2540000000	n/a	535254	RewardCorrB2	1000	n/a	n/a	1
537.2540000000	n/a	537254	ignore	1700	n/a	n/a	1
538.9540000000	n/a	538954	PenaltyB2	1281	n/a	n/a	0
541.3040000000	n/a	541304	PunIncorrB2	1000	n/a	n/a	1
543.3040000000	n/a	543304	ignore	1700	n/a	n/a	1
545.0040000000	n/a	545004	RewardB2	687	n/a	n/a	0
546.7540000000	n/a	546754	NeuIncorrB2	1000	n/a	n/a	1
548.7540000000	n/a	548754	ignore	1700	n/a	n/a	1
550.4540000000	n/a	550454	PenaltyB2	1440	n/a	n/a	0
552.9710000000	n/a	552971	NeuIncorrB2	1000	n/a	n/a	1
554.9710000000	n/a	554971	ignore	1700	n/a	n/a	1
556.6710000000	n/a	556671	RewardB2	417	n/a	n/a	1
558.1540000000	n/a	558154	RewardCorrB2	1000	n/a	n/a	1
560.1540000000	n/a	560154	ignore	1700	n/a	n/a	1
561.8540000000	n/a	561854	PenaltyB2	1146	n/a	n/a	0
564.0710000000	n/a	564071	PunIncorrB2	1000	n/a	n/a	1
566.0710000000	n/a	566071	ignore	1700	n/a	n/a	1
567.7710000000	n/a	567771	RewardB2	1897	n/a	n/a	1
570.7380000000	n/a	570738	RewardCorrB2	1000	n/a	n/a	1
572.7380000000	n/a	572738	ignore	1700	n/a	n/a	1
574.4380000000	n/a	574438	PenaltyB2	1913	n/a	n/a	1
577.4210000000	n/a	577421	NeuCorrB2	1000	n/a	n/a	1
579.4210000000	n/a	579421	ignore	1700	n/a	n/a	1
581.1210000000	n/a	581121	RewardB2	485	n/a	n/a	0
582.6710000000	n/a	582671	RewIncorrB2	1000	n/a	n/a	1
584.6710000000	n/a	584671	ignore	1700	n/a	n/a	1
586.3710000000	n/a	586371	PenaltyB2	1146	n/a	n/a	1
588.5880000000	n/a	588588	NeuCorrB2	1000	n/a	n/a	1
590.5880000000	n/a	590588	ignore	1700	n/a	n/a	1
592.2880000000	n/a	592288	RewardB2	66	n/a	n/a	0
593.3540000000	n/a	593354	NeuIncorrB2	1000	n/a	n/a	1
595.3540000000	n/a	595354	ignore	1700	n/a	n/a	1
597.0540000000	n/a	597054	PenaltyB2	444	n/a	n/a	1
598.5710000000	n/a	598571	NeuCorrB2	1000	n/a	n/a	1
600.5710000000	n/a	600571	ignore	1700	n/a	n/a	1
602.2710000000	n/a	602271	RewardB2	442	n/a	n/a	1
603.7880000000	n/a	603788	RewardCorrB2	1000	n/a	n/a	1
605.7880000000	n/a	605788	STATUS	1700	n/a	n/a	1
607.4880000000	n/a	607488	PenaltyB2	346	n/a	n/a	0
608.9040000000	n/a	608904	NeuIncorrB2	1000	n/a	n/a	1
610.9040000000	n/a	610904	STATUS	1700	n/a	n/a	1
612.6040000000	n/a	612604	PenaltyB2	531	n/a	n/a	0
614.2040000000	n/a	614204	PunIncorrB2	1000	n/a	n/a	1
616.2040000000	n/a	616204	ignore	1700	n/a	n/a	1
617.9040000000	n/a	617904	PenaltyB2	506	n/a	n/a	0
619.4880000000	n/a	619488	PunIncorrB2	1000	n/a	n/a	1
621.4880000000	n/a	621488	ignore	1700	n/a	n/a	1
623.1880000000	n/a	623188	RewardB2	125	n/a	n/a	0
624.3880000000	n/a	624388	NeuIncorrB2	1000	n/a	n/a	1
626.3880000000	n/a	626388	ignore	1700	n/a	n/a	1
628.0880000000	n/a	628088	RewardB2	768	n/a	n/a	1
629.9210000000	n/a	629921	NeuCorrB2	1000	n/a	n/a	1
631.9210000000	n/a	631921	ignore	1700	n/a	n/a	1
633.6210000000	n/a	633621	RewardB2	730	n/a	n/a	0
635.4210000000	n/a	635421	NeuIncorrB2	1000	n/a	n/a	1
637.4210000000	n/a	637421	ignore	1700	n/a	n/a	1
639.1210000000	n/a	639121	PenaltyB2	507	n/a	n/a	0
640.7040000000	n/a	640704	PunIncorrB2	1000	n/a	n/a	1
642.7040000000	n/a	642704	ignore	1700	n/a	n/a	1
644.4040000000	n/a	644404	PenaltyB2	1062	n/a	n/a	0
646.5380000000	n/a	646538	PunIncorrB2	1000	n/a	n/a	1
648.5380000000	n/a	648538	ignore	1700	n/a	n/a	1
650.2380000000	n/a	650238	RewardB2	547	n/a	n/a	0
651.8540000000	n/a	651854	NeuIncorrB2	1000	n/a	n/a	1
653.8540000000	n/a	653854	ignore	1700	n/a	n/a	1
655.5540000000	n/a	655554	PenaltyB2	696	n/a	n/a	0
657.3210000000	n/a	657321	PunIncorrB2	1000	n/a	n/a	1
659.3210000000	n/a	659321	ignore	1700	n/a	n/a	1
661.0210000000	n/a	661021	RewardB2	379	n/a	n/a	1
662.4710000000	n/a	662471	NeuCorrB2	1000	n/a	n/a	1
664.4710000000	n/a	664471	ignore	1700	n/a	n/a	1
666.1710000000	n/a	666171	PenaltyB2	354	n/a	n/a	1
667.5880000000	n/a	667588	NeuCorrB2	1000	n/a	n/a	1
669.5880000000	n/a	669588	ignore	1700	n/a	n/a	1
671.2880000000	n/a	671288	RewardB2	573	n/a	n/a	0
672.9380000000	n/a	672938	NeuIncorrB2	1000	n/a	n/a	1
674.9380000000	n/a	674938	ignore	1700	n/a	n/a	1
676.6380000000	n/a	676638	PenaltyB2	323	n/a	n/a	0
678.0380000000	n/a	678038	PunIncorrB2	1000	n/a	n/a	1
680.0380000000	n/a	680038	ignore	1700	n/a	n/a	1
681.7380000000	n/a	681738	PenaltyB2	125	n/a	n/a	0
682.9380000000	n/a	682938	NeuIncorrB2	1000	n/a	n/a	1
684.9380000000	n/a	684938	ignore	1700	n/a	n/a	1
686.6380000000	n/a	686638	RewardB2	417	n/a	n/a	1
688.1210000000	n/a	688121	RewardCorrB2	1000	n/a	n/a	1
690.1210000000	n/a	690121	ignore	1700	n/a	n/a	1
691.8210000000	n/a	691821	PenaltyB2	874	n/a	n/a	1
693.7710000000	n/a	693771	NeuCorrB2	1000	n/a	n/a	1
695.7710000000	n/a	695771	ignore	1700	n/a	n/a	1
697.4710000000	n/a	697471	RewardB2	1529	n/a	n/a	1
700.0710000000	n/a	700071	RewardCorrB2	1000	n/a	n/a	1
702.0710000000	n/a	702071	ignore	1700	n/a	n/a	1
703.7710000000	n/a	703771	PenaltyB2	866	n/a	n/a	0
705.7040000000	n/a	705704	NeuIncorrB2	1000	n/a	n/a	1
707.7040000000	n/a	707704	ignore	1700	n/a	n/a	1
709.4040000000	n/a	709404	RewardB2	346	n/a	n/a	1
710.8210000000	n/a	710821	RewardCorrB2	1000	n/a	n/a	1
712.8210000000	n/a	712821	ignore	1700	n/a	n/a	1
719.7210000000	n/a	719721	RewardB3	767	n/a	n/a	1
721.5540000000	n/a	721554	RewardCorrB3	1000	n/a	n/a	1
723.5540000000	n/a	723554	ignore	1700	n/a	n/a	1
725.2540000000	n/a	725254	PenaltyB3	4262	n/a	n/a	1
730.5870000000	n/a	730587	PunCorrB3	1000	n/a	n/a	1
732.5880000000	n/a	732588	ignore	1700	n/a	n/a	1
734.2870000000	n/a	734287	RewardB3	1736	n/a	n/a	0
737.0870000000	n/a	737087	NeuIncorrB3	1000	n/a	n/a	1
739.0880000000	n/a	739088	ignore	1700	n/a	n/a	1
740.7870000000	n/a	740787	PenaltyB3	4782	n/a	n/a	0
746.6370000000	n/a	746637	PunIncorrB3	1000	n/a	n/a	1
748.6370000000	n/a	748637	ignore	1700	n/a	n/a	1
750.3370000000	n/a	750337	PenaltyB3	793	n/a	n/a	0
752.2040000000	n/a	752204	PunIncorrB3	1000	n/a	n/a	1
754.2040000000	n/a	754204	ignore	1700	n/a	n/a	1
755.9040000000	n/a	755904	RewardB3	169	n/a	n/a	0
757.1370000000	n/a	757137	NeuIncorrB3	1000	n/a	n/a	1
759.1370000000	n/a	759137	ignore	1700	n/a	n/a	1
760.8370000000	n/a	760837	PenaltyB3	125	n/a	n/a	1
762.0370000000	n/a	762037	PunCorrB3	1000	n/a	n/a	1
764.0370000000	n/a	764037	ignore	1700	n/a	n/a	1
765.7370000000	n/a	765737	RewardB3	385	n/a	n/a	0
767.1870000000	n/a	767187	NeuIncorrB3	1000	n/a	n/a	1
769.1870000000	n/a	769187	ignore	1700	n/a	n/a	1
770.8870000000	n/a	770887	PenaltyB3	2260	n/a	n/a	1
774.2210000000	n/a	774221	NeuCorrB3	1000	n/a	n/a	1
776.2210000000	n/a	776221	ignore	1700	n/a	n/a	1
777.9210000000	n/a	777921	RewardB3	917	n/a	n/a	0
779.9040000000	n/a	779904	RewIncorrB3	1000	n/a	n/a	1
781.9040000000	n/a	781904	ignore	1700	n/a	n/a	1
783.6040000000	n/a	783604	PenaltyB3	1578	n/a	n/a	1
786.2540000000	n/a	786254	NeuCorrB3	1000	n/a	n/a	1
788.2540000000	n/a	788254	ignore	1700	n/a	n/a	1
789.9540000000	n/a	789954	RewardB3	537	n/a	n/a	1
791.5540000000	n/a	791554	RewardCorrB3	1000	n/a	n/a	1
793.5540000000	n/a	793554	ignore	1700	n/a	n/a	1
795.2540000000	n/a	795254	RewardB3	4617	n/a	n/a	0
800.9370000000	n/a	800937	NeuIncorrB3	1000	n/a	n/a	1
802.9370000000	n/a	802937	ignore	1700	n/a	n/a	1
804.6370000000	n/a	804637	RewardB3	1575	n/a	n/a	0
807.2870000000	n/a	807287	NeuIncorrB3	1000	n/a	n/a	1
809.2870000000	n/a	809287	ignore	1700	n/a	n/a	1
810.9870000000	n/a	810987	PenaltyB3	422	n/a	n/a	0
812.4870000000	n/a	812487	NeuIncorrB3	1000	n/a	n/a	1
814.4870000000	n/a	814487	ignore	1700	n/a	n/a	1
816.1870000000	n/a	816187	RewardB3	435	n/a	n/a	0
817.6870000000	n/a	817687	NeuIncorrB3	1000	n/a	n/a	1
819.6870000000	n/a	819687	ignore	1700	n/a	n/a	1
821.3870000000	n/a	821387	PenaltyB3	999	n/a	n/a	1
823.4540000000	n/a	823454	NeuCorrB3	1000	n/a	n/a	1
825.4540000000	n/a	825454	ignore	1700	n/a	n/a	1
827.1540000000	n/a	827154	RewardB3	230	n/a	n/a	1
828.4540000000	n/a	828454	RewardCorrB3	1000	n/a	n/a	1
830.4540000000	n/a	830454	ignore	1700	n/a	n/a	1
832.1540000000	n/a	832154	RewardB3	595	n/a	n/a	0
833.8210000000	n/a	833821	NeuIncorrB3	1000	n/a	n/a	1
835.8210000000	n/a	835821	ignore	1700	n/a	n/a	1
837.5210000000	n/a	837521	RewardB3	711	n/a	n/a	1
839.3040000000	n/a	839304	NeuCorrB3	1000	n/a	n/a	1
841.3040000000	n/a	841304	ignore	1700	n/a	n/a	1
843.0040000000	n/a	843004	RewardB3	613	n/a	n/a	1
844.6870000000	n/a	844687	RewardCorrB3	1000	n/a	n/a	1
846.6870000000	n/a	846687	ignore	1700	n/a	n/a	1
848.3870000000	n/a	848387	RewardB3	5996	n/a	n/a	0
855.4540000000	n/a	855454	NeuIncorrB3	1000	n/a	n/a	1
857.4540000000	n/a	857454	ignore	1700	n/a	n/a	1
859.1540000000	n/a	859154	PenaltyB3	1093	n/a	n/a	1
861.3210000000	n/a	861321	NeuCorrB3	1000	n/a	n/a	1
863.3210000000	n/a	863321	ignore	1700	n/a	n/a	1
865.0210000000	n/a	865021	RewardB3	468	n/a	n/a	0
866.5540000000	n/a	866554	RewIncorrB3	1000	n/a	n/a	1
868.5540000000	n/a	868554	ignore	1700	n/a	n/a	1
870.2540000000	n/a	870254	PenaltyB3	530	n/a	n/a	0
871.8540000000	n/a	871854	PunIncorrB3	1000	n/a	n/a	1
873.8540000000	n/a	873854	ignore	1700	n/a	n/a	1
875.5540000000	n/a	875554	PenaltyB3	1514	n/a	n/a	0
878.1370000000	n/a	878137	PunIncorrB3	1000	n/a	n/a	1
880.1370000000	n/a	880137	ignore	1700	n/a	n/a	1
881.8370000000	n/a	881837	RewardB3	433	n/a	n/a	0
883.3370000000	n/a	883337	NeuIncorrB3	1000	n/a	n/a	1
885.3370000000	n/a	885337	ignore	1700	n/a	n/a	1
887.0370000000	n/a	887037	PenaltyB3	533	n/a	n/a	1
888.6370000000	n/a	888637	NeuCorrB3	1000	n/a	n/a	1
890.6370000000	n/a	890637	ignore	1700	n/a	n/a	1
892.3370000000	n/a	892337	RewardB3	614	n/a	n/a	1
894.0210000000	n/a	894021	NeuCorrB3	1000	n/a	n/a	1
896.0210000000	n/a	896021	ignore	1700	n/a	n/a	1
897.7210000000	n/a	897721	PenaltyB3	2634	n/a	n/a	0
901.4210000000	n/a	901421	PunIncorrB3	1000	n/a	n/a	1
903.4210000000	n/a	903421	ignore	1700	n/a	n/a	1
905.1210000000	n/a	905121	RewardB3	590	n/a	n/a	0
906.7870000000	n/a	906787	NeuIncorrB3	1000	n/a	n/a	1
908.7870000000	n/a	908787	ignore	1700	n/a	n/a	1
910.4870000000	n/a	910487	PenaltyB3	509	n/a	n/a	0
912.0710000000	n/a	912071	NeuIncorrB3	1000	n/a	n/a	1
914.0710000000	n/a	914071	ignore	1700	n/a	n/a	1
915.7710000000	n/a	915771	PenaltyB3	2014	n/a	n/a	0
918.8540000000	n/a	918854	PunIncorrB3	1000	n/a	n/a	1
920.8540000000	n/a	920854	ignore	1700	n/a	n/a	1
922.5540000000	n/a	922554	PenaltyB3	989	n/a	n/a	1
924.6210000000	n/a	924621	NeuCorrB3	1000	n/a	n/a	1
926.6210000000	n/a	926621	ignore	1700	n/a	n/a	1
928.3210000000	n/a	928321	PenaltyB3	3312	n/a	n/a	1
932.7040000000	n/a	932704	NeuCorrB3	1000	n/a	n/a	1
934.7040000000	n/a	934704	ignore	1700	n/a	n/a	1
936.4040000000	n/a	936404	RewardB3	536	n/a	n/a	0
938.0040000000	n/a	938004	NeuIncorrB3	1000	n/a	n/a	1
940.0040000000	n/a	940004	ignore	1700	n/a	n/a	1
941.7040000000	n/a	941704	RewardB3	641	n/a	n/a	0
943.4210000000	n/a	943421	NeuIncorrB3	1000	n/a	n/a	1
945.4210000000	n/a	945421	ignore	1700	n/a	n/a	1
947.1210000000	n/a	947121	PenaltyB3	66	n/a	n/a	0
948.2210000000	n/a	948221	PunIncorrB3	1000	n/a	n/a	1
950.2210000000	n/a	950221	ignore	1700	n/a	n/a	1
951.9210000000	n/a	951921	PenaltyB3	66	n/a	n/a	0
952.9870000000	n/a	952987	PunIncorrB3	1000	n/a	n/a	1
954.9870000000	n/a	954987	ignore	1700	n/a	n/a	1
956.6870000000	n/a	956687	PenaltyB3	664	n/a	n/a	0
958.4210000000	n/a	958421	PunIncorrB3	1000	n/a	n/a	1
960.4210000000	n/a	960421	ignore	1700	n/a	n/a	1
967.8700000000	n/a	967870	RewardB4	1054	n/a	n/a	0
969.9870000000	n/a	969987	NeuIncorrB4	1000	n/a	n/a	1
971.9870000000	n/a	971987	ignore	1700	n/a	n/a	1
973.6870000000	n/a	973687	PenaltyB4	372	n/a	n/a	1
975.1370000000	n/a	975137	PunCorrB4	1000	n/a	n/a	1
977.1370000000	n/a	977137	ignore	1700	n/a	n/a	1
978.8370000000	n/a	978837	RewardB4	595	n/a	n/a	1
980.5040000000	n/a	980504	RewardCorrB4	1000	n/a	n/a	1
982.5040000000	n/a	982504	ignore	1700	n/a	n/a	1
984.2040000000	n/a	984204	PenaltyB4	1408	n/a	n/a	0
986.6870000000	n/a	986687	PunIncorrB4	1000	n/a	n/a	1
988.6870000000	n/a	988687	ignore	1700	n/a	n/a	1
990.3870000000	n/a	990387	RewardB4	173	n/a	n/a	1
991.6370000000	n/a	991637	RewardCorrB4	1000	n/a	n/a	1
993.6370000000	n/a	993637	ignore	1700	n/a	n/a	1
995.3370000000	n/a	995337	PenaltyB4	2917	n/a	n/a	1
999.3200000000	n/a	999320	PunCorrB4	1000	n/a	n/a	1
1001.3210000000	n/a	1001321	ignore	1700	n/a	n/a	1
1003.0200000000	n/a	1003020	PenaltyB4	356	n/a	n/a	1
1004.4540000000	n/a	1004454	NeuCorrB4	1000	n/a	n/a	1
1006.4540000000	n/a	1006454	ignore	1700	n/a	n/a	1
1008.1540000000	n/a	1008154	RewardB4	501	n/a	n/a	1
1009.7200000000	n/a	1009720	RewardCorrB4	1000	n/a	n/a	1
1011.7200000000	n/a	1011720	ignore	1700	n/a	n/a	1
1013.4200000000	n/a	1013420	PenaltyB4	582	n/a	n/a	1
1015.0700000000	n/a	1015070	NeuCorrB4	1000	n/a	n/a	1
1017.0700000000	n/a	1017070	ignore	1700	n/a	n/a	1
1018.7700000000	n/a	1018770	RewardB4	402	n/a	n/a	1
1020.2370000000	n/a	1020237	NeuCorrB4	1000	n/a	n/a	1
1022.2370000000	n/a	1022237	ignore	1700	n/a	n/a	1
1023.9370000000	n/a	1023937	PenaltyB4	238	n/a	n/a	1
1025.2540000000	n/a	1025254	NeuCorrB4	1000	n/a	n/a	1
1027.2540000000	n/a	1027254	ignore	1700	n/a	n/a	1
1028.9540000000	n/a	1028954	RewardB4	2243	n/a	n/a	1
1032.2700000000	n/a	1032270	RewardCorrB4	1000	n/a	n/a	1
1034.2700000000	n/a	1034270	ignore	1700	n/a	n/a	1
1035.9700000000	n/a	1035970	PenaltyB4	1432	n/a	n/a	1
1038.4700000000	n/a	1038470	NeuCorrB4	1000	n/a	n/a	1
1040.4700000000	n/a	1040470	ignore	1700	n/a	n/a	1
1042.1700000000	n/a	1042170	PenaltyB4	1252	n/a	n/a	1
1044.4870000000	n/a	1044487	NeuCorrB4	1000	n/a	n/a	1
1046.4870000000	n/a	1046487	ignore	1700	n/a	n/a	1
1048.1870000000	n/a	1048187	RewardB4	573	n/a	n/a	1
1049.8370000000	n/a	1049837	RewardCorrB4	1000	n/a	n/a	1
1051.8370000000	n/a	1051837	ignore	1700	n/a	n/a	1
1053.5370000000	n/a	1053537	RewardB4	632	n/a	n/a	0
1055.2370000000	n/a	1055237	RewIncorrB4	1000	n/a	n/a	1
1057.2370000000	n/a	1057237	ignore	1700	n/a	n/a	1
1058.9370000000	n/a	1058937	RewardB4	3900	n/a	n/a	1
1063.9040000000	n/a	1063904	RewardCorrB4	1000	n/a	n/a	1
1065.9040000000	n/a	1065904	ignore	1700	n/a	n/a	1
1067.6040000000	n/a	1067604	PenaltyB4	751	n/a	n/a	1
1069.4200000000	n/a	1069420	NeuCorrB4	1000	n/a	n/a	1
1071.4200000000	n/a	1071420	ignore	1700	n/a	n/a	1
1073.1200000000	n/a	1073120	PenaltyB4	889	n/a	n/a	1
1075.0870000000	n/a	1075087	NeuCorrB4	1000	n/a	n/a	1
1077.0870000000	n/a	1077087	ignore	1700	n/a	n/a	1
1078.7870000000	n/a	1078787	PenaltyB4	1341	n/a	n/a	1
1081.2040000000	n/a	1081204	PunCorrB4	1000	n/a	n/a	1
1083.2040000000	n/a	1083204	ignore	1700	n/a	n/a	1
1084.9040000000	n/a	1084904	RewardB4	1983	n/a	n/a	1
1087.9540000000	n/a	1087954	RewardCorrB4	1000	n/a	n/a	1
1089.9540000000	n/a	1089954	ignore	1700	n/a	n/a	1
1091.6540000000	n/a	1091654	PenaltyB4	686	n/a	n/a	1
1093.4040000000	n/a	1093404	NeuCorrB4	1000	n/a	n/a	1
1095.4040000000	n/a	1095404	ignore	1700	n/a	n/a	1
1097.1040000000	n/a	1097104	RewardB4	933	n/a	n/a	0
1099.1040000000	n/a	1099104	NeuIncorrB4	1000	n/a	n/a	1
1101.1040000000	n/a	1101104	ignore	1700	n/a	n/a	1
1102.8040000000	n/a	1102804	PenaltyB4	2976	n/a	n/a	0
1106.8540000000	n/a	1106854	PunIncorrB4	1000	n/a	n/a	1
1108.8540000000	n/a	1108854	ignore	1700	n/a	n/a	1
1110.5540000000	n/a	1110554	RewardB4	526	n/a	n/a	0
1112.1540000000	n/a	1112154	RewIncorrB4	1000	n/a	n/a	1
1114.1540000000	n/a	1114154	ignore	1700	n/a	n/a	1
1115.8540000000	n/a	1115854	PenaltyB4	746	n/a	n/a	0
1117.6700000000	n/a	1117670	PunIncorrB4	1000	n/a	n/a	1
1119.6700000000	n/a	1119670	ignore	1700	n/a	n/a	1
1121.3700000000	n/a	1121370	RewardB4	409	n/a	n/a	1
1122.8540000000	n/a	1122854	RewardCorrB4	1000	n/a	n/a	1
1124.8540000000	n/a	1124854	ignore	1700	n/a	n/a	1
1126.5540000000	n/a	1126554	PenaltyB4	1154	n/a	n/a	1
1128.7700000000	n/a	1128770	NeuCorrB4	1000	n/a	n/a	1
1130.7700000000	n/a	1130770	ignore	1700	n/a	n/a	1
1132.4700000000	n/a	1132470	RewardB4	2537	n/a	n/a	1
1136.0700000000	n/a	1136070	RewardCorrB4	1000	n/a	n/a	1
1138.0700000000	n/a	1138070	ignore	1700	n/a	n/a	1
1139.7700000000	n/a	1139770	PenaltyB4	860	n/a	n/a	1
1141.7040000000	n/a	1141704	PunCorrB4	1000	n/a	n/a	1
1143.7040000000	n/a	1143704	ignore	1700	n/a	n/a	1
1145.4040000000	n/a	1145404	RewardB4	10399	n/a	n/a	0
1156.8700000000	n/a	1156870	NeuIncorrB4	1000	n/a	n/a	1
1158.8700000000	n/a	1158870	ignore	1700	n/a	n/a	1
1160.5700000000	n/a	1160570	PenaltyB4	5412	n/a	n/a	0
1167.0540000000	n/a	1167054	PunIncorrB4	1000	n/a	n/a	1
1169.0540000000	n/a	1169054	ignore	1700	n/a	n/a	1
1170.7540000000	n/a	1170754	RewardB4	653	n/a	n/a	1
1172.4700000000	n/a	1172470	RewardCorrB4	1000	n/a	n/a	1
1174.4700000000	n/a	1174470	ignore	1700	n/a	n/a	1
1176.1700000000	n/a	1176170	PenaltyB4	382	n/a	n/a	0
1177.6200000000	n/a	1177620	PunIncorrB4	1000	n/a	n/a	1
1179.6200000000	n/a	1179620	ignore	1700	n/a	n/a	1
1181.3200000000	n/a	1181320	RewardB4	531	n/a	n/a	1
1182.9200000000	n/a	1182920	RewardCorrB4	1000	n/a	n/a	1
1184.9200000000	n/a	1184920	ignore	1700	n/a	n/a	1
1186.6200000000	n/a	1186620	PenaltyB4	1208	n/a	n/a	0
1188.9040000000	n/a	1188904	PunIncorrB4	1000	n/a	n/a	1
1190.9040000000	n/a	1190904	ignore	1700	n/a	n/a	1
1192.6040000000	n/a	1192604	RewardB4	314	n/a	n/a	0
1193.9870000000	n/a	1193987	RewIncorrB4	1000	n/a	n/a	1
1195.9870000000	n/a	1195987	ignore	1700	n/a	n/a	1
1197.6870000000	n/a	1197687	RewardB4	252	n/a	n/a	1
1199.0040000000	n/a	1199004	RewardCorrB4	1000	n/a	n/a	1
1201.0040000000	n/a	1201004	ignore	1700	n/a	n/a	1
1202.7040000000	n/a	1202704	PenaltyB4	576	n/a	n/a	0
1204.3540000000	n/a	1204354	PunIncorrB4	1000	n/a	n/a	1
1206.3540000000	n/a	1206354	ignore	1700	n/a	n/a	1
1208.0540000000	n/a	1208054	RewardB4	244	n/a	n/a	1
1209.3700000000	n/a	1209370	RewardCorrB4	1000	n/a	n/a	1
1211.3700000000	n/a	1211370	ignore	1700	n/a	n/a	1
1219.9040000000	n/a	1219904	ignore	1700	n/a	n/a	1
