onset	duration	sample	trial_type	response_time	stim_file	value	correct
4.3440000000	n/a	4344	FrequentFixedSOA	1633	n/a	n/a	1
5.9780000000	n/a	5978	FrequentFixedSOA	1633	n/a	n/a	1
7.6110000000	n/a	7611	FrequentFixedSOA	1633	n/a	n/a	1
9.2440000000	n/a	9244	FrequentFixedSOA	1633	n/a	n/a	1
10.8780000000	n/a	10878	FrequentFixedSOA	1633	n/a	n/a	1
12.5110000000	n/a	12511	FrequentFixedSOA	1633	n/a	n/a	1
14.1440000000	n/a	14144	FrequentFixedSOA	1633	n/a	n/a	1
15.7780000000	n/a	15778	FrequentFixedSOA	1633	n/a	n/a	1
17.4110000000	n/a	17411	FrequentFixedSOA	1633	n/a	n/a	1
19.0440000000	n/a	19044	FrequentFixedSOA	1633	n/a	n/a	1
20.6780000000	n/a	20678	NovelFixedSOA	1633	n/a	n/a	1
22.3110000000	n/a	22311	FrequentFixedSOA	1633	n/a	n/a	1
23.9440000000	n/a	23944	GoFixedSOA	428	n/a	n/a	1
25.5780000000	n/a	25578	FrequentFixedSOA	1633	n/a	n/a	1
27.2110000000	n/a	27211	FrequentFixedSOA	1633	n/a	n/a	1
28.8440000000	n/a	28844	FrequentFixedSOA	1633	n/a	n/a	1
30.4780000000	n/a	30478	GoFixedSOA	469	n/a	n/a	1
32.1110000000	n/a	32111	FrequentFixedSOA	1633	n/a	n/a	1
33.7440000000	n/a	33744	FrequentFixedSOA	1633	n/a	n/a	1
35.3780000000	n/a	35378	FrequentFixedSOA	1633	n/a	n/a	1
37.0110000000	n/a	37011	NovelFixedSOA	1633	n/a	n/a	1
38.6440000000	n/a	38644	FrequentFixedSOA	1633	n/a	n/a	1
40.2780000000	n/a	40278	FrequentFixedSOA	1633	n/a	n/a	1
41.9110000000	n/a	41911	FrequentFixedSOA	1633	n/a	n/a	1
43.5440000000	n/a	43544	GoFixedSOA	290	n/a	n/a	1
45.1770000000	n/a	45177	FrequentFixedSOA	1633	n/a	n/a	1
46.8110000000	n/a	46811	NovelFixedSOA	1633	n/a	n/a	1
48.4440000000	n/a	48444	FrequentFixedSOA	1633	n/a	n/a	1
50.0770000000	n/a	50077	FrequentFixedSOA	1633	n/a	n/a	1
51.7110000000	n/a	51711	FrequentFixedSOA	1633	n/a	n/a	1
53.3440000000	n/a	53344	GoFixedSOA	274	n/a	n/a	1
54.9770000000	n/a	54977	FrequentFixedSOA	1633	n/a	n/a	1
56.6110000000	n/a	56611	GoFixedSOA	421	n/a	n/a	1
58.2440000000	n/a	58244	FrequentFixedSOA	1633	n/a	n/a	1
59.8770000000	n/a	59877	FrequentFixedSOA	1633	n/a	n/a	1
61.5110000000	n/a	61511	GoFixedSOA	255	n/a	n/a	1
63.1440000000	n/a	63144	FrequentFixedSOA	1633	n/a	n/a	1
64.7770000000	n/a	64777	FrequentFixedSOA	1633	n/a	n/a	1
66.4110000000	n/a	66411	FrequentFixedSOA	1633	n/a	n/a	1
68.0440000000	n/a	68044	FrequentFixedSOA	1633	n/a	n/a	1
69.6770000000	n/a	69677	NovelFixedSOA	1633	n/a	n/a	1
71.3110000000	n/a	71311	FrequentFixedSOA	1633	n/a	n/a	1
72.9440000000	n/a	72944	NovelFixedSOA	1633	n/a	n/a	1
74.5770000000	n/a	74577	FrequentFixedSOA	1633	n/a	n/a	1
76.2110000000	n/a	76211	FrequentFixedSOA	1633	n/a	n/a	1
77.8440000000	n/a	77844	GoFixedSOA	297	n/a	n/a	1
79.4770000000	n/a	79477	FrequentFixedSOA	1633	n/a	n/a	1
81.1110000000	n/a	81111	FrequentFixedSOA	1633	n/a	n/a	1
82.7440000000	n/a	82744	FrequentFixedSOA	1633	n/a	n/a	1
84.3770000000	n/a	84377	FrequentFixedSOA	1633	n/a	n/a	1
86.0110000000	n/a	86011	NovelFixedSOA	1633	n/a	n/a	1
87.6440000000	n/a	87644	FrequentFixedSOA	1633	n/a	n/a	1
89.2770000000	n/a	89277	FrequentFixedSOA	1633	n/a	n/a	1
90.9110000000	n/a	90911	FrequentFixedSOA	1633	n/a	n/a	1
92.5440000000	n/a	92544	FrequentFixedSOA	1633	n/a	n/a	1
94.1770000000	n/a	94177	GoFixedSOA	268	n/a	n/a	1
95.8110000000	n/a	95811	FrequentFixedSOA	1633	n/a	n/a	1
97.4440000000	n/a	97444	FrequentFixedSOA	1633	n/a	n/a	1
99.0770000000	n/a	99077	NovelFixedSOA	1633	n/a	n/a	1
100.7110000000	n/a	100711	FrequentFixedSOA	1633	n/a	n/a	1
102.3440000000	n/a	102344	FrequentFixedSOA	1633	n/a	n/a	1
103.9770000000	n/a	103977	GoFixedSOA	316	n/a	n/a	1
105.6110000000	n/a	105611	FrequentFixedSOA	1633	n/a	n/a	1
107.2440000000	n/a	107244	FrequentFixedSOA	1633	n/a	n/a	1
108.8770000000	n/a	108877	FrequentFixedSOA	1633	n/a	n/a	1
110.5110000000	n/a	110511	FrequentFixedSOA	1633	n/a	n/a	1
112.1440000000	n/a	112144	NovelFixedSOA	1633	n/a	n/a	1
113.7770000000	n/a	113777	FrequentFixedSOA	1633	n/a	n/a	1
115.4110000000	n/a	115411	FrequentFixedSOA	1633	n/a	n/a	1
117.0440000000	n/a	117044	GoFixedSOA	399	n/a	n/a	1
118.6770000000	n/a	118677	FrequentVariableSOA	1650	n/a	n/a	1
120.3270000000	n/a	120327	FrequentVariableSOA	1566	n/a	n/a	1
121.8940000000	n/a	121894	FrequentVariableSOA	1666	n/a	n/a	1
123.5610000000	n/a	123561	FrequentVariableSOA	1733	n/a	n/a	1
125.2940000000	n/a	125294	FrequentVariableSOA	1583	n/a	n/a	1
126.8770000000	n/a	126877	FrequentVariableSOA	1683	n/a	n/a	1
128.5610000000	n/a	128561	FrequentVariableSOA	1800	n/a	n/a	1
130.3610000000	n/a	130361	FrequentVariableSOA	1500	n/a	n/a	1
131.8610000000	n/a	131861	FrequentVariableSOA	1683	n/a	n/a	1
133.5440000000	n/a	133544	FrequentVariableSOA	1600	n/a	n/a	1
135.1440000000	n/a	135144	NovelVariableSOA	1800	n/a	n/a	1
136.9440000000	n/a	136944	FrequentVariableSOA	1500	n/a	n/a	1
138.4440000000	n/a	138444	GoVariableSOA	344	n/a	n/a	1
140.2110000000	n/a	140211	FrequentVariableSOA	1533	n/a	n/a	1
141.7440000000	n/a	141744	FrequentVariableSOA	1683	n/a	n/a	1
143.4270000000	n/a	143427	FrequentVariableSOA	1666	n/a	n/a	1
145.0940000000	n/a	145094	GoVariableSOA	414	n/a	n/a	1
146.6110000000	n/a	146611	FrequentVariableSOA	1616	n/a	n/a	1
148.2270000000	n/a	148227	FrequentVariableSOA	1633	n/a	n/a	1
149.8610000000	n/a	149861	FrequentVariableSOA	1516	n/a	n/a	1
151.3770000000	n/a	151377	NovelVariableSOA	1666	n/a	n/a	1
153.0440000000	n/a	153044	FrequentVariableSOA	1650	n/a	n/a	1
154.6940000000	n/a	154694	FrequentVariableSOA	1566	n/a	n/a	1
156.2610000000	n/a	156261	FrequentVariableSOA	1533	n/a	n/a	1
157.7940000000	n/a	157794	GoVariableSOA	342	n/a	n/a	1
159.4270000000	n/a	159427	FrequentVariableSOA	1516	n/a	n/a	1
160.9440000000	n/a	160944	NovelVariableSOA	1633	n/a	n/a	1
162.5770000000	n/a	162577	FrequentVariableSOA	1516	n/a	n/a	1
164.0940000000	n/a	164094	FrequentVariableSOA	1766	n/a	n/a	1
165.8610000000	n/a	165861	FrequentVariableSOA	1650	n/a	n/a	1
167.5110000000	n/a	167511	GoVariableSOA	455	n/a	n/a	1
169.1270000000	n/a	169127	FrequentVariableSOA	1683	n/a	n/a	1
170.8110000000	n/a	170811	GoVariableSOA	424	n/a	n/a	1
172.4610000000	n/a	172461	FrequentVariableSOA	1600	n/a	n/a	1
174.0610000000	n/a	174061	FrequentVariableSOA	1500	n/a	n/a	1
175.5610000000	n/a	175561	GoVariableSOA	401	n/a	n/a	1
177.2610000000	n/a	177261	FrequentVariableSOA	1516	n/a	n/a	1
178.7770000000	n/a	178777	FrequentVariableSOA	1550	n/a	n/a	1
180.3270000000	n/a	180327	FrequentVariableSOA	1783	n/a	n/a	1
182.1110000000	n/a	182111	FrequentVariableSOA	1533	n/a	n/a	1
183.6440000000	n/a	183644	NovelVariableSOA	1716	n/a	n/a	1
185.3610000000	n/a	185361	FrequentVariableSOA	1800	n/a	n/a	1
187.1610000000	n/a	187161	NovelVariableSOA	1666	n/a	n/a	1
188.8270000000	n/a	188827	FrequentVariableSOA	1783	n/a	n/a	1
190.6110000000	n/a	190611	FrequentVariableSOA	1550	n/a	n/a	1
192.1610000000	n/a	192161	GoVariableSOA	403	n/a	n/a	1
193.6770000000	n/a	193677	FrequentVariableSOA	1550	n/a	n/a	1
195.2270000000	n/a	195227	FrequentVariableSOA	1700	n/a	n/a	1
196.9270000000	n/a	196927	FrequentVariableSOA	1550	n/a	n/a	1
198.4770000000	n/a	198477	FrequentVariableSOA	1666	n/a	n/a	1
200.1440000000	n/a	200144	NovelVariableSOA	1666	n/a	n/a	1
201.8110000000	n/a	201811	FrequentVariableSOA	1566	n/a	n/a	1
203.3770000000	n/a	203377	FrequentVariableSOA	1700	n/a	n/a	1
205.0770000000	n/a	205077	FrequentVariableSOA	1666	n/a	n/a	1
206.7440000000	n/a	206744	FrequentVariableSOA	1516	n/a	n/a	1
208.2610000000	n/a	208261	GoVariableSOA	340	n/a	n/a	1
209.8110000000	n/a	209811	FrequentVariableSOA	1533	n/a	n/a	1
211.3440000000	n/a	211344	FrequentVariableSOA	1550	n/a	n/a	1
212.8940000000	n/a	212894	NovelVariableSOA	1783	n/a	n/a	1
214.6770000000	n/a	214677	FrequentVariableSOA	1583	n/a	n/a	1
216.2610000000	n/a	216261	FrequentVariableSOA	1516	n/a	n/a	1
217.7770000000	n/a	217777	GoVariableSOA	473	n/a	n/a	1
219.3940000000	n/a	219394	FrequentVariableSOA	1700	n/a	n/a	1
221.0940000000	n/a	221094	FrequentVariableSOA	1650	n/a	n/a	1
222.7440000000	n/a	222744	FrequentVariableSOA	1716	n/a	n/a	1
224.4610000000	n/a	224461	FrequentVariableSOA	1633	n/a	n/a	1
226.0940000000	n/a	226094	NovelVariableSOA	1783	n/a	n/a	1
227.8770000000	n/a	227877	FrequentVariableSOA	1566	n/a	n/a	1
229.4440000000	n/a	229444	FrequentVariableSOA	1616	n/a	n/a	1
231.0610000000	n/a	231061	GoVariableSOA	1533	n/a	n/a	0
232.5940000000	n/a	232594	FrequentFixedSOA	1633	n/a	n/a	1
234.2270000000	n/a	234227	FrequentFixedSOA	1633	n/a	n/a	1
235.8610000000	n/a	235861	FrequentFixedSOA	1633	n/a	n/a	1
237.4940000000	n/a	237494	GoFixedSOA	588	n/a	n/a	1
239.1270000000	n/a	239127	FrequentFixedSOA	1633	n/a	n/a	1
240.7610000000	n/a	240761	FrequentFixedSOA	1633	n/a	n/a	1
242.3940000000	n/a	242394	FrequentFixedSOA	1633	n/a	n/a	1
244.0270000000	n/a	244027	GoFixedSOA	382	n/a	n/a	1
245.6610000000	n/a	245661	FrequentFixedSOA	1633	n/a	n/a	1
247.2940000000	n/a	247294	FrequentFixedSOA	1633	n/a	n/a	1
248.9270000000	n/a	248927	FrequentFixedSOA	1633	n/a	n/a	1
250.5610000000	n/a	250561	NovelFixedSOA	1633	n/a	n/a	1
252.1940000000	n/a	252194	FrequentFixedSOA	1633	n/a	n/a	1
253.8270000000	n/a	253827	NovelFixedSOA	1633	n/a	n/a	1
255.4610000000	n/a	255461	FrequentFixedSOA	1633	n/a	n/a	1
257.0940000000	n/a	257094	FrequentFixedSOA	1633	n/a	n/a	1
258.7270000000	n/a	258727	NovelFixedSOA	1633	n/a	n/a	1
260.3610000000	n/a	260361	FrequentFixedSOA	1633	n/a	n/a	1
261.9940000000	n/a	261994	FrequentFixedSOA	1633	n/a	n/a	1
263.6270000000	n/a	263627	FrequentFixedSOA	1633	n/a	n/a	1
265.2600000000	n/a	265260	FrequentFixedSOA	1633	n/a	n/a	1
266.8940000000	n/a	266894	FrequentFixedSOA	1633	n/a	n/a	1
268.5270000000	n/a	268527	NovelFixedSOA	1633	n/a	n/a	1
270.1600000000	n/a	270160	FrequentFixedSOA	1633	n/a	n/a	1
271.7940000000	n/a	271794	FrequentFixedSOA	1633	n/a	n/a	1
273.4270000000	n/a	273427	FrequentFixedSOA	1633	n/a	n/a	1
275.0600000000	n/a	275060	FrequentFixedSOA	1633	n/a	n/a	1
276.6940000000	n/a	276694	FrequentFixedSOA	1633	n/a	n/a	1
278.3270000000	n/a	278327	GoFixedSOA	439	n/a	n/a	1
279.9600000000	n/a	279960	FrequentFixedSOA	1633	n/a	n/a	1
281.5940000000	n/a	281594	FrequentFixedSOA	1633	n/a	n/a	1
283.2270000000	n/a	283227	GoFixedSOA	528	n/a	n/a	1
284.8600000000	n/a	284860	FrequentFixedSOA	1633	n/a	n/a	1
286.4940000000	n/a	286494	NovelFixedSOA	1633	n/a	n/a	1
288.1270000000	n/a	288127	FrequentFixedSOA	1633	n/a	n/a	1
289.7600000000	n/a	289760	GoFixedSOA	404	n/a	n/a	1
291.3940000000	n/a	291394	FrequentFixedSOA	1633	n/a	n/a	1
293.0270000000	n/a	293027	GoFixedSOA	608	n/a	n/a	1
294.6600000000	n/a	294660	FrequentFixedSOA	1633	n/a	n/a	1
296.2940000000	n/a	296294	FrequentFixedSOA	1633	n/a	n/a	1
297.9270000000	n/a	297927	FrequentFixedSOA	1633	n/a	n/a	1
299.5600000000	n/a	299560	FrequentFixedSOA	1633	n/a	n/a	1
301.1940000000	n/a	301194	GoFixedSOA	397	n/a	n/a	1
302.8270000000	n/a	302827	FrequentFixedSOA	1633	n/a	n/a	1
304.4600000000	n/a	304460	FrequentFixedSOA	1633	n/a	n/a	1
306.0940000000	n/a	306094	FrequentFixedSOA	1633	n/a	n/a	1
307.7270000000	n/a	307727	NovelFixedSOA	1633	n/a	n/a	1
309.3600000000	n/a	309360	FrequentFixedSOA	1633	n/a	n/a	1
310.9940000000	n/a	310994	FrequentFixedSOA	1633	n/a	n/a	1
312.6270000000	n/a	312627	FrequentFixedSOA	1633	n/a	n/a	1
314.2600000000	n/a	314260	FrequentFixedSOA	1633	n/a	n/a	1
315.8940000000	n/a	315894	NovelFixedSOA	1633	n/a	n/a	1
317.5270000000	n/a	317527	FrequentFixedSOA	1633	n/a	n/a	1
319.1600000000	n/a	319160	FrequentFixedSOA	1633	n/a	n/a	1
320.7940000000	n/a	320794	FrequentFixedSOA	1633	n/a	n/a	1
322.4270000000	n/a	322427	FrequentFixedSOA	1633	n/a	n/a	1
324.0600000000	n/a	324060	NovelFixedSOA	1633	n/a	n/a	1
325.6940000000	n/a	325694	FrequentFixedSOA	1633	n/a	n/a	1
327.3270000000	n/a	327327	FrequentFixedSOA	1633	n/a	n/a	1
328.9600000000	n/a	328960	GoFixedSOA	332	n/a	n/a	1
330.5940000000	n/a	330594	FrequentFixedSOA	1633	n/a	n/a	1
332.2270000000	n/a	332227	FrequentFixedSOA	1633	n/a	n/a	1
333.8600000000	n/a	333860	FrequentFixedSOA	1633	n/a	n/a	1
335.4940000000	n/a	335494	FrequentFixedSOA	1633	n/a	n/a	1
337.1270000000	n/a	337127	NovelFixedSOA	1633	n/a	n/a	1
338.7600000000	n/a	338760	FrequentFixedSOA	1633	n/a	n/a	1
340.3940000000	n/a	340394	FrequentFixedSOA	1633	n/a	n/a	1
342.0270000000	n/a	342027	FrequentFixedSOA	1633	n/a	n/a	1
343.6600000000	n/a	343660	FrequentFixedSOA	1633	n/a	n/a	1
345.2940000000	n/a	345294	FrequentFixedSOA	1633	n/a	n/a	1
346.9270000000	n/a	346927	FrequentVariableSOA	1666	n/a	n/a	1
348.5940000000	n/a	348594	FrequentVariableSOA	1783	n/a	n/a	1
350.3770000000	n/a	350377	FrequentVariableSOA	1733	n/a	n/a	1
352.1100000000	n/a	352110	GoVariableSOA	1750	n/a	n/a	0
353.8600000000	n/a	353860	FrequentVariableSOA	1783	n/a	n/a	1
355.6440000000	n/a	355644	FrequentVariableSOA	1533	n/a	n/a	1
357.1770000000	n/a	357177	FrequentVariableSOA	1650	n/a	n/a	1
358.8270000000	n/a	358827	GoVariableSOA	1783	n/a	n/a	0
360.6100000000	n/a	360610	FrequentVariableSOA	1700	n/a	n/a	1
362.3100000000	n/a	362310	FrequentVariableSOA	1616	n/a	n/a	1
363.9270000000	n/a	363927	FrequentVariableSOA	1783	n/a	n/a	1
365.7100000000	n/a	365710	NovelVariableSOA	1700	n/a	n/a	1
367.4100000000	n/a	367410	FrequentVariableSOA	1550	n/a	n/a	1
368.9600000000	n/a	368960	NovelVariableSOA	1566	n/a	n/a	1
370.5270000000	n/a	370527	FrequentVariableSOA	1666	n/a	n/a	1
372.1940000000	n/a	372194	FrequentVariableSOA	1666	n/a	n/a	1
373.8600000000	n/a	373860	NovelVariableSOA	1683	n/a	n/a	1
375.5440000000	n/a	375544	FrequentVariableSOA	1716	n/a	n/a	1
377.2600000000	n/a	377260	FrequentVariableSOA	1750	n/a	n/a	1
379.0100000000	n/a	379010	FrequentVariableSOA	1733	n/a	n/a	1
380.7440000000	n/a	380744	FrequentVariableSOA	1783	n/a	n/a	1
382.5270000000	n/a	382527	FrequentVariableSOA	1683	n/a	n/a	1
384.2100000000	n/a	384210	NovelVariableSOA	1616	n/a	n/a	1
385.8270000000	n/a	385827	FrequentVariableSOA	1766	n/a	n/a	1
387.5940000000	n/a	387594	FrequentVariableSOA	1566	n/a	n/a	1
389.1600000000	n/a	389160	FrequentVariableSOA	1733	n/a	n/a	1
390.8940000000	n/a	390894	FrequentVariableSOA	1783	n/a	n/a	1
392.6770000000	n/a	392677	FrequentVariableSOA	1766	n/a	n/a	1
394.4440000000	n/a	394444	GoVariableSOA	348	n/a	n/a	1
395.9600000000	n/a	395960	FrequentVariableSOA	1733	n/a	n/a	1
397.6940000000	n/a	397694	FrequentVariableSOA	1716	n/a	n/a	1
399.4100000000	n/a	399410	GoVariableSOA	525	n/a	n/a	1
401.0600000000	n/a	401060	FrequentVariableSOA	1750	n/a	n/a	1
402.8100000000	n/a	402810	NovelVariableSOA	1716	n/a	n/a	1
404.5270000000	n/a	404527	FrequentVariableSOA	1600	n/a	n/a	1
406.1270000000	n/a	406127	GoVariableSOA	327	n/a	n/a	1
407.6770000000	n/a	407677	FrequentVariableSOA	1666	n/a	n/a	1
409.3440000000	n/a	409344	GoVariableSOA	334	n/a	n/a	1
410.9940000000	n/a	410994	FrequentVariableSOA	1633	n/a	n/a	1
412.6270000000	n/a	412627	FrequentVariableSOA	1650	n/a	n/a	1
414.2770000000	n/a	414277	FrequentVariableSOA	1766	n/a	n/a	1
416.0440000000	n/a	416044	FrequentVariableSOA	1533	n/a	n/a	1
417.5770000000	n/a	417577	GoVariableSOA	329	n/a	n/a	1
419.1600000000	n/a	419160	FrequentVariableSOA	1600	n/a	n/a	1
420.7600000000	n/a	420760	FrequentVariableSOA	1716	n/a	n/a	1
422.4770000000	n/a	422477	FrequentVariableSOA	1750	n/a	n/a	1
424.2270000000	n/a	424227	NovelVariableSOA	1516	n/a	n/a	1
425.7440000000	n/a	425744	FrequentVariableSOA	1533	n/a	n/a	1
427.2770000000	n/a	427277	FrequentVariableSOA	1516	n/a	n/a	1
428.7940000000	n/a	428794	FrequentVariableSOA	1733	n/a	n/a	1
430.5270000000	n/a	430527	FrequentVariableSOA	1550	n/a	n/a	1
432.0770000000	n/a	432077	NovelVariableSOA	1516	n/a	n/a	1
433.5940000000	n/a	433594	FrequentVariableSOA	1600	n/a	n/a	1
435.1940000000	n/a	435194	FrequentVariableSOA	1800	n/a	n/a	1
436.9940000000	n/a	436994	FrequentVariableSOA	1633	n/a	n/a	1
438.6270000000	n/a	438627	FrequentVariableSOA	1783	n/a	n/a	1
440.4100000000	n/a	440410	NovelVariableSOA	1700	n/a	n/a	1
442.1100000000	n/a	442110	FrequentVariableSOA	1533	n/a	n/a	1
443.6440000000	n/a	443644	FrequentVariableSOA	1533	n/a	n/a	1
445.1770000000	n/a	445177	GoVariableSOA	415	n/a	n/a	1
446.8270000000	n/a	446827	FrequentVariableSOA	1666	n/a	n/a	1
448.4940000000	n/a	448494	FrequentVariableSOA	1683	n/a	n/a	1
450.1770000000	n/a	450177	FrequentVariableSOA	1583	n/a	n/a	1
451.7600000000	n/a	451760	FrequentVariableSOA	1700	n/a	n/a	1
453.4600000000	n/a	453460	NovelVariableSOA	1783	n/a	n/a	1
455.2440000000	n/a	455244	FrequentVariableSOA	1533	n/a	n/a	1
456.7770000000	n/a	456777	FrequentVariableSOA	1650	n/a	n/a	1
458.4270000000	n/a	458427	FrequentVariableSOA	1516	n/a	n/a	1
459.9440000000	n/a	459944	FrequentVariableSOA	1650	n/a	n/a	1
461.5940000000	n/a	461594	FrequentVariableSOA	1516	n/a	n/a	1
463.1100000000	n/a	463110	GoFixedSOA	1633	n/a	n/a	0
464.7440000000	n/a	464744	FrequentFixedSOA	1633	n/a	n/a	1
466.3770000000	n/a	466377	FrequentFixedSOA	1633	n/a	n/a	1
468.0100000000	n/a	468010	FrequentFixedSOA	1633	n/a	n/a	1
469.6440000000	n/a	469644	FrequentFixedSOA	1633	n/a	n/a	1
471.2770000000	n/a	471277	FrequentFixedSOA	1633	n/a	n/a	1
472.9100000000	n/a	472910	FrequentFixedSOA	1633	n/a	n/a	1
474.5440000000	n/a	474544	NovelFixedSOA	1633	n/a	n/a	1
476.1770000000	n/a	476177	FrequentFixedSOA	1633	n/a	n/a	1
477.8100000000	n/a	477810	FrequentFixedSOA	1633	n/a	n/a	1
479.4440000000	n/a	479444	FrequentFixedSOA	1633	n/a	n/a	1
481.0770000000	n/a	481077	NovelFixedSOA	1633	n/a	n/a	1
482.7100000000	n/a	482710	FrequentFixedSOA	1633	n/a	n/a	1
484.3440000000	n/a	484344	GoFixedSOA	396	n/a	n/a	1
485.9770000000	n/a	485977	FrequentFixedSOA	1633	n/a	n/a	1
487.6100000000	n/a	487610	FrequentFixedSOA	1633	n/a	n/a	1
489.2430000000	n/a	489243	GoFixedSOA	457	n/a	n/a	1
490.8770000000	n/a	490877	FrequentFixedSOA	1633	n/a	n/a	1
492.5100000000	n/a	492510	NovelFixedSOA	1633	n/a	n/a	1
494.1430000000	n/a	494143	FrequentFixedSOA	1633	n/a	n/a	1
495.7770000000	n/a	495777	FrequentFixedSOA	1633	n/a	n/a	1
497.4100000000	n/a	497410	FrequentFixedSOA	1633	n/a	n/a	1
499.0430000000	n/a	499043	FrequentFixedSOA	1633	n/a	n/a	1
500.6770000000	n/a	500677	FrequentFixedSOA	1633	n/a	n/a	1
502.3100000000	n/a	502310	GoFixedSOA	383	n/a	n/a	1
503.9430000000	n/a	503943	FrequentFixedSOA	1633	n/a	n/a	1
505.5770000000	n/a	505577	FrequentFixedSOA	1633	n/a	n/a	1
507.2100000000	n/a	507210	NovelFixedSOA	1633	n/a	n/a	1
508.8430000000	n/a	508843	FrequentFixedSOA	1633	n/a	n/a	1
510.4770000000	n/a	510477	FrequentFixedSOA	1633	n/a	n/a	1
512.1100000000	n/a	512110	FrequentFixedSOA	1633	n/a	n/a	1
513.7430000000	n/a	513743	FrequentFixedSOA	1633	n/a	n/a	1
515.3770000000	n/a	515377	FrequentFixedSOA	1633	n/a	n/a	1
517.0100000000	n/a	517010	NovelFixedSOA	1633	n/a	n/a	1
518.6430000000	n/a	518643	FrequentFixedSOA	1633	n/a	n/a	1
520.2770000000	n/a	520277	FrequentFixedSOA	1633	n/a	n/a	1
521.9100000000	n/a	521910	FrequentFixedSOA	1633	n/a	n/a	1
523.5430000000	n/a	523543	FrequentFixedSOA	1633	n/a	n/a	1
525.1770000000	n/a	525177	GoFixedSOA	339	n/a	n/a	1
526.8100000000	n/a	526810	FrequentFixedSOA	1633	n/a	n/a	1
528.4430000000	n/a	528443	FrequentFixedSOA	1633	n/a	n/a	1
530.0770000000	n/a	530077	NovelFixedSOA	1633	n/a	n/a	1
531.7100000000	n/a	531710	FrequentFixedSOA	1633	n/a	n/a	1
533.3430000000	n/a	533343	FrequentFixedSOA	1633	n/a	n/a	1
534.9770000000	n/a	534977	NovelFixedSOA	1633	n/a	n/a	1
536.6100000000	n/a	536610	FrequentFixedSOA	1633	n/a	n/a	1
538.2430000000	n/a	538243	FrequentFixedSOA	1633	n/a	n/a	1
539.8770000000	n/a	539877	FrequentFixedSOA	1633	n/a	n/a	1
541.5100000000	n/a	541510	FrequentFixedSOA	1633	n/a	n/a	1
543.1430000000	n/a	543143	FrequentFixedSOA	1633	n/a	n/a	1
544.7770000000	n/a	544777	GoFixedSOA	412	n/a	n/a	1
546.4100000000	n/a	546410	FrequentFixedSOA	1633	n/a	n/a	1
548.0430000000	n/a	548043	FrequentFixedSOA	1633	n/a	n/a	1
549.6770000000	n/a	549677	FrequentFixedSOA	1633	n/a	n/a	1
551.3100000000	n/a	551310	FrequentFixedSOA	1633	n/a	n/a	1
552.9430000000	n/a	552943	FrequentFixedSOA	1633	n/a	n/a	1
554.5770000000	n/a	554577	NovelFixedSOA	1633	n/a	n/a	1
556.2100000000	n/a	556210	FrequentFixedSOA	1633	n/a	n/a	1
557.8430000000	n/a	557843	GoFixedSOA	411	n/a	n/a	1
559.4770000000	n/a	559477	FrequentFixedSOA	1633	n/a	n/a	1
561.1100000000	n/a	561110	FrequentFixedSOA	1633	n/a	n/a	1
562.7430000000	n/a	562743	FrequentFixedSOA	1633	n/a	n/a	1
564.3770000000	n/a	564377	FrequentFixedSOA	1633	n/a	n/a	1
566.0100000000	n/a	566010	FrequentFixedSOA	1633	n/a	n/a	1
567.6430000000	n/a	567643	FrequentFixedSOA	1633	n/a	n/a	1
569.2770000000	n/a	569277	FrequentFixedSOA	1633	n/a	n/a	1
570.9100000000	n/a	570910	FrequentFixedSOA	1633	n/a	n/a	1
572.5430000000	n/a	572543	NovelFixedSOA	1633	n/a	n/a	1
574.1770000000	n/a	574177	FrequentFixedSOA	1633	n/a	n/a	1
575.8100000000	n/a	575810	FrequentFixedSOA	1633	n/a	n/a	1
577.4430000000	n/a	577443	GoVariableSOA	325	n/a	n/a	1
579.0430000000	n/a	579043	FrequentVariableSOA	1733	n/a	n/a	1
580.7770000000	n/a	580777	FrequentVariableSOA	1516	n/a	n/a	1
582.2930000000	n/a	582293	FrequentVariableSOA	1750	n/a	n/a	1
584.0430000000	n/a	584043	FrequentVariableSOA	1633	n/a	n/a	1
585.6770000000	n/a	585677	FrequentVariableSOA	1750	n/a	n/a	1
587.4270000000	n/a	587427	FrequentVariableSOA	1616	n/a	n/a	1
589.0430000000	n/a	589043	NovelVariableSOA	1783	n/a	n/a	1
590.8270000000	n/a	590827	FrequentVariableSOA	1783	n/a	n/a	1
592.6100000000	n/a	592610	FrequentVariableSOA	1583	n/a	n/a	1
594.1930000000	n/a	594193	FrequentVariableSOA	1683	n/a	n/a	1
595.8770000000	n/a	595877	NovelVariableSOA	1733	n/a	n/a	1
597.6100000000	n/a	597610	FrequentVariableSOA	1716	n/a	n/a	1
599.3270000000	n/a	599327	GoVariableSOA	320	n/a	n/a	1
601.1100000000	n/a	601110	FrequentVariableSOA	1650	n/a	n/a	1
602.7600000000	n/a	602760	FrequentVariableSOA	1616	n/a	n/a	1
604.3770000000	n/a	604377	GoVariableSOA	552	n/a	n/a	1
606.0100000000	n/a	606010	FrequentVariableSOA	1716	n/a	n/a	1
607.7270000000	n/a	607727	NovelVariableSOA	1666	n/a	n/a	1
609.3930000000	n/a	609393	FrequentVariableSOA	1733	n/a	n/a	1
611.1270000000	n/a	611127	FrequentVariableSOA	1766	n/a	n/a	1
612.8930000000	n/a	612893	FrequentVariableSOA	1533	n/a	n/a	1
614.4270000000	n/a	614427	FrequentVariableSOA	1650	n/a	n/a	1
616.0770000000	n/a	616077	FrequentVariableSOA	1533	n/a	n/a	1
617.6100000000	n/a	617610	GoVariableSOA	377	n/a	n/a	1
619.1930000000	n/a	619193	FrequentVariableSOA	1600	n/a	n/a	1
620.7930000000	n/a	620793	FrequentVariableSOA	1566	n/a	n/a	1
622.3600000000	n/a	622360	NovelVariableSOA	1633	n/a	n/a	1
623.9930000000	n/a	623993	FrequentVariableSOA	1716	n/a	n/a	1
625.7100000000	n/a	625710	FrequentVariableSOA	1583	n/a	n/a	1
627.2930000000	n/a	627293	FrequentVariableSOA	1650	n/a	n/a	1
628.9430000000	n/a	628943	FrequentVariableSOA	1733	n/a	n/a	1
630.6770000000	n/a	630677	FrequentVariableSOA	1650	n/a	n/a	1
632.3270000000	n/a	632327	NovelVariableSOA	1550	n/a	n/a	1
633.8770000000	n/a	633877	FrequentVariableSOA	1616	n/a	n/a	1
635.4930000000	n/a	635493	FrequentVariableSOA	1516	n/a	n/a	1
637.0100000000	n/a	637010	FrequentVariableSOA	1533	n/a	n/a	1
638.5430000000	n/a	638543	FrequentVariableSOA	1616	n/a	n/a	1
640.1600000000	n/a	640160	GoVariableSOA	602	n/a	n/a	1
641.9270000000	n/a	641927	FrequentVariableSOA	1616	n/a	n/a	1
643.5430000000	n/a	643543	FrequentVariableSOA	1750	n/a	n/a	1
645.2930000000	n/a	645293	NovelVariableSOA	1600	n/a	n/a	1
646.8930000000	n/a	646893	FrequentVariableSOA	1700	n/a	n/a	1
648.5930000000	n/a	648593	FrequentVariableSOA	1733	n/a	n/a	1
650.3270000000	n/a	650327	NovelVariableSOA	1733	n/a	n/a	1
652.0600000000	n/a	652060	FrequentVariableSOA	1533	n/a	n/a	1
653.5930000000	n/a	653593	FrequentVariableSOA	1633	n/a	n/a	1
655.2270000000	n/a	655227	FrequentVariableSOA	1750	n/a	n/a	1
656.9770000000	n/a	656977	FrequentVariableSOA	1716	n/a	n/a	1
658.6930000000	n/a	658693	FrequentVariableSOA	1716	n/a	n/a	1
660.4100000000	n/a	660410	GoVariableSOA	347	n/a	n/a	1
662.1600000000	n/a	662160	FrequentVariableSOA	1666	n/a	n/a	1
663.8270000000	n/a	663827	FrequentVariableSOA	1500	n/a	n/a	1
665.3270000000	n/a	665327	FrequentVariableSOA	1583	n/a	n/a	1
666.9100000000	n/a	666910	FrequentVariableSOA	1633	n/a	n/a	1
668.5430000000	n/a	668543	FrequentVariableSOA	1683	n/a	n/a	1
670.2270000000	n/a	670227	NovelVariableSOA	1766	n/a	n/a	1
671.9930000000	n/a	671993	FrequentVariableSOA	1616	n/a	n/a	1
673.6100000000	n/a	673610	GoVariableSOA	1533	n/a	n/a	0
675.1430000000	n/a	675143	FrequentVariableSOA	1633	n/a	n/a	1
676.7770000000	n/a	676777	FrequentVariableSOA	1783	n/a	n/a	1
678.5600000000	n/a	678560	FrequentVariableSOA	1650	n/a	n/a	1
680.2100000000	n/a	680210	FrequentVariableSOA	1516	n/a	n/a	1
681.7270000000	n/a	681727	FrequentVariableSOA	1700	n/a	n/a	1
683.4270000000	n/a	683427	FrequentVariableSOA	1533	n/a	n/a	1
684.9600000000	n/a	684960	FrequentVariableSOA	1550	n/a	n/a	1
686.5100000000	n/a	686510	FrequentVariableSOA	1583	n/a	n/a	1
688.0930000000	n/a	688093	NovelVariableSOA	1766	n/a	n/a	1
689.8600000000	n/a	689860	FrequentVariableSOA	1650	n/a	n/a	1
691.5100000000	n/a	691510	FrequentVariableSOA	1766	n/a	n/a	1
693.2770000000	n/a	693277	GoFixedSOA	435	n/a	n/a	1
694.9100000000	n/a	694910	FrequentFixedSOA	1633	n/a	n/a	1
696.5430000000	n/a	696543	FrequentFixedSOA	1633	n/a	n/a	1
698.1770000000	n/a	698177	FrequentFixedSOA	1633	n/a	n/a	1
699.8100000000	n/a	699810	GoFixedSOA	410	n/a	n/a	1
701.4430000000	n/a	701443	FrequentFixedSOA	1633	n/a	n/a	1
703.0770000000	n/a	703077	FrequentFixedSOA	1633	n/a	n/a	1
704.7100000000	n/a	704710	FrequentFixedSOA	1633	n/a	n/a	1
706.3430000000	n/a	706343	FrequentFixedSOA	1633	n/a	n/a	1
707.9770000000	n/a	707977	GoFixedSOA	315	n/a	n/a	1
709.6100000000	n/a	709610	FrequentFixedSOA	1633	n/a	n/a	1
711.2430000000	n/a	711243	FrequentFixedSOA	1633	n/a	n/a	1
712.8760000000	n/a	712876	NovelFixedSOA	1633	n/a	n/a	1
714.5100000000	n/a	714510	FrequentFixedSOA	1633	n/a	n/a	1
716.1430000000	n/a	716143	FrequentFixedSOA	1633	n/a	n/a	1
717.7760000000	n/a	717776	GoFixedSOA	512	n/a	n/a	1
719.4100000000	n/a	719410	FrequentFixedSOA	1633	n/a	n/a	1
721.0430000000	n/a	721043	FrequentFixedSOA	1633	n/a	n/a	1
722.6760000000	n/a	722676	FrequentFixedSOA	1633	n/a	n/a	1
724.3100000000	n/a	724310	NovelFixedSOA	1633	n/a	n/a	1
725.9430000000	n/a	725943	FrequentFixedSOA	1633	n/a	n/a	1
727.5760000000	n/a	727576	NovelFixedSOA	1633	n/a	n/a	1
729.2100000000	n/a	729210	FrequentFixedSOA	1633	n/a	n/a	1
730.8430000000	n/a	730843	FrequentFixedSOA	1633	n/a	n/a	1
732.4760000000	n/a	732476	FrequentFixedSOA	1633	n/a	n/a	1
734.1100000000	n/a	734110	GoFixedSOA	412	n/a	n/a	1
735.7430000000	n/a	735743	FrequentFixedSOA	1633	n/a	n/a	1
737.3760000000	n/a	737376	FrequentFixedSOA	1633	n/a	n/a	1
739.0100000000	n/a	739010	FrequentFixedSOA	1633	n/a	n/a	1
740.6430000000	n/a	740643	GoFixedSOA	1633	n/a	n/a	0
742.2760000000	n/a	742276	FrequentFixedSOA	1633	n/a	n/a	1
743.9100000000	n/a	743910	FrequentFixedSOA	1633	n/a	n/a	1
745.5430000000	n/a	745543	NovelFixedSOA	1633	n/a	n/a	1
747.1760000000	n/a	747176	FrequentFixedSOA	1633	n/a	n/a	1
748.8100000000	n/a	748810	GoFixedSOA	400	n/a	n/a	1
750.4430000000	n/a	750443	FrequentFixedSOA	1633	n/a	n/a	1
752.0760000000	n/a	752076	FrequentFixedSOA	1633	n/a	n/a	1
753.7100000000	n/a	753710	FrequentFixedSOA	1633	n/a	n/a	1
755.3430000000	n/a	755343	FrequentFixedSOA	1633	n/a	n/a	1
756.9760000000	n/a	756976	FrequentFixedSOA	1633	n/a	n/a	1
758.6100000000	n/a	758610	FrequentFixedSOA	1633	n/a	n/a	1
760.2430000000	n/a	760243	NovelFixedSOA	1633	n/a	n/a	1
761.8760000000	n/a	761876	FrequentFixedSOA	1633	n/a	n/a	1
763.5100000000	n/a	763510	FrequentFixedSOA	1633	n/a	n/a	1
765.1430000000	n/a	765143	FrequentFixedSOA	1633	n/a	n/a	1
766.7760000000	n/a	766776	GoFixedSOA	372	n/a	n/a	1
768.4100000000	n/a	768410	FrequentFixedSOA	1633	n/a	n/a	1
770.0430000000	n/a	770043	FrequentFixedSOA	1633	n/a	n/a	1
771.6760000000	n/a	771676	FrequentFixedSOA	1633	n/a	n/a	1
773.3100000000	n/a	773310	FrequentFixedSOA	1633	n/a	n/a	1
774.9430000000	n/a	774943	NovelFixedSOA	1633	n/a	n/a	1
776.5760000000	n/a	776576	FrequentFixedSOA	1633	n/a	n/a	1
778.2100000000	n/a	778210	FrequentFixedSOA	1633	n/a	n/a	1
779.8430000000	n/a	779843	NovelFixedSOA	1633	n/a	n/a	1
781.4760000000	n/a	781476	FrequentFixedSOA	1633	n/a	n/a	1
783.1100000000	n/a	783110	NovelFixedSOA	1633	n/a	n/a	1
784.7430000000	n/a	784743	FrequentFixedSOA	1633	n/a	n/a	1
786.3760000000	n/a	786376	FrequentFixedSOA	1633	n/a	n/a	1
788.0100000000	n/a	788010	FrequentFixedSOA	1633	n/a	n/a	1
789.6430000000	n/a	789643	FrequentFixedSOA	1633	n/a	n/a	1
791.2760000000	n/a	791276	FrequentFixedSOA	1633	n/a	n/a	1
792.9100000000	n/a	792910	FrequentFixedSOA	1633	n/a	n/a	1
794.5430000000	n/a	794543	FrequentFixedSOA	1633	n/a	n/a	1
796.1760000000	n/a	796176	GoFixedSOA	513	n/a	n/a	1
797.8100000000	n/a	797810	FrequentFixedSOA	1633	n/a	n/a	1
799.4430000000	n/a	799443	GoFixedSOA	482	n/a	n/a	1
801.0760000000	n/a	801076	FrequentFixedSOA	1633	n/a	n/a	1
802.7100000000	n/a	802710	FrequentFixedSOA	1633	n/a	n/a	1
804.3430000000	n/a	804343	NovelFixedSOA	1633	n/a	n/a	1
805.9760000000	n/a	805976	FrequentFixedSOA	1633	n/a	n/a	1
807.6100000000	n/a	807610	GoVariableSOA	415	n/a	n/a	1
809.3430000000	n/a	809343	FrequentVariableSOA	1500	n/a	n/a	1
810.8430000000	n/a	810843	FrequentVariableSOA	1583	n/a	n/a	1
812.4260000000	n/a	812426	FrequentVariableSOA	1750	n/a	n/a	1
814.1760000000	n/a	814176	GoVariableSOA	386	n/a	n/a	1
815.9260000000	n/a	815926	FrequentVariableSOA	1600	n/a	n/a	1
817.5260000000	n/a	817526	FrequentVariableSOA	1766	n/a	n/a	1
819.2930000000	n/a	819293	FrequentVariableSOA	1550	n/a	n/a	1
820.8430000000	n/a	820843	FrequentVariableSOA	1516	n/a	n/a	1
822.3600000000	n/a	822360	GoVariableSOA	415	n/a	n/a	1
823.9600000000	n/a	823960	FrequentVariableSOA	1633	n/a	n/a	1
825.5930000000	n/a	825593	FrequentVariableSOA	1716	n/a	n/a	1
827.3100000000	n/a	827310	NovelVariableSOA	1616	n/a	n/a	1
828.9260000000	n/a	828926	FrequentVariableSOA	1733	n/a	n/a	1
830.6600000000	n/a	830660	FrequentVariableSOA	1766	n/a	n/a	1
832.4260000000	n/a	832426	GoVariableSOA	504	n/a	n/a	1
834.0100000000	n/a	834010	FrequentVariableSOA	1716	n/a	n/a	1
835.7260000000	n/a	835726	FrequentVariableSOA	1666	n/a	n/a	1
837.3930000000	n/a	837393	FrequentVariableSOA	1516	n/a	n/a	1
838.9100000000	n/a	838910	NovelVariableSOA	1800	n/a	n/a	1
840.7100000000	n/a	840710	FrequentVariableSOA	1600	n/a	n/a	1
842.3100000000	n/a	842310	NovelVariableSOA	1633	n/a	n/a	1
843.9430000000	n/a	843943	FrequentVariableSOA	1616	n/a	n/a	1
845.5600000000	n/a	845560	FrequentVariableSOA	1533	n/a	n/a	1
847.0930000000	n/a	847093	FrequentVariableSOA	1550	n/a	n/a	1
848.6430000000	n/a	848643	GoVariableSOA	371	n/a	n/a	1
850.3600000000	n/a	850360	FrequentVariableSOA	1616	n/a	n/a	1
851.9760000000	n/a	851976	FrequentVariableSOA	1733	n/a	n/a	1
853.7100000000	n/a	853710	FrequentVariableSOA	1566	n/a	n/a	1
855.2760000000	n/a	855276	GoVariableSOA	454	n/a	n/a	1
857.0260000000	n/a	857026	FrequentVariableSOA	1800	n/a	n/a	1
858.8260000000	n/a	858826	FrequentVariableSOA	1533	n/a	n/a	1
860.3600000000	n/a	860360	NovelVariableSOA	1533	n/a	n/a	1
861.8930000000	n/a	861893	FrequentVariableSOA	1750	n/a	n/a	1
863.6430000000	n/a	863643	GoVariableSOA	1750	n/a	n/a	0
865.3930000000	n/a	865393	FrequentVariableSOA	1683	n/a	n/a	1
867.0760000000	n/a	867076	FrequentVariableSOA	1716	n/a	n/a	1
868.7930000000	n/a	868793	FrequentVariableSOA	1650	n/a	n/a	1
870.4430000000	n/a	870443	FrequentVariableSOA	1516	n/a	n/a	1
871.9600000000	n/a	871960	FrequentVariableSOA	1583	n/a	n/a	1
873.5430000000	n/a	873543	FrequentVariableSOA	1666	n/a	n/a	1
875.2100000000	n/a	875210	NovelVariableSOA	1783	n/a	n/a	1
876.9930000000	n/a	876993	FrequentVariableSOA	1700	n/a	n/a	1
878.6930000000	n/a	878693	FrequentVariableSOA	1716	n/a	n/a	1
880.4100000000	n/a	880410	FrequentVariableSOA	1616	n/a	n/a	1
882.0260000000	n/a	882026	GoVariableSOA	583	n/a	n/a	1
883.5930000000	n/a	883593	FrequentVariableSOA	1550	n/a	n/a	1
885.1430000000	n/a	885143	FrequentVariableSOA	1566	n/a	n/a	1
886.7100000000	n/a	886710	FrequentVariableSOA	1566	n/a	n/a	1
888.2760000000	n/a	888276	FrequentVariableSOA	1616	n/a	n/a	1
889.8930000000	n/a	889893	NovelVariableSOA	1716	n/a	n/a	1
891.6100000000	n/a	891610	FrequentVariableSOA	1700	n/a	n/a	1
893.3100000000	n/a	893310	FrequentVariableSOA	1700	n/a	n/a	1
895.0100000000	n/a	895010	NovelVariableSOA	1600	n/a	n/a	1
896.6100000000	n/a	896610	FrequentVariableSOA	1733	n/a	n/a	1
898.3430000000	n/a	898343	NovelVariableSOA	1566	n/a	n/a	1
899.9100000000	n/a	899910	FrequentVariableSOA	1683	n/a	n/a	1
901.5930000000	n/a	901593	FrequentVariableSOA	1516	n/a	n/a	1
903.1100000000	n/a	903110	FrequentVariableSOA	1583	n/a	n/a	1
904.6930000000	n/a	904693	FrequentVariableSOA	1550	n/a	n/a	1
906.2430000000	n/a	906243	FrequentVariableSOA	1500	n/a	n/a	1
907.7430000000	n/a	907743	FrequentVariableSOA	1516	n/a	n/a	1
909.2600000000	n/a	909260	FrequentVariableSOA	1666	n/a	n/a	1
910.9260000000	n/a	910926	GoVariableSOA	482	n/a	n/a	1
912.5600000000	n/a	912560	FrequentVariableSOA	1683	n/a	n/a	1
914.2430000000	n/a	914243	GoVariableSOA	426	n/a	n/a	1
915.9600000000	n/a	915960	FrequentVariableSOA	1733	n/a	n/a	1
917.6930000000	n/a	917693	FrequentVariableSOA	1750	n/a	n/a	1
919.4430000000	n/a	919443	NovelVariableSOA	1600	n/a	n/a	1
921.0430000000	n/a	921043	FrequentVariableSOA	1766	n/a	n/a	1
