onset	duration	sample	trial_type	response_time	stim_file	value	correct
5.5980000000	n/a	5598	ignore	9138	n/a	n/a	1
15.8150000000	n/a	15815	ignore	1000	n/a	n/a	1
17.8150000000	n/a	17815	ignore	1700	n/a	n/a	1
19.5150000000	n/a	19515	ignore	4594	n/a	n/a	1
25.1820000000	n/a	25182	ignore	1000	n/a	n/a	1
27.1820000000	n/a	27182	ignore	1700	n/a	n/a	1
28.8820000000	n/a	28882	ignore	3616	n/a	n/a	1
33.5650000000	n/a	33565	ignore	1000	n/a	n/a	1
35.5650000000	n/a	35565	ignore	1700	n/a	n/a	1
37.2650000000	n/a	37265	ignore	3168	n/a	n/a	1
41.4980000000	n/a	41498	ignore	1000	n/a	n/a	1
43.4980000000	n/a	43498	ignore	1700	n/a	n/a	1
45.1980000000	n/a	45198	ignore	3687	n/a	n/a	1
49.9480000000	n/a	49948	ignore	1000	n/a	n/a	1
51.9480000000	n/a	51948	ignore	1700	n/a	n/a	1
53.6480000000	n/a	53648	ignore	2204	n/a	n/a	1
56.9150000000	n/a	56915	ignore	1000	n/a	n/a	1
58.9150000000	n/a	58915	STATUS	1700	n/a	n/a	1
60.6150000000	n/a	60615	ignore	4927	n/a	n/a	1
66.6150000000	n/a	66615	ignore	1000	n/a	n/a	1
68.6150000000	n/a	68615	STATUS	1700	n/a	n/a	1
70.3150000000	n/a	70315	ignore	8483	n/a	n/a	0
79.8650000000	n/a	79865	ignore	1000	n/a	n/a	1
81.8650000000	n/a	81865	STATUS	1700	n/a	n/a	1
83.5650000000	n/a	83565	ignore	4779	n/a	n/a	1
88.4150000000	n/a	88415	ignore 	2000	n/a	n/a	1
95.9310000000	n/a	95931	ignore	1000	n/a	n/a	1
97.9320000000	n/a	97932	STATUS	1700	n/a	n/a	1
99.6310000000	n/a	99631	ignore	1420	n/a	n/a	0
102.1150000000	n/a	102115	ignore	1000	n/a	n/a	1
104.1150000000	n/a	104115	ignore	1700	n/a	n/a	1
105.8150000000	n/a	105815	ignore	672	n/a	n/a	1
107.5650000000	n/a	107565	ignore	1000	n/a	n/a	1
109.5650000000	n/a	109565	ignore	1700	n/a	n/a	1
111.2650000000	n/a	111265	ignore	594	n/a	n/a	0
112.9310000000	n/a	112931	ignore	1000	n/a	n/a	1
114.9310000000	n/a	114931	ignore	1700	n/a	n/a	1
116.6310000000	n/a	116631	ignore	2460	n/a	n/a	0
120.1650000000	n/a	120165	ignore	1000	n/a	n/a	1
122.1650000000	n/a	122165	ignore	1700	n/a	n/a	1
123.8650000000	n/a	123865	ignore	543	n/a	n/a	1
125.4810000000	n/a	125481	ignore	1000	n/a	n/a	1
127.4810000000	n/a	127481	ignore	1700	n/a	n/a	1
129.1810000000	n/a	129181	ignore	511	n/a	n/a	1
130.7650000000	n/a	130765	ignore	1000	n/a	n/a	1
132.7650000000	n/a	132765	ignore	1700	n/a	n/a	1
134.4650000000	n/a	134465	ignore	2119	n/a	n/a	1
137.6480000000	n/a	137648	ignore	1000	n/a	n/a	1
139.6480000000	n/a	139648	ignore	1700	n/a	n/a	1
141.3480000000	n/a	141348	ignore	1841	n/a	n/a	1
143.2650000000	n/a	143265	ignore 	2000	n/a	n/a	1
165.5980000000	n/a	165598	PenaltyB1	2539	n/a	n/a	1
169.2150000000	n/a	169215	NeuCorrB1	1000	n/a	n/a	1
171.2150000000	n/a	171215	ignore	1700	n/a	n/a	1
172.9150000000	n/a	172915	PenaltyB1	1608	n/a	n/a	0
175.5980000000	n/a	175598	PunIncorrB1	1000	n/a	n/a	1
177.5980000000	n/a	177598	ignore	1700	n/a	n/a	1
179.2980000000	n/a	179298	PenaltyB1	1338	n/a	n/a	1
181.6980000000	n/a	181698	NeuCorrB1	1000	n/a	n/a	1
183.6980000000	n/a	183698	ignore	1700	n/a	n/a	1
185.3980000000	n/a	185398	RewardB1	1704	n/a	n/a	1
188.1650000000	n/a	188165	RewardCorrB1	1000	n/a	n/a	1
190.1650000000	n/a	190165	ignore	1700	n/a	n/a	1
191.8650000000	n/a	191865	RewardB1	3363	n/a	n/a	0
196.2980000000	n/a	196298	NeuIncorrB1	1000	n/a	n/a	1
198.2980000000	n/a	198298	ignore	1700	n/a	n/a	1
199.9980000000	n/a	199998	PenaltyB1	1172	n/a	n/a	1
202.2480000000	n/a	202248	NeuCorrB1	1000	n/a	n/a	1
204.2480000000	n/a	204248	ignore	1700	n/a	n/a	1
205.9480000000	n/a	205948	PenaltyB1	1900	n/a	n/a	1
208.9150000000	n/a	208915	NeuCorrB1	1000	n/a	n/a	1
210.9150000000	n/a	210915	ignore	1700	n/a	n/a	1
212.6150000000	n/a	212615	PenaltyB1	718	n/a	n/a	1
214.3980000000	n/a	214398	NeuCorrB1	1000	n/a	n/a	1
216.3980000000	n/a	216398	ignore	1700	n/a	n/a	1
218.0980000000	n/a	218098	PenaltyB1	684	n/a	n/a	1
219.8480000000	n/a	219848	PunCorrB1	1000	n/a	n/a	1
221.8480000000	n/a	221848	ignore	1700	n/a	n/a	1
223.5480000000	n/a	223548	RewardB1	1115	n/a	n/a	0
225.7310000000	n/a	225731	NeuIncorrB1	1000	n/a	n/a	1
227.7310000000	n/a	227731	ignore	1700	n/a	n/a	1
229.4310000000	n/a	229431	PenaltyB1	2299	n/a	n/a	0
232.7980000000	n/a	232798	PunIncorrB1	1000	n/a	n/a	1
234.7980000000	n/a	234798	STATUS	1700	n/a	n/a	1
236.4980000000	n/a	236498	RewardB1	2042	n/a	n/a	1
239.6150000000	n/a	239615	NeuCorrB1	1000	n/a	n/a	1
241.6150000000	n/a	241615	STATUS	1700	n/a	n/a	1
243.3150000000	n/a	243315	PenaltyB1	1070	n/a	n/a	0
245.4480000000	n/a	245448	PunIncorrB1	1000	n/a	n/a	1
247.4480000000	n/a	247448	STATUS	1700	n/a	n/a	1
249.1480000000	n/a	249148	RewardB1	2799	n/a	n/a	0
253.0150000000	n/a	253015	NeuIncorrB1	1000	n/a	n/a	1
255.0150000000	n/a	255015	STATUS	1700	n/a	n/a	1
256.7150000000	n/a	256715	PenaltyB1	1017	n/a	n/a	1
258.7980000000	n/a	258798	NeuCorrB1	1000	n/a	n/a	1
260.7980000000	n/a	260798	STATUS	1700	n/a	n/a	1
262.4980000000	n/a	262498	PenaltyB1	1278	n/a	n/a	1
264.8480000000	n/a	264848	NeuCorrB1	1000	n/a	n/a	1
266.8480000000	n/a	266848	STATUS	1700	n/a	n/a	1
268.5480000000	n/a	268548	RewardB1	983	n/a	n/a	1
270.5980000000	n/a	270598	NeuCorrB1	1000	n/a	n/a	1
272.5980000000	n/a	272598	STATUS	1700	n/a	n/a	1
274.2980000000	n/a	274298	PenaltyB1	1172	n/a	n/a	1
276.5480000000	n/a	276548	NeuCorrB1	1000	n/a	n/a	1
278.5480000000	n/a	278548	STATUS	1700	n/a	n/a	1
280.2480000000	n/a	280248	RewardB1	765	n/a	n/a	1
282.0810000000	n/a	282081	RewardCorrB1	1000	n/a	n/a	1
284.0810000000	n/a	284081	STATUS	1700	n/a	n/a	1
285.7810000000	n/a	285781	RewardB1	1012	n/a	n/a	1
287.8640000000	n/a	287864	RewardCorrB1	1000	n/a	n/a	1
289.8650000000	n/a	289865	ignore	1700	n/a	n/a	1
291.5640000000	n/a	291564	RewardB1	1593	n/a	n/a	0
294.2310000000	n/a	294231	RewIncorrB1	1000	n/a	n/a	1
296.2310000000	n/a	296231	ignore	1700	n/a	n/a	1
297.9310000000	n/a	297931	RewardB1	641	n/a	n/a	0
299.6480000000	n/a	299648	NeuIncorrB1	1000	n/a	n/a	1
301.6480000000	n/a	301648	ignore	1700	n/a	n/a	1
303.3480000000	n/a	303348	RewardB1	727	n/a	n/a	1
305.1480000000	n/a	305148	RewardCorrB1	1000	n/a	n/a	1
307.1480000000	n/a	307148	ignore	1700	n/a	n/a	1
308.8480000000	n/a	308848	PenaltyB1	791	n/a	n/a	1
310.7140000000	n/a	310714	NeuCorrB1	1000	n/a	n/a	1
312.7150000000	n/a	312715	ignore	1700	n/a	n/a	1
314.4140000000	n/a	314414	RewardB1	719	n/a	n/a	0
316.1980000000	n/a	316198	NeuIncorrB1	1000	n/a	n/a	1
318.1980000000	n/a	318198	ignore	1700	n/a	n/a	1
319.8980000000	n/a	319898	PenaltyB1	873	n/a	n/a	1
321.8480000000	n/a	321848	PunCorrB1	1000	n/a	n/a	1
323.8480000000	n/a	323848	ignore	1700	n/a	n/a	1
325.5480000000	n/a	325548	RewardB1	689	n/a	n/a	0
327.3140000000	n/a	327314	NeuIncorrB1	1000	n/a	n/a	1
329.3140000000	n/a	329314	ignore	1700	n/a	n/a	1
331.0140000000	n/a	331014	RewardB1	702	n/a	n/a	1
332.7810000000	n/a	332781	RewardCorrB1	1000	n/a	n/a	1
334.7810000000	n/a	334781	ignore	1700	n/a	n/a	1
336.4810000000	n/a	336481	RewardB1	746	n/a	n/a	0
338.2980000000	n/a	338298	NeuIncorrB1	1000	n/a	n/a	1
340.2980000000	n/a	340298	ignore	1700	n/a	n/a	1
341.9980000000	n/a	341998	PenaltyB1	1063	n/a	n/a	0
344.1310000000	n/a	344131	PunIncorrB1	1000	n/a	n/a	1
346.1310000000	n/a	346131	ignore	1700	n/a	n/a	1
347.8310000000	n/a	347831	RewardB1	542	n/a	n/a	0
349.4480000000	n/a	349448	RewIncorrB1	1000	n/a	n/a	1
351.4480000000	n/a	351448	ignore	1700	n/a	n/a	1
353.1480000000	n/a	353148	PenaltyB1	764	n/a	n/a	1
354.9810000000	n/a	354981	NeuCorrB1	1000	n/a	n/a	1
356.9810000000	n/a	356981	ignore	1700	n/a	n/a	1
358.6810000000	n/a	358681	RewardB1	484	n/a	n/a	1
360.2310000000	n/a	360231	RewardCorrB1	1000	n/a	n/a	1
362.2310000000	n/a	362231	ignore	1700	n/a	n/a	1
363.9310000000	n/a	363931	PenaltyB1	2236	n/a	n/a	1
367.2310000000	n/a	367231	PunCorrB1	1000	n/a	n/a	1
369.2310000000	n/a	369231	ignore	1700	n/a	n/a	1
370.9310000000	n/a	370931	RewardB1	633	n/a	n/a	0
372.6310000000	n/a	372631	NeuIncorrB1	1000	n/a	n/a	1
374.6310000000	n/a	374631	ignore	1700	n/a	n/a	1
376.3310000000	n/a	376331	PenaltyB1	1359	n/a	n/a	1
378.7640000000	n/a	378764	NeuCorrB1	1000	n/a	n/a	1
380.7640000000	n/a	380764	ignore	1700	n/a	n/a	1
382.4640000000	n/a	382464	PenaltyB1	737	n/a	n/a	1
384.2640000000	n/a	384264	NeuCorrB1	1000	n/a	n/a	1
386.2640000000	n/a	386264	ignore	1700	n/a	n/a	1
387.9640000000	n/a	387964	RewardB1	546	n/a	n/a	0
389.5810000000	n/a	389581	NeuIncorrB1	1000	n/a	n/a	1
391.5810000000	n/a	391581	ignore	1700	n/a	n/a	1
393.2810000000	n/a	393281	PenaltyB1	621	n/a	n/a	1
394.9640000000	n/a	394964	PunCorrB1	1000	n/a	n/a	1
396.9640000000	n/a	396964	ignore	1700	n/a	n/a	1
398.6640000000	n/a	398664	RewardB1	539	n/a	n/a	1
400.2810000000	n/a	400281	RewardCorrB1	1000	n/a	n/a	1
402.2810000000	n/a	402281	ignore	1700	n/a	n/a	1
406.0140000000	n/a	406014	RewardB2	578	n/a	n/a	1
407.6640000000	n/a	407664	RewardCorrB2	1000	n/a	n/a	1
409.6640000000	n/a	409664	ignore	1700	n/a	n/a	1
411.3640000000	n/a	411364	PenaltyB2	1242	n/a	n/a	1
413.6810000000	n/a	413681	NeuCorrB2	1000	n/a	n/a	1
415.6810000000	n/a	415681	ignore	1700	n/a	n/a	1
417.3810000000	n/a	417381	RewardB2	485	n/a	n/a	1
418.9310000000	n/a	418931	RewardCorrB2	1000	n/a	n/a	1
420.9310000000	n/a	420931	ignore	1700	n/a	n/a	1
422.6310000000	n/a	422631	RewardB2	617	n/a	n/a	0
424.3140000000	n/a	424314	RewIncorrB2	1000	n/a	n/a	1
426.3140000000	n/a	426314	ignore	1700	n/a	n/a	1
428.0140000000	n/a	428014	PenaltyB2	1093	n/a	n/a	1
430.1810000000	n/a	430181	NeuCorrB2	1000	n/a	n/a	1
432.1810000000	n/a	432181	ignore	1700	n/a	n/a	1
433.8810000000	n/a	433881	RewardB2	518	n/a	n/a	0
435.4640000000	n/a	435464	NeuIncorrB2	1000	n/a	n/a	1
437.4640000000	n/a	437464	ignore	1700	n/a	n/a	1
439.1640000000	n/a	439164	PenaltyB2	2259	n/a	n/a	1
442.4980000000	n/a	442498	NeuCorrB2	1000	n/a	n/a	1
444.4980000000	n/a	444498	ignore	1700	n/a	n/a	1
446.1980000000	n/a	446198	RewardB2	2381	n/a	n/a	0
449.6480000000	n/a	449648	NeuIncorrB2	1000	n/a	n/a	1
451.6480000000	n/a	451648	ignore	1700	n/a	n/a	1
453.3480000000	n/a	453348	PenaltyB2	682	n/a	n/a	1
455.0980000000	n/a	455098	NeuCorrB2	1000	n/a	n/a	1
457.0980000000	n/a	457098	ignore	1700	n/a	n/a	1
458.7980000000	n/a	458798	RewardB2	589	n/a	n/a	1
460.4640000000	n/a	460464	RewardCorrB2	1000	n/a	n/a	1
462.4640000000	n/a	462464	ignore	1700	n/a	n/a	1
464.1640000000	n/a	464164	PenaltyB2	697	n/a	n/a	1
465.9310000000	n/a	465931	PunCorrB2	1000	n/a	n/a	1
467.9310000000	n/a	467931	ignore	1700	n/a	n/a	1
469.6310000000	n/a	469631	RewardB2	605	n/a	n/a	1
471.3140000000	n/a	471314	RewardCorrB2	1000	n/a	n/a	1
473.3140000000	n/a	473314	ignore	1700	n/a	n/a	1
475.0140000000	n/a	475014	PenaltyB2	2533	n/a	n/a	1
478.6140000000	n/a	478614	NeuCorrB2	1000	n/a	n/a	1
480.6140000000	n/a	480614	ignore	1700	n/a	n/a	1
482.3140000000	n/a	482314	RewardB2	524	n/a	n/a	0
483.9140000000	n/a	483914	NeuIncorrB2	1000	n/a	n/a	1
485.9140000000	n/a	485914	ignore	1700	n/a	n/a	1
487.6140000000	n/a	487614	PenaltyB2	733	n/a	n/a	1
489.4140000000	n/a	489414	NeuCorrB2	1000	n/a	n/a	1
491.4140000000	n/a	491414	ignore	1700	n/a	n/a	1
493.1140000000	n/a	493114	RewardB2	514	n/a	n/a	0
494.6980000000	n/a	494698	RewIncorrB2	1000	n/a	n/a	1
496.6980000000	n/a	496698	ignore	1700	n/a	n/a	1
498.3980000000	n/a	498398	PenaltyB2	1280	n/a	n/a	1
500.7480000000	n/a	500748	NeuCorrB2	1000	n/a	n/a	1
502.7480000000	n/a	502748	ignore	1700	n/a	n/a	1
504.4470000000	n/a	504447	RewardB2	468	n/a	n/a	0
505.9810000000	n/a	505981	NeuIncorrB2	1000	n/a	n/a	1
507.9810000000	n/a	507981	ignore	1700	n/a	n/a	1
509.6810000000	n/a	509681	PenaltyB2	756	n/a	n/a	1
511.5140000000	n/a	511514	NeuCorrB2	1000	n/a	n/a	1
513.5140000000	n/a	513514	ignore	1700	n/a	n/a	1
515.2140000000	n/a	515214	RewardB2	541	n/a	n/a	1
516.8310000000	n/a	516831	RewardCorrB2	1000	n/a	n/a	1
518.8310000000	n/a	518831	ignore	1700	n/a	n/a	1
520.5310000000	n/a	520531	PenaltyB2	1204	n/a	n/a	1
522.7970000000	n/a	522797	PunCorrB2	1000	n/a	n/a	1
524.7980000000	n/a	524798	ignore	1700	n/a	n/a	1
526.4970000000	n/a	526497	PenaltyB2	649	n/a	n/a	1
528.2140000000	n/a	528214	NeuCorrB2	1000	n/a	n/a	1
530.2140000000	n/a	530214	ignore	1700	n/a	n/a	1
531.9140000000	n/a	531914	PenaltyB2	1454	n/a	n/a	1
534.4310000000	n/a	534431	NeuCorrB2	1000	n/a	n/a	1
536.4310000000	n/a	536431	ignore	1700	n/a	n/a	1
538.1310000000	n/a	538131	RewardB2	735	n/a	n/a	0
539.9310000000	n/a	539931	NeuIncorrB2	1000	n/a	n/a	1
541.9310000000	n/a	541931	ignore	1700	n/a	n/a	1
543.6310000000	n/a	543631	RewardB2	557	n/a	n/a	1
545.2640000000	n/a	545264	NeuCorrB2	1000	n/a	n/a	1
547.2640000000	n/a	547264	ignore	1700	n/a	n/a	1
548.9640000000	n/a	548964	RewardB2	445	n/a	n/a	1
550.4810000000	n/a	550481	RewardCorrB2	1000	n/a	n/a	1
552.4810000000	n/a	552481	ignore	1700	n/a	n/a	1
554.1810000000	n/a	554181	PenaltyB2	817	n/a	n/a	1
556.0640000000	n/a	556064	NeuCorrB2	1000	n/a	n/a	1
558.0640000000	n/a	558064	ignore	1700	n/a	n/a	1
559.7640000000	n/a	559764	PenaltyB2	1530	n/a	n/a	1
562.3640000000	n/a	562364	NeuCorrB2	1000	n/a	n/a	1
564.3640000000	n/a	564364	ignore	1700	n/a	n/a	1
566.0640000000	n/a	566064	RewardB2	901	n/a	n/a	0
568.0310000000	n/a	568031	NeuIncorrB2	1000	n/a	n/a	1
570.0310000000	n/a	570031	ignore	1700	n/a	n/a	1
571.7310000000	n/a	571731	PenaltyB2	1448	n/a	n/a	1
574.2470000000	n/a	574247	NeuCorrB2	1000	n/a	n/a	1
576.2470000000	n/a	576247	ignore	1700	n/a	n/a	1
577.9470000000	n/a	577947	RewardB2	912	n/a	n/a	1
579.9310000000	n/a	579931	NeuCorrB2	1000	n/a	n/a	1
581.9310000000	n/a	581931	ignore	1700	n/a	n/a	1
583.6310000000	n/a	583631	PenaltyB2	1214	n/a	n/a	1
585.9140000000	n/a	585914	NeuCorrB2	1000	n/a	n/a	1
587.9140000000	n/a	587914	ignore	1700	n/a	n/a	1
589.6140000000	n/a	589614	RewardB2	528	n/a	n/a	0
591.2140000000	n/a	591214	NeuIncorrB2	1000	n/a	n/a	1
593.2140000000	n/a	593214	ignore	1700	n/a	n/a	1
594.9140000000	n/a	594914	PenaltyB2	958	n/a	n/a	1
596.9470000000	n/a	596947	NeuCorrB2	1000	n/a	n/a	1
598.9470000000	n/a	598947	ignore	1700	n/a	n/a	1
600.6470000000	n/a	600647	PenaltyB2	2260	n/a	n/a	1
603.9810000000	n/a	603981	PunCorrB2	1000	n/a	n/a	1
605.9810000000	n/a	605981	ignore	1700	n/a	n/a	1
607.6810000000	n/a	607681	RewardB2	558	n/a	n/a	1
609.3140000000	n/a	609314	RewardCorrB2	1000	n/a	n/a	1
611.3140000000	n/a	611314	ignore	1700	n/a	n/a	1
613.0140000000	n/a	613014	PenaltyB2	2630	n/a	n/a	1
616.7140000000	n/a	616714	NeuCorrB2	1000	n/a	n/a	1
618.7140000000	n/a	618714	ignore	1700	n/a	n/a	1
620.4140000000	n/a	620414	RewardB2	516	n/a	n/a	0
621.9970000000	n/a	621997	NeuIncorrB2	1000	n/a	n/a	1
623.9970000000	n/a	623997	ignore	1700	n/a	n/a	1
625.6970000000	n/a	625697	PenaltyB2	1418	n/a	n/a	0
628.1810000000	n/a	628181	NeuIncorrB2	1000	n/a	n/a	1
630.1810000000	n/a	630181	ignore	1700	n/a	n/a	1
631.8810000000	n/a	631881	RewardB2	544	n/a	n/a	1
633.4970000000	n/a	633497	RewardCorrB2	1000	n/a	n/a	1
635.4970000000	n/a	635497	STATUS	1700	n/a	n/a	1
638.9810000000	n/a	638981	RewardB3	640	n/a	n/a	1
640.6970000000	n/a	640697	RewardCorrB3	1000	n/a	n/a	1
642.6970000000	n/a	642697	STATUS	1700	n/a	n/a	1
644.3970000000	n/a	644397	PenaltyB3	715	n/a	n/a	1
646.1810000000	n/a	646181	PunCorrB3	1000	n/a	n/a	1
648.1810000000	n/a	648181	STATUS	1700	n/a	n/a	1
649.8810000000	n/a	649881	RewardB3	845	n/a	n/a	0
651.7970000000	n/a	651797	NeuIncorrB3	1000	n/a	n/a	1
653.7970000000	n/a	653797	STATUS	1700	n/a	n/a	1
655.4970000000	n/a	655497	PenaltyB3	2037	n/a	n/a	0
658.5970000000	n/a	658597	PunIncorrB3	1000	n/a	n/a	1
660.5970000000	n/a	660597	ignore	1700	n/a	n/a	1
662.2970000000	n/a	662297	PenaltyB3	1265	n/a	n/a	1
664.6310000000	n/a	664631	NeuCorrB3	1000	n/a	n/a	1
666.6310000000	n/a	666631	ignore	1700	n/a	n/a	1
668.3310000000	n/a	668331	RewardB3	656	n/a	n/a	0
670.0640000000	n/a	670064	NeuIncorrB3	1000	n/a	n/a	1
672.0640000000	n/a	672064	ignore	1700	n/a	n/a	1
673.7640000000	n/a	673764	PenaltyB3	820	n/a	n/a	1
675.6470000000	n/a	675647	PunCorrB3	1000	n/a	n/a	1
677.6470000000	n/a	677647	ignore	1700	n/a	n/a	1
679.3470000000	n/a	679347	RewardB3	548	n/a	n/a	1
680.9640000000	n/a	680964	RewardCorrB3	1000	n/a	n/a	1
682.9640000000	n/a	682964	ignore	1700	n/a	n/a	1
684.6640000000	n/a	684664	PenaltyB3	5246	n/a	n/a	1
690.9810000000	n/a	690981	NeuCorrB3	1000	n/a	n/a	1
692.9810000000	n/a	692981	ignore	1700	n/a	n/a	1
694.6810000000	n/a	694681	RewardB3	862	n/a	n/a	1
696.6140000000	n/a	696614	NeuCorrB3	1000	n/a	n/a	1
698.6140000000	n/a	698614	ignore	1700	n/a	n/a	1
700.3140000000	n/a	700314	PenaltyB3	955	n/a	n/a	0
702.3470000000	n/a	702347	PunIncorrB3	1000	n/a	n/a	1
704.3470000000	n/a	704347	ignore	1700	n/a	n/a	1
706.0470000000	n/a	706047	RewardB3	1073	n/a	n/a	1
708.1970000000	n/a	708197	RewardCorrB3	1000	n/a	n/a	1
710.1970000000	n/a	710197	ignore	1700	n/a	n/a	1
711.8970000000	n/a	711897	RewardB3	656	n/a	n/a	1
713.6310000000	n/a	713631	RewardCorrB3	1000	n/a	n/a	1
715.6310000000	n/a	715631	STATUS	1700	n/a	n/a	1
717.3310000000	n/a	717331	RewardB3	1117	n/a	n/a	1
719.5140000000	n/a	719514	RewardCorrB3	1000	n/a	n/a	1
721.5140000000	n/a	721514	STATUS	1700	n/a	n/a	1
723.2140000000	n/a	723214	PenaltyB3	1298	n/a	n/a	0
725.5810000000	n/a	725581	NeuIncorrB3	1000	n/a	n/a	1
727.5810000000	n/a	727581	STATUS	1700	n/a	n/a	1
729.2800000000	n/a	729280	RewardB3	677	n/a	n/a	1
731.0300000000	n/a	731030	RewardCorrB3	1000	n/a	n/a	1
733.0310000000	n/a	733031	STATUS	1700	n/a	n/a	1
734.7300000000	n/a	734730	PenaltyB3	3224	n/a	n/a	1
739.0300000000	n/a	739030	NeuCorrB3	1000	n/a	n/a	1
741.0310000000	n/a	741031	STATUS	1700	n/a	n/a	1
742.7300000000	n/a	742730	RewardB3	541	n/a	n/a	1
744.3470000000	n/a	744347	RewardCorrB3	1000	n/a	n/a	1
746.3470000000	n/a	746347	STATUS	1700	n/a	n/a	1
748.0470000000	n/a	748047	RewardB3	1339	n/a	n/a	1
750.4640000000	n/a	750464	RewardCorrB3	1000	n/a	n/a	1
752.4640000000	n/a	752464	STATUS	1700	n/a	n/a	1
754.1640000000	n/a	754164	RewardB3	834	n/a	n/a	1
756.0640000000	n/a	756064	NeuCorrB3	1000	n/a	n/a	1
758.0640000000	n/a	758064	STATUS	1700	n/a	n/a	1
759.7640000000	n/a	759764	RewardB3	517	n/a	n/a	1
761.3470000000	n/a	761347	RewardCorrB3	1000	n/a	n/a	1
763.3470000000	n/a	763347	STATUS	1700	n/a	n/a	1
765.0470000000	n/a	765047	RewardB3	603	n/a	n/a	1
766.7140000000	n/a	766714	RewardCorrB3	1000	n/a	n/a	1
768.7140000000	n/a	768714	STATUS	1700	n/a	n/a	1
770.4140000000	n/a	770414	PenaltyB3	1760	n/a	n/a	1
773.2470000000	n/a	773247	NeuCorrB3	1000	n/a	n/a	1
775.2470000000	n/a	775247	STATUS	1700	n/a	n/a	1
776.9470000000	n/a	776947	RewardB3	517	n/a	n/a	1
778.5300000000	n/a	778530	NeuCorrB3	1000	n/a	n/a	1
780.5300000000	n/a	780530	STATUS	1700	n/a	n/a	1
782.2300000000	n/a	782230	PenaltyB3	764	n/a	n/a	1
784.0640000000	n/a	784064	NeuCorrB3	1000	n/a	n/a	1
786.0640000000	n/a	786064	STATUS	1700	n/a	n/a	1
787.7640000000	n/a	787764	PenaltyB3	1139	n/a	n/a	1
789.9800000000	n/a	789980	NeuCorrB3	1000	n/a	n/a	1
791.9800000000	n/a	791980	STATUS	1700	n/a	n/a	1
793.6800000000	n/a	793680	RewardB3	649	n/a	n/a	1
795.3970000000	n/a	795397	RewardCorrB3	1000	n/a	n/a	1
797.3970000000	n/a	797397	STATUS	1700	n/a	n/a	1
799.0970000000	n/a	799097	PenaltyB3	749	n/a	n/a	1
800.9140000000	n/a	800914	NeuCorrB3	1000	n/a	n/a	1
802.9140000000	n/a	802914	STATUS	1700	n/a	n/a	1
804.6140000000	n/a	804614	RewardB3	602	n/a	n/a	1
806.2800000000	n/a	806280	NeuCorrB3	1000	n/a	n/a	1
808.2800000000	n/a	808280	STATUS	1700	n/a	n/a	1
809.9800000000	n/a	809980	PenaltyB3	823	n/a	n/a	1
811.8800000000	n/a	811880	NeuCorrB3	1000	n/a	n/a	1
813.8800000000	n/a	813880	STATUS	1700	n/a	n/a	1
815.5800000000	n/a	815580	RewardB3	575	n/a	n/a	1
817.2300000000	n/a	817230	RewardCorrB3	1000	n/a	n/a	1
819.2300000000	n/a	819230	STATUS	1700	n/a	n/a	1
820.9300000000	n/a	820930	PenaltyB3	1752	n/a	n/a	1
823.7470000000	n/a	823747	PunCorrB3	1000	n/a	n/a	1
825.7470000000	n/a	825747	STATUS	1700	n/a	n/a	1
827.4470000000	n/a	827447	PenaltyB3	1032	n/a	n/a	0
829.5470000000	n/a	829547	PunIncorrB3	1000	n/a	n/a	1
831.5470000000	n/a	831547	STATUS	1700	n/a	n/a	1
833.2470000000	n/a	833247	PenaltyB3	595	n/a	n/a	1
834.9140000000	n/a	834914	NeuCorrB3	1000	n/a	n/a	1
836.9140000000	n/a	836914	STATUS	1700	n/a	n/a	1
838.6140000000	n/a	838614	PenaltyB3	1001	n/a	n/a	0
840.6800000000	n/a	840680	PunIncorrB3	1000	n/a	n/a	1
842.6800000000	n/a	842680	STATUS	1700	n/a	n/a	1
844.3800000000	n/a	844380	RewardB3	1367	n/a	n/a	1
846.8140000000	n/a	846814	RewardCorrB3	1000	n/a	n/a	1
848.8140000000	n/a	848814	STATUS	1700	n/a	n/a	1
850.5140000000	n/a	850514	RewardB3	533	n/a	n/a	1
852.1140000000	n/a	852114	RewardCorrB3	1000	n/a	n/a	1
854.1140000000	n/a	854114	STATUS	1700	n/a	n/a	1
855.8140000000	n/a	855814	PenaltyB3	842	n/a	n/a	1
857.7300000000	n/a	857730	NeuCorrB3	1000	n/a	n/a	1
859.7300000000	n/a	859730	STATUS	1700	n/a	n/a	1
861.4300000000	n/a	861430	PenaltyB3	920	n/a	n/a	1
863.4140000000	n/a	863414	NeuCorrB3	1000	n/a	n/a	1
865.4140000000	n/a	865414	STATUS	1700	n/a	n/a	1
867.1140000000	n/a	867114	PenaltyB3	633	n/a	n/a	1
868.8140000000	n/a	868814	NeuCorrB3	1000	n/a	n/a	1
870.8140000000	n/a	870814	STATUS	1700	n/a	n/a	1
875.6140000000	n/a	875614	RewardB4	700	n/a	n/a	1
877.3800000000	n/a	877380	RewardCorrB4	1000	n/a	n/a	1
879.3800000000	n/a	879380	STATUS	1700	n/a	n/a	1
881.0800000000	n/a	881080	PenaltyB4	929	n/a	n/a	1
883.0800000000	n/a	883080	PunCorrB4	1000	n/a	n/a	1
885.0800000000	n/a	885080	STATUS	1700	n/a	n/a	1
886.7800000000	n/a	886780	RewardB4	1079	n/a	n/a	1
888.9300000000	n/a	888930	RewardCorrB4	1000	n/a	n/a	1
890.9300000000	n/a	890930	STATUS	1700	n/a	n/a	1
892.6300000000	n/a	892630	PenaltyB4	765	n/a	n/a	1
894.4640000000	n/a	894464	NeuCorrB4	1000	n/a	n/a	1
896.4640000000	n/a	896464	STATUS	1700	n/a	n/a	1
898.1640000000	n/a	898164	RewardB4	619	n/a	n/a	1
899.8470000000	n/a	899847	RewardCorrB4	1000	n/a	n/a	1
901.8470000000	n/a	901847	STATUS	1700	n/a	n/a	1
903.5470000000	n/a	903547	PenaltyB4	910	n/a	n/a	1
905.5300000000	n/a	905530	PunCorrB4	1000	n/a	n/a	1
907.5300000000	n/a	907530	STATUS	1700	n/a	n/a	1
909.2300000000	n/a	909230	PenaltyB4	622	n/a	n/a	1
910.9300000000	n/a	910930	NeuCorrB4	1000	n/a	n/a	1
912.9300000000	n/a	912930	STATUS	1700	n/a	n/a	1
914.6300000000	n/a	914630	RewardB4	770	n/a	n/a	1
916.4640000000	n/a	916464	RewardCorrB4	1000	n/a	n/a	1
918.4640000000	n/a	918464	STATUS	1700	n/a	n/a	1
920.1640000000	n/a	920164	PenaltyB4	1537	n/a	n/a	1
922.7640000000	n/a	922764	NeuCorrB4	1000	n/a	n/a	1
924.7640000000	n/a	924764	STATUS	1700	n/a	n/a	1
926.4640000000	n/a	926464	RewardB4	563	n/a	n/a	1
928.0970000000	n/a	928097	NeuCorrB4	1000	n/a	n/a	1
930.0970000000	n/a	930097	STATUS	1700	n/a	n/a	1
931.7970000000	n/a	931797	PenaltyB4	853	n/a	n/a	1
933.7140000000	n/a	933714	NeuCorrB4	1000	n/a	n/a	1
935.7140000000	n/a	935714	STATUS	1700	n/a	n/a	1
937.4140000000	n/a	937414	RewardB4	515	n/a	n/a	1
938.9970000000	n/a	938997	RewardCorrB4	1000	n/a	n/a	1
940.9970000000	n/a	940997	STATUS	1700	n/a	n/a	1
942.6970000000	n/a	942697	PenaltyB4	610	n/a	n/a	1
944.3800000000	n/a	944380	NeuCorrB4	1000	n/a	n/a	1
946.3800000000	n/a	946380	STATUS	1700	n/a	n/a	1
948.0800000000	n/a	948080	PenaltyB4	862	n/a	n/a	1
950.0140000000	n/a	950014	NeuCorrB4	1000	n/a	n/a	1
952.0140000000	n/a	952014	STATUS	1700	n/a	n/a	1
953.7140000000	n/a	953714	RewardB4	554	n/a	n/a	1
955.3300000000	n/a	955330	RewardCorrB4	1000	n/a	n/a	1
957.3300000000	n/a	957330	STATUS	1700	n/a	n/a	1
959.0300000000	n/a	959030	RewardB4	946	n/a	n/a	1
961.0470000000	n/a	961047	NeuCorrB4	1000	n/a	n/a	1
963.0470000000	n/a	963047	STATUS	1700	n/a	n/a	1
964.7470000000	n/a	964747	RewardB4	961	n/a	n/a	1
966.7800000000	n/a	966780	RewardCorrB4	1000	n/a	n/a	1
968.7800000000	n/a	968780	STATUS	1700	n/a	n/a	1
970.4800000000	n/a	970480	PenaltyB4	1025	n/a	n/a	1
972.5800000000	n/a	972580	NeuCorrB4	1000	n/a	n/a	1
974.5800000000	n/a	974580	STATUS	1700	n/a	n/a	1
976.2800000000	n/a	976280	PenaltyB4	747	n/a	n/a	1
978.0970000000	n/a	978097	NeuCorrB4	1000	n/a	n/a	1
980.0970000000	n/a	980097	STATUS	1700	n/a	n/a	1
981.7970000000	n/a	981797	PenaltyB4	652	n/a	n/a	1
983.5130000000	n/a	983513	PunCorrB4	1000	n/a	n/a	1
985.5140000000	n/a	985514	STATUS	1700	n/a	n/a	1
987.2130000000	n/a	987213	RewardB4	628	n/a	n/a	1
988.9130000000	n/a	988913	RewardCorrB4	1000	n/a	n/a	1
990.9140000000	n/a	990914	STATUS	1700	n/a	n/a	1
992.6130000000	n/a	992613	PenaltyB4	4002	n/a	n/a	1
997.6800000000	n/a	997680	NeuCorrB4	1000	n/a	n/a	1
999.6800000000	n/a	999680	STATUS	1700	n/a	n/a	1
1001.3800000000	n/a	1001380	RewardB4	834	n/a	n/a	1
1003.2800000000	n/a	1003280	RewardCorrB4	1000	n/a	n/a	1
1005.2800000000	n/a	1005280	STATUS	1700	n/a	n/a	1
1006.9800000000	n/a	1006980	PenaltyB4	1607	n/a	n/a	1
1009.6630000000	n/a	1009663	NeuCorrB4	1000	n/a	n/a	1
1011.6630000000	n/a	1011663	STATUS	1700	n/a	n/a	1
1013.3630000000	n/a	1013363	RewardB4	646	n/a	n/a	1
1015.0800000000	n/a	1015080	NeuCorrB4	1000	n/a	n/a	1
1017.0800000000	n/a	1017080	STATUS	1700	n/a	n/a	1
1018.7800000000	n/a	1018780	PenaltyB4	732	n/a	n/a	1
1020.5800000000	n/a	1020580	NeuCorrB4	1000	n/a	n/a	1
1022.5800000000	n/a	1022580	STATUS	1700	n/a	n/a	1
1024.2800000000	n/a	1024280	RewardB4	653	n/a	n/a	1
1025.9970000000	n/a	1025997	RewardCorrB4	1000	n/a	n/a	1
1027.9970000000	n/a	1027997	STATUS	1700	n/a	n/a	1
1029.6970000000	n/a	1029697	PenaltyB4	3948	n/a	n/a	1
1034.7130000000	n/a	1034713	NeuCorrB4	1000	n/a	n/a	1
1036.7130000000	n/a	1036713	STATUS	1700	n/a	n/a	1
1038.4130000000	n/a	1038413	RewardB4	629	n/a	n/a	1
1040.1130000000	n/a	1040113	RewardCorrB4	1000	n/a	n/a	1
1042.1130000000	n/a	1042113	STATUS	1700	n/a	n/a	1
1043.8130000000	n/a	1043813	PenaltyB4	677	n/a	n/a	1
1045.5630000000	n/a	1045563	PunCorrB4	1000	n/a	n/a	1
1047.5630000000	n/a	1047563	STATUS	1700	n/a	n/a	1
1049.2630000000	n/a	1049263	RewardB4	839	n/a	n/a	1
1051.1800000000	n/a	1051180	RewardCorrB4	1000	n/a	n/a	1
1053.1800000000	n/a	1053180	STATUS	1700	n/a	n/a	1
1054.8800000000	n/a	1054880	PenaltyB4	972	n/a	n/a	1
1056.9300000000	n/a	1056930	NeuCorrB4	1000	n/a	n/a	1
1058.9300000000	n/a	1058930	STATUS	1700	n/a	n/a	1
1060.6300000000	n/a	1060630	RewardB4	868	n/a	n/a	1
1062.5630000000	n/a	1062563	RewardCorrB4	1000	n/a	n/a	1
1064.5630000000	n/a	1064563	STATUS	1700	n/a	n/a	1
1066.2630000000	n/a	1066263	PenaltyB4	1056	n/a	n/a	1
1068.3970000000	n/a	1068397	NeuCorrB4	1000	n/a	n/a	1
1070.3970000000	n/a	1070397	STATUS	1700	n/a	n/a	1
1072.0970000000	n/a	1072097	RewardB4	687	n/a	n/a	1
1073.8470000000	n/a	1073847	RewardCorrB4	1000	n/a	n/a	1
1075.8470000000	n/a	1075847	STATUS	1700	n/a	n/a	1
1077.5470000000	n/a	1077547	PenaltyB4	1092	n/a	n/a	1
1079.7130000000	n/a	1079713	NeuCorrB4	1000	n/a	n/a	1
1081.7130000000	n/a	1081713	STATUS	1700	n/a	n/a	1
1083.4130000000	n/a	1083413	RewardB4	665	n/a	n/a	1
1085.1470000000	n/a	1085147	NeuCorrB4	1000	n/a	n/a	1
1087.1470000000	n/a	1087147	STATUS	1700	n/a	n/a	1
1088.8470000000	n/a	1088847	RewardB4	587	n/a	n/a	1
1090.4970000000	n/a	1090497	RewardCorrB4	1000	n/a	n/a	1
1092.4970000000	n/a	1092497	STATUS	1700	n/a	n/a	1
1094.1970000000	n/a	1094197	PenaltyB4	1011	n/a	n/a	0
1096.2800000000	n/a	1096280	PunIncorrB4	1000	n/a	n/a	1
1098.2800000000	n/a	1098280	STATUS	1700	n/a	n/a	1
1099.9800000000	n/a	1099980	RewardB4	1248	n/a	n/a	1
1102.2970000000	n/a	1102297	RewardCorrB4	1000	n/a	n/a	1
1104.2970000000	n/a	1104297	STATUS	1700	n/a	n/a	1
1112.8970000000	n/a	1112897	STATUS	1700	n/a	n/a	1
