onset	duration	sample	trial_type	response_time	stim_file	value	correct
4.0780000000	n/a	4078	FrequentFixedSOA	1633	n/a	n/a	1
5.7110000000	n/a	5711	FrequentFixedSOA	1633	n/a	n/a	1
7.3450000000	n/a	7345	FrequentFixedSOA	1633	n/a	n/a	1
8.9780000000	n/a	8978	FrequentFixedSOA	1633	n/a	n/a	1
10.6110000000	n/a	10611	FrequentFixedSOA	1633	n/a	n/a	1
12.2450000000	n/a	12245	FrequentFixedSOA	1633	n/a	n/a	1
13.8780000000	n/a	13878	FrequentFixedSOA	1633	n/a	n/a	1
15.5110000000	n/a	15511	FrequentFixedSOA	1633	n/a	n/a	1
17.1450000000	n/a	17145	FrequentFixedSOA	1633	n/a	n/a	1
18.7780000000	n/a	18778	FrequentFixedSOA	1633	n/a	n/a	1
20.4110000000	n/a	20411	NovelFixedSOA	407	n/a	n/a	0
22.0450000000	n/a	22045	FrequentFixedSOA	1633	n/a	n/a	1
23.6780000000	n/a	23678	GoFixedSOA	480	n/a	n/a	1
25.3110000000	n/a	25311	FrequentFixedSOA	1633	n/a	n/a	1
26.9450000000	n/a	26945	FrequentFixedSOA	1633	n/a	n/a	1
28.5780000000	n/a	28578	FrequentFixedSOA	1633	n/a	n/a	1
30.2110000000	n/a	30211	GoFixedSOA	438	n/a	n/a	1
31.8450000000	n/a	31845	FrequentFixedSOA	1633	n/a	n/a	1
33.4780000000	n/a	33478	FrequentFixedSOA	1633	n/a	n/a	1
35.1110000000	n/a	35111	FrequentFixedSOA	1633	n/a	n/a	1
36.7450000000	n/a	36745	NovelFixedSOA	1633	n/a	n/a	1
38.3780000000	n/a	38378	FrequentFixedSOA	1633	n/a	n/a	1
40.0110000000	n/a	40011	FrequentFixedSOA	1633	n/a	n/a	1
41.6450000000	n/a	41645	FrequentFixedSOA	1633	n/a	n/a	1
43.2780000000	n/a	43278	GoFixedSOA	424	n/a	n/a	1
44.9110000000	n/a	44911	FrequentFixedSOA	1633	n/a	n/a	1
46.5450000000	n/a	46545	NovelFixedSOA	1633	n/a	n/a	1
48.1780000000	n/a	48178	FrequentFixedSOA	1633	n/a	n/a	1
49.8110000000	n/a	49811	FrequentFixedSOA	1633	n/a	n/a	1
51.4450000000	n/a	51445	FrequentFixedSOA	1633	n/a	n/a	1
53.0780000000	n/a	53078	GoFixedSOA	379	n/a	n/a	1
54.7110000000	n/a	54711	FrequentFixedSOA	1633	n/a	n/a	1
56.3450000000	n/a	56345	GoFixedSOA	411	n/a	n/a	1
57.9780000000	n/a	57978	FrequentFixedSOA	1633	n/a	n/a	1
59.6110000000	n/a	59611	FrequentFixedSOA	1633	n/a	n/a	1
61.2450000000	n/a	61245	GoFixedSOA	397	n/a	n/a	1
62.8780000000	n/a	62878	FrequentFixedSOA	1633	n/a	n/a	1
64.5110000000	n/a	64511	FrequentFixedSOA	1633	n/a	n/a	1
66.1450000000	n/a	66145	FrequentFixedSOA	1633	n/a	n/a	1
67.7780000000	n/a	67778	FrequentFixedSOA	1633	n/a	n/a	1
69.4110000000	n/a	69411	NovelFixedSOA	1633	n/a	n/a	1
71.0450000000	n/a	71045	FrequentFixedSOA	1633	n/a	n/a	1
72.6780000000	n/a	72678	NovelFixedSOA	1633	n/a	n/a	1
74.3110000000	n/a	74311	FrequentFixedSOA	1633	n/a	n/a	1
75.9450000000	n/a	75945	FrequentFixedSOA	1633	n/a	n/a	1
77.5780000000	n/a	77578	GoFixedSOA	375	n/a	n/a	1
79.2110000000	n/a	79211	FrequentFixedSOA	1633	n/a	n/a	1
80.8450000000	n/a	80845	FrequentFixedSOA	1633	n/a	n/a	1
82.4780000000	n/a	82478	FrequentFixedSOA	1633	n/a	n/a	1
84.1110000000	n/a	84111	FrequentFixedSOA	1633	n/a	n/a	1
85.7450000000	n/a	85745	NovelFixedSOA	1633	n/a	n/a	1
87.3780000000	n/a	87378	FrequentFixedSOA	1633	n/a	n/a	1
89.0110000000	n/a	89011	FrequentFixedSOA	1633	n/a	n/a	1
90.6450000000	n/a	90645	FrequentFixedSOA	1633	n/a	n/a	1
92.2780000000	n/a	92278	FrequentFixedSOA	1633	n/a	n/a	1
93.9110000000	n/a	93911	GoFixedSOA	380	n/a	n/a	1
95.5450000000	n/a	95545	FrequentFixedSOA	1633	n/a	n/a	1
97.1780000000	n/a	97178	FrequentFixedSOA	1633	n/a	n/a	1
98.8110000000	n/a	98811	NovelFixedSOA	1633	n/a	n/a	1
100.4450000000	n/a	100445	FrequentFixedSOA	1633	n/a	n/a	1
102.0780000000	n/a	102078	FrequentFixedSOA	1633	n/a	n/a	1
103.7110000000	n/a	103711	GoFixedSOA	384	n/a	n/a	1
105.3450000000	n/a	105345	FrequentFixedSOA	1633	n/a	n/a	1
106.9780000000	n/a	106978	FrequentFixedSOA	1633	n/a	n/a	1
108.6110000000	n/a	108611	FrequentFixedSOA	1633	n/a	n/a	1
110.2450000000	n/a	110245	FrequentFixedSOA	1633	n/a	n/a	1
111.8780000000	n/a	111878	NovelFixedSOA	1633	n/a	n/a	1
113.5110000000	n/a	113511	FrequentFixedSOA	1633	n/a	n/a	1
115.1450000000	n/a	115145	FrequentFixedSOA	1633	n/a	n/a	1
116.7780000000	n/a	116778	GoFixedSOA	467	n/a	n/a	1
118.4110000000	n/a	118411	FrequentVariableSOA	1600	n/a	n/a	1
120.0110000000	n/a	120011	FrequentVariableSOA	1566	n/a	n/a	1
121.5780000000	n/a	121578	FrequentVariableSOA	1650	n/a	n/a	1
123.2280000000	n/a	123228	FrequentVariableSOA	1666	n/a	n/a	1
124.8950000000	n/a	124895	FrequentVariableSOA	1566	n/a	n/a	1
126.4610000000	n/a	126461	FrequentVariableSOA	1700	n/a	n/a	1
128.1610000000	n/a	128161	FrequentVariableSOA	1716	n/a	n/a	1
129.8780000000	n/a	129878	FrequentVariableSOA	1583	n/a	n/a	1
131.4610000000	n/a	131461	FrequentVariableSOA	1683	n/a	n/a	1
133.1450000000	n/a	133145	FrequentVariableSOA	1566	n/a	n/a	1
134.7110000000	n/a	134711	NovelVariableSOA	1566	n/a	n/a	1
136.2780000000	n/a	136278	FrequentVariableSOA	1583	n/a	n/a	1
137.8610000000	n/a	137861	GoVariableSOA	411	n/a	n/a	1
139.5450000000	n/a	139545	FrequentVariableSOA	1533	n/a	n/a	1
141.0780000000	n/a	141078	FrequentVariableSOA	1583	n/a	n/a	1
142.6610000000	n/a	142661	FrequentVariableSOA	1516	n/a	n/a	1
144.1780000000	n/a	144178	GoVariableSOA	444	n/a	n/a	1
145.7110000000	n/a	145711	FrequentVariableSOA	1533	n/a	n/a	1
147.2450000000	n/a	147245	FrequentVariableSOA	1800	n/a	n/a	1
149.0450000000	n/a	149045	FrequentVariableSOA	1583	n/a	n/a	1
150.6280000000	n/a	150628	NovelVariableSOA	1666	n/a	n/a	1
152.2950000000	n/a	152295	FrequentVariableSOA	1500	n/a	n/a	1
153.7950000000	n/a	153795	FrequentVariableSOA	1633	n/a	n/a	1
155.4280000000	n/a	155428	FrequentVariableSOA	1583	n/a	n/a	1
157.0110000000	n/a	157011	GoVariableSOA	463	n/a	n/a	1
158.6940000000	n/a	158694	FrequentVariableSOA	1650	n/a	n/a	1
160.3440000000	n/a	160344	NovelVariableSOA	1733	n/a	n/a	1
162.0780000000	n/a	162078	FrequentVariableSOA	1583	n/a	n/a	1
163.6610000000	n/a	163661	FrequentVariableSOA	1700	n/a	n/a	1
165.3610000000	n/a	165361	FrequentVariableSOA	1700	n/a	n/a	1
167.0610000000	n/a	167061	GoVariableSOA	355	n/a	n/a	1
168.7610000000	n/a	168761	FrequentVariableSOA	1650	n/a	n/a	1
170.4110000000	n/a	170411	GoVariableSOA	1650	n/a	n/a	0
172.0610000000	n/a	172061	FrequentVariableSOA	1616	n/a	n/a	1
173.6780000000	n/a	173678	FrequentVariableSOA	1533	n/a	n/a	1
175.2110000000	n/a	175211	GoVariableSOA	419	n/a	n/a	1
176.7780000000	n/a	176778	FrequentVariableSOA	1600	n/a	n/a	1
178.3780000000	n/a	178378	FrequentVariableSOA	1533	n/a	n/a	1
179.9110000000	n/a	179911	FrequentVariableSOA	1600	n/a	n/a	1
181.5110000000	n/a	181511	FrequentVariableSOA	1750	n/a	n/a	1
183.2610000000	n/a	183261	NovelVariableSOA	1750	n/a	n/a	1
185.0110000000	n/a	185011	FrequentVariableSOA	1800	n/a	n/a	1
186.8110000000	n/a	186811	NovelVariableSOA	1600	n/a	n/a	1
188.4110000000	n/a	188411	FrequentVariableSOA	1733	n/a	n/a	1
190.1440000000	n/a	190144	FrequentVariableSOA	1616	n/a	n/a	1
191.7610000000	n/a	191761	GoVariableSOA	583	n/a	n/a	1
193.2940000000	n/a	193294	FrequentVariableSOA	1733	n/a	n/a	1
195.0280000000	n/a	195028	FrequentVariableSOA	1650	n/a	n/a	1
196.6780000000	n/a	196678	FrequentVariableSOA	1600	n/a	n/a	1
198.2780000000	n/a	198278	FrequentVariableSOA	1633	n/a	n/a	1
199.9110000000	n/a	199911	NovelVariableSOA	1783	n/a	n/a	1
201.6940000000	n/a	201694	FrequentVariableSOA	1633	n/a	n/a	1
203.3280000000	n/a	203328	FrequentVariableSOA	1750	n/a	n/a	1
205.0780000000	n/a	205078	FrequentVariableSOA	1616	n/a	n/a	1
206.6940000000	n/a	206694	FrequentVariableSOA	1750	n/a	n/a	1
208.4440000000	n/a	208444	GoVariableSOA	431	n/a	n/a	1
210.0780000000	n/a	210078	FrequentVariableSOA	1766	n/a	n/a	1
211.8440000000	n/a	211844	FrequentVariableSOA	1766	n/a	n/a	1
213.6110000000	n/a	213611	NovelVariableSOA	1733	n/a	n/a	1
215.3440000000	n/a	215344	FrequentVariableSOA	1600	n/a	n/a	1
216.9440000000	n/a	216944	FrequentVariableSOA	1683	n/a	n/a	1
218.6280000000	n/a	218628	GoVariableSOA	547	n/a	n/a	1
220.3110000000	n/a	220311	FrequentVariableSOA	1566	n/a	n/a	1
221.8780000000	n/a	221878	FrequentVariableSOA	1516	n/a	n/a	1
223.3940000000	n/a	223394	FrequentVariableSOA	1700	n/a	n/a	1
225.0940000000	n/a	225094	FrequentVariableSOA	1566	n/a	n/a	1
226.6610000000	n/a	226661	NovelVariableSOA	1783	n/a	n/a	1
228.4440000000	n/a	228444	FrequentVariableSOA	1616	n/a	n/a	1
230.0610000000	n/a	230061	FrequentVariableSOA	1650	n/a	n/a	1
231.7110000000	n/a	231711	GoVariableSOA	541	n/a	n/a	1
233.2280000000	n/a	233228	FrequentFixedSOA	1633	n/a	n/a	1
234.8610000000	n/a	234861	FrequentFixedSOA	1633	n/a	n/a	1
236.4940000000	n/a	236494	FrequentFixedSOA	1633	n/a	n/a	1
238.1280000000	n/a	238128	GoFixedSOA	465	n/a	n/a	1
239.7610000000	n/a	239761	FrequentFixedSOA	1633	n/a	n/a	1
241.3940000000	n/a	241394	FrequentFixedSOA	1633	n/a	n/a	1
243.0280000000	n/a	243028	FrequentFixedSOA	1633	n/a	n/a	1
244.6610000000	n/a	244661	GoFixedSOA	440	n/a	n/a	1
246.2940000000	n/a	246294	FrequentFixedSOA	1633	n/a	n/a	1
247.9280000000	n/a	247928	FrequentFixedSOA	1633	n/a	n/a	1
249.5610000000	n/a	249561	FrequentFixedSOA	1633	n/a	n/a	1
251.1940000000	n/a	251194	NovelFixedSOA	1633	n/a	n/a	1
252.8280000000	n/a	252828	FrequentFixedSOA	1633	n/a	n/a	1
254.4610000000	n/a	254461	NovelFixedSOA	1633	n/a	n/a	1
256.0940000000	n/a	256094	FrequentFixedSOA	1633	n/a	n/a	1
257.7280000000	n/a	257728	FrequentFixedSOA	1633	n/a	n/a	1
259.3610000000	n/a	259361	NovelFixedSOA	1633	n/a	n/a	1
260.9940000000	n/a	260994	FrequentFixedSOA	1633	n/a	n/a	1
262.6280000000	n/a	262628	FrequentFixedSOA	1633	n/a	n/a	1
264.2610000000	n/a	264261	FrequentFixedSOA	1633	n/a	n/a	1
265.8940000000	n/a	265894	FrequentFixedSOA	1633	n/a	n/a	1
267.5280000000	n/a	267528	FrequentFixedSOA	1633	n/a	n/a	1
269.1610000000	n/a	269161	NovelFixedSOA	1633	n/a	n/a	1
270.7940000000	n/a	270794	FrequentFixedSOA	1633	n/a	n/a	1
272.4280000000	n/a	272428	FrequentFixedSOA	1633	n/a	n/a	1
274.0610000000	n/a	274061	FrequentFixedSOA	1633	n/a	n/a	1
275.6940000000	n/a	275694	FrequentFixedSOA	1633	n/a	n/a	1
277.3280000000	n/a	277328	FrequentFixedSOA	1633	n/a	n/a	1
278.9610000000	n/a	278961	GoFixedSOA	416	n/a	n/a	1
280.5940000000	n/a	280594	FrequentFixedSOA	1633	n/a	n/a	1
282.2280000000	n/a	282228	FrequentFixedSOA	1633	n/a	n/a	1
283.8610000000	n/a	283861	GoFixedSOA	405	n/a	n/a	1
285.4940000000	n/a	285494	FrequentFixedSOA	1633	n/a	n/a	1
287.1280000000	n/a	287128	NovelFixedSOA	1633	n/a	n/a	1
288.7610000000	n/a	288761	FrequentFixedSOA	1633	n/a	n/a	1
290.3940000000	n/a	290394	GoFixedSOA	528	n/a	n/a	1
292.0280000000	n/a	292028	FrequentFixedSOA	1633	n/a	n/a	1
293.6610000000	n/a	293661	GoFixedSOA	529	n/a	n/a	1
295.2940000000	n/a	295294	FrequentFixedSOA	1633	n/a	n/a	1
296.9280000000	n/a	296928	FrequentFixedSOA	1633	n/a	n/a	1
298.5610000000	n/a	298561	FrequentFixedSOA	1633	n/a	n/a	1
300.1940000000	n/a	300194	FrequentFixedSOA	1633	n/a	n/a	1
301.8280000000	n/a	301828	GoFixedSOA	483	n/a	n/a	1
303.4610000000	n/a	303461	FrequentFixedSOA	1633	n/a	n/a	1
305.0940000000	n/a	305094	FrequentFixedSOA	1633	n/a	n/a	1
306.7280000000	n/a	306728	FrequentFixedSOA	1633	n/a	n/a	1
308.3610000000	n/a	308361	NovelFixedSOA	1633	n/a	n/a	1
309.9940000000	n/a	309994	FrequentFixedSOA	1633	n/a	n/a	1
311.6280000000	n/a	311628	FrequentFixedSOA	1633	n/a	n/a	1
313.2610000000	n/a	313261	FrequentFixedSOA	1633	n/a	n/a	1
314.8940000000	n/a	314894	FrequentFixedSOA	1633	n/a	n/a	1
316.5280000000	n/a	316528	NovelFixedSOA	1633	n/a	n/a	1
318.1610000000	n/a	318161	FrequentFixedSOA	1633	n/a	n/a	1
319.7940000000	n/a	319794	FrequentFixedSOA	1633	n/a	n/a	1
321.4280000000	n/a	321428	FrequentFixedSOA	1633	n/a	n/a	1
323.0610000000	n/a	323061	FrequentFixedSOA	1633	n/a	n/a	1
324.6940000000	n/a	324694	NovelFixedSOA	1633	n/a	n/a	1
326.3280000000	n/a	326328	FrequentFixedSOA	1633	n/a	n/a	1
327.9610000000	n/a	327961	FrequentFixedSOA	1633	n/a	n/a	1
329.5940000000	n/a	329594	GoFixedSOA	392	n/a	n/a	1
331.2280000000	n/a	331228	FrequentFixedSOA	1633	n/a	n/a	1
332.8610000000	n/a	332861	FrequentFixedSOA	1633	n/a	n/a	1
334.4940000000	n/a	334494	FrequentFixedSOA	1633	n/a	n/a	1
336.1280000000	n/a	336128	FrequentFixedSOA	1633	n/a	n/a	1
337.7610000000	n/a	337761	NovelFixedSOA	1633	n/a	n/a	1
339.3940000000	n/a	339394	FrequentFixedSOA	1633	n/a	n/a	1
341.0280000000	n/a	341028	FrequentFixedSOA	1633	n/a	n/a	1
342.6610000000	n/a	342661	FrequentFixedSOA	1633	n/a	n/a	1
344.2940000000	n/a	344294	FrequentFixedSOA	1633	n/a	n/a	1
345.9280000000	n/a	345928	FrequentFixedSOA	1633	n/a	n/a	1
347.5610000000	n/a	347561	FrequentVariableSOA	1533	n/a	n/a	1
349.0940000000	n/a	349094	FrequentVariableSOA	1600	n/a	n/a	1
350.6940000000	n/a	350694	FrequentVariableSOA	1750	n/a	n/a	1
352.4440000000	n/a	352444	GoVariableSOA	418	n/a	n/a	1
354.1770000000	n/a	354177	FrequentVariableSOA	1566	n/a	n/a	1
355.7440000000	n/a	355744	FrequentVariableSOA	1650	n/a	n/a	1
357.3940000000	n/a	357394	FrequentVariableSOA	1633	n/a	n/a	1
359.0270000000	n/a	359027	GoVariableSOA	441	n/a	n/a	1
360.5440000000	n/a	360544	FrequentVariableSOA	1500	n/a	n/a	1
362.0440000000	n/a	362044	FrequentVariableSOA	1683	n/a	n/a	1
363.7270000000	n/a	363727	FrequentVariableSOA	1550	n/a	n/a	1
365.2770000000	n/a	365277	NovelVariableSOA	1566	n/a	n/a	1
366.8440000000	n/a	366844	FrequentVariableSOA	1800	n/a	n/a	1
368.6440000000	n/a	368644	NovelVariableSOA	1766	n/a	n/a	1
370.4110000000	n/a	370411	FrequentVariableSOA	1633	n/a	n/a	1
372.0440000000	n/a	372044	FrequentVariableSOA	1583	n/a	n/a	1
373.6270000000	n/a	373627	NovelVariableSOA	1666	n/a	n/a	1
375.2940000000	n/a	375294	FrequentVariableSOA	1766	n/a	n/a	1
377.0610000000	n/a	377061	FrequentVariableSOA	1750	n/a	n/a	1
378.8110000000	n/a	378811	FrequentVariableSOA	1533	n/a	n/a	1
380.3440000000	n/a	380344	FrequentVariableSOA	1516	n/a	n/a	1
381.8610000000	n/a	381861	FrequentVariableSOA	1666	n/a	n/a	1
383.5270000000	n/a	383527	NovelVariableSOA	1516	n/a	n/a	1
385.0440000000	n/a	385044	FrequentVariableSOA	1566	n/a	n/a	1
386.6110000000	n/a	386611	FrequentVariableSOA	1633	n/a	n/a	1
388.2440000000	n/a	388244	FrequentVariableSOA	1516	n/a	n/a	1
389.7610000000	n/a	389761	FrequentVariableSOA	1550	n/a	n/a	1
391.3110000000	n/a	391311	FrequentVariableSOA	1683	n/a	n/a	1
392.9940000000	n/a	392994	GoVariableSOA	483	n/a	n/a	1
394.6940000000	n/a	394694	FrequentVariableSOA	1550	n/a	n/a	1
396.2440000000	n/a	396244	FrequentVariableSOA	1800	n/a	n/a	1
398.0440000000	n/a	398044	GoVariableSOA	532	n/a	n/a	1
399.5940000000	n/a	399594	FrequentVariableSOA	1683	n/a	n/a	1
401.2770000000	n/a	401277	NovelVariableSOA	1616	n/a	n/a	1
402.8940000000	n/a	402894	FrequentVariableSOA	1766	n/a	n/a	1
404.6610000000	n/a	404661	GoVariableSOA	459	n/a	n/a	1
406.1610000000	n/a	406161	FrequentVariableSOA	1800	n/a	n/a	1
407.9610000000	n/a	407961	GoVariableSOA	541	n/a	n/a	1
409.5270000000	n/a	409527	FrequentVariableSOA	1600	n/a	n/a	1
411.1270000000	n/a	411127	FrequentVariableSOA	1516	n/a	n/a	1
412.6440000000	n/a	412644	FrequentVariableSOA	1650	n/a	n/a	1
414.2940000000	n/a	414294	FrequentVariableSOA	1500	n/a	n/a	1
415.7940000000	n/a	415794	GoVariableSOA	1783	n/a	n/a	0
417.5770000000	n/a	417577	FrequentVariableSOA	1666	n/a	n/a	1
419.2440000000	n/a	419244	FrequentVariableSOA	1500	n/a	n/a	1
420.7440000000	n/a	420744	FrequentVariableSOA	1633	n/a	n/a	1
422.3770000000	n/a	422377	NovelVariableSOA	1683	n/a	n/a	1
424.0610000000	n/a	424061	FrequentVariableSOA	1783	n/a	n/a	1
425.8440000000	n/a	425844	FrequentVariableSOA	1583	n/a	n/a	1
427.4270000000	n/a	427427	FrequentVariableSOA	1650	n/a	n/a	1
429.0770000000	n/a	429077	FrequentVariableSOA	1550	n/a	n/a	1
430.6270000000	n/a	430627	NovelVariableSOA	1650	n/a	n/a	1
432.2770000000	n/a	432277	FrequentVariableSOA	1566	n/a	n/a	1
433.8440000000	n/a	433844	FrequentVariableSOA	1583	n/a	n/a	1
435.4270000000	n/a	435427	FrequentVariableSOA	1600	n/a	n/a	1
437.0270000000	n/a	437027	FrequentVariableSOA	1716	n/a	n/a	1
438.7440000000	n/a	438744	NovelVariableSOA	1683	n/a	n/a	1
440.4270000000	n/a	440427	FrequentVariableSOA	1750	n/a	n/a	1
442.1770000000	n/a	442177	FrequentVariableSOA	1616	n/a	n/a	1
443.7940000000	n/a	443794	GoVariableSOA	540	n/a	n/a	1
445.3110000000	n/a	445311	FrequentVariableSOA	1533	n/a	n/a	1
446.8440000000	n/a	446844	FrequentVariableSOA	1633	n/a	n/a	1
448.4770000000	n/a	448477	FrequentVariableSOA	1566	n/a	n/a	1
450.0440000000	n/a	450044	FrequentVariableSOA	1533	n/a	n/a	1
451.5770000000	n/a	451577	NovelVariableSOA	1766	n/a	n/a	1
453.3440000000	n/a	453344	FrequentVariableSOA	1533	n/a	n/a	1
454.8770000000	n/a	454877	FrequentVariableSOA	1516	n/a	n/a	1
456.3940000000	n/a	456394	FrequentVariableSOA	1716	n/a	n/a	1
458.1110000000	n/a	458111	FrequentVariableSOA	1733	n/a	n/a	1
459.8440000000	n/a	459844	FrequentVariableSOA	1750	n/a	n/a	1
461.5940000000	n/a	461594	GoFixedSOA	504	n/a	n/a	1
463.2270000000	n/a	463227	FrequentFixedSOA	1633	n/a	n/a	1
464.8610000000	n/a	464861	FrequentFixedSOA	1633	n/a	n/a	1
466.4940000000	n/a	466494	FrequentFixedSOA	1633	n/a	n/a	1
468.1270000000	n/a	468127	FrequentFixedSOA	1633	n/a	n/a	1
469.7610000000	n/a	469761	FrequentFixedSOA	1633	n/a	n/a	1
471.3940000000	n/a	471394	FrequentFixedSOA	1633	n/a	n/a	1
473.0270000000	n/a	473027	NovelFixedSOA	1633	n/a	n/a	1
474.6610000000	n/a	474661	FrequentFixedSOA	1633	n/a	n/a	1
476.2940000000	n/a	476294	FrequentFixedSOA	1633	n/a	n/a	1
477.9270000000	n/a	477927	FrequentFixedSOA	1633	n/a	n/a	1
479.5610000000	n/a	479561	NovelFixedSOA	1633	n/a	n/a	1
481.1940000000	n/a	481194	FrequentFixedSOA	1633	n/a	n/a	1
482.8270000000	n/a	482827	GoFixedSOA	495	n/a	n/a	1
484.4610000000	n/a	484461	FrequentFixedSOA	1633	n/a	n/a	1
486.0940000000	n/a	486094	FrequentFixedSOA	1633	n/a	n/a	1
487.7270000000	n/a	487727	GoFixedSOA	501	n/a	n/a	1
489.3610000000	n/a	489361	FrequentFixedSOA	1633	n/a	n/a	1
490.9940000000	n/a	490994	NovelFixedSOA	1633	n/a	n/a	1
492.6270000000	n/a	492627	FrequentFixedSOA	1633	n/a	n/a	1
494.2610000000	n/a	494261	FrequentFixedSOA	1633	n/a	n/a	1
495.8940000000	n/a	495894	FrequentFixedSOA	1633	n/a	n/a	1
497.5270000000	n/a	497527	FrequentFixedSOA	1633	n/a	n/a	1
499.1610000000	n/a	499161	FrequentFixedSOA	1633	n/a	n/a	1
500.7940000000	n/a	500794	GoFixedSOA	632	n/a	n/a	1
502.4270000000	n/a	502427	FrequentFixedSOA	1633	n/a	n/a	1
504.0610000000	n/a	504061	FrequentFixedSOA	1633	n/a	n/a	1
505.6940000000	n/a	505694	NovelFixedSOA	1633	n/a	n/a	1
507.3270000000	n/a	507327	FrequentFixedSOA	1633	n/a	n/a	1
508.9610000000	n/a	508961	FrequentFixedSOA	1633	n/a	n/a	1
510.5940000000	n/a	510594	FrequentFixedSOA	1633	n/a	n/a	1
512.2270000000	n/a	512227	FrequentFixedSOA	1633	n/a	n/a	1
513.8610000000	n/a	513861	FrequentFixedSOA	1633	n/a	n/a	1
515.4940000000	n/a	515494	NovelFixedSOA	1633	n/a	n/a	1
517.1270000000	n/a	517127	FrequentFixedSOA	1633	n/a	n/a	1
518.7610000000	n/a	518761	FrequentFixedSOA	1633	n/a	n/a	1
520.3940000000	n/a	520394	FrequentFixedSOA	1633	n/a	n/a	1
522.0270000000	n/a	522027	FrequentFixedSOA	1633	n/a	n/a	1
523.6610000000	n/a	523661	GoFixedSOA	1633	n/a	n/a	0
525.2940000000	n/a	525294	FrequentFixedSOA	1633	n/a	n/a	1
526.9270000000	n/a	526927	FrequentFixedSOA	1633	n/a	n/a	1
528.5610000000	n/a	528561	NovelFixedSOA	1633	n/a	n/a	1
530.1940000000	n/a	530194	FrequentFixedSOA	1633	n/a	n/a	1
531.8270000000	n/a	531827	FrequentFixedSOA	1633	n/a	n/a	1
533.4610000000	n/a	533461	NovelFixedSOA	1633	n/a	n/a	1
535.0940000000	n/a	535094	FrequentFixedSOA	1633	n/a	n/a	1
536.7270000000	n/a	536727	FrequentFixedSOA	1633	n/a	n/a	1
538.3610000000	n/a	538361	FrequentFixedSOA	1633	n/a	n/a	1
539.9940000000	n/a	539994	FrequentFixedSOA	1633	n/a	n/a	1
541.6270000000	n/a	541627	FrequentFixedSOA	1633	n/a	n/a	1
543.2610000000	n/a	543261	GoFixedSOA	433	n/a	n/a	1
544.8940000000	n/a	544894	FrequentFixedSOA	1633	n/a	n/a	1
546.5270000000	n/a	546527	FrequentFixedSOA	1633	n/a	n/a	1
548.1600000000	n/a	548160	FrequentFixedSOA	1633	n/a	n/a	1
549.7940000000	n/a	549794	FrequentFixedSOA	1633	n/a	n/a	1
551.4270000000	n/a	551427	FrequentFixedSOA	1633	n/a	n/a	1
553.0600000000	n/a	553060	NovelFixedSOA	1633	n/a	n/a	1
554.6940000000	n/a	554694	FrequentFixedSOA	1633	n/a	n/a	1
556.3270000000	n/a	556327	GoFixedSOA	530	n/a	n/a	1
557.9600000000	n/a	557960	FrequentFixedSOA	1633	n/a	n/a	1
559.5940000000	n/a	559594	FrequentFixedSOA	1633	n/a	n/a	1
561.2270000000	n/a	561227	FrequentFixedSOA	1633	n/a	n/a	1
562.8600000000	n/a	562860	FrequentFixedSOA	1633	n/a	n/a	1
564.4940000000	n/a	564494	FrequentFixedSOA	1633	n/a	n/a	1
566.1270000000	n/a	566127	FrequentFixedSOA	1633	n/a	n/a	1
567.7600000000	n/a	567760	FrequentFixedSOA	1633	n/a	n/a	1
569.3940000000	n/a	569394	FrequentFixedSOA	1633	n/a	n/a	1
571.0270000000	n/a	571027	NovelFixedSOA	1633	n/a	n/a	1
572.6600000000	n/a	572660	FrequentFixedSOA	1633	n/a	n/a	1
574.2940000000	n/a	574294	FrequentFixedSOA	1633	n/a	n/a	1
575.9270000000	n/a	575927	GoVariableSOA	1533	n/a	n/a	0
577.4600000000	n/a	577460	FrequentVariableSOA	1683	n/a	n/a	1
579.1440000000	n/a	579144	FrequentVariableSOA	1583	n/a	n/a	1
580.7270000000	n/a	580727	FrequentVariableSOA	1716	n/a	n/a	1
582.4440000000	n/a	582444	FrequentVariableSOA	1750	n/a	n/a	1
584.1940000000	n/a	584194	FrequentVariableSOA	1600	n/a	n/a	1
585.7940000000	n/a	585794	FrequentVariableSOA	1716	n/a	n/a	1
587.5100000000	n/a	587510	NovelVariableSOA	1516	n/a	n/a	1
589.0270000000	n/a	589027	FrequentVariableSOA	1516	n/a	n/a	1
590.5440000000	n/a	590544	FrequentVariableSOA	1683	n/a	n/a	1
592.2270000000	n/a	592227	FrequentVariableSOA	1633	n/a	n/a	1
593.8600000000	n/a	593860	NovelVariableSOA	1666	n/a	n/a	1
595.5270000000	n/a	595527	FrequentVariableSOA	1616	n/a	n/a	1
597.1440000000	n/a	597144	GoVariableSOA	398	n/a	n/a	1
598.8940000000	n/a	598894	FrequentVariableSOA	1516	n/a	n/a	1
600.4100000000	n/a	600410	FrequentVariableSOA	1683	n/a	n/a	1
602.0940000000	n/a	602094	GoVariableSOA	1516	n/a	n/a	0
603.6100000000	n/a	603610	FrequentVariableSOA	1700	n/a	n/a	1
605.3100000000	n/a	605310	NovelVariableSOA	1683	n/a	n/a	1
606.9940000000	n/a	606994	FrequentVariableSOA	1516	n/a	n/a	1
608.5100000000	n/a	608510	FrequentVariableSOA	1600	n/a	n/a	1
610.1100000000	n/a	610110	FrequentVariableSOA	1700	n/a	n/a	1
611.8100000000	n/a	611810	FrequentVariableSOA	1516	n/a	n/a	1
613.3270000000	n/a	613327	FrequentVariableSOA	1516	n/a	n/a	1
614.8440000000	n/a	614844	GoVariableSOA	479	n/a	n/a	1
616.3600000000	n/a	616360	FrequentVariableSOA	1750	n/a	n/a	1
618.1100000000	n/a	618110	FrequentVariableSOA	1666	n/a	n/a	1
619.7770000000	n/a	619777	NovelVariableSOA	1766	n/a	n/a	1
621.5440000000	n/a	621544	FrequentVariableSOA	1583	n/a	n/a	1
623.1270000000	n/a	623127	FrequentVariableSOA	1650	n/a	n/a	1
624.7770000000	n/a	624777	FrequentVariableSOA	1716	n/a	n/a	1
626.4940000000	n/a	626494	FrequentVariableSOA	1783	n/a	n/a	1
628.2770000000	n/a	628277	FrequentVariableSOA	1766	n/a	n/a	1
630.0440000000	n/a	630044	NovelVariableSOA	1583	n/a	n/a	1
631.6270000000	n/a	631627	FrequentVariableSOA	1800	n/a	n/a	1
633.4270000000	n/a	633427	FrequentVariableSOA	1583	n/a	n/a	1
635.0100000000	n/a	635010	FrequentVariableSOA	1716	n/a	n/a	1
636.7270000000	n/a	636727	FrequentVariableSOA	1783	n/a	n/a	1
638.5100000000	n/a	638510	GoVariableSOA	507	n/a	n/a	1
640.0100000000	n/a	640010	FrequentVariableSOA	1633	n/a	n/a	1
641.6440000000	n/a	641644	FrequentVariableSOA	1716	n/a	n/a	1
643.3600000000	n/a	643360	NovelVariableSOA	1733	n/a	n/a	1
645.0940000000	n/a	645094	FrequentVariableSOA	1750	n/a	n/a	1
646.8440000000	n/a	646844	FrequentVariableSOA	1733	n/a	n/a	1
648.5770000000	n/a	648577	NovelVariableSOA	1700	n/a	n/a	1
650.2770000000	n/a	650277	FrequentVariableSOA	1700	n/a	n/a	1
651.9770000000	n/a	651977	FrequentVariableSOA	1550	n/a	n/a	1
653.5270000000	n/a	653527	FrequentVariableSOA	1733	n/a	n/a	1
655.2600000000	n/a	655260	FrequentVariableSOA	1516	n/a	n/a	1
656.7770000000	n/a	656777	FrequentVariableSOA	1683	n/a	n/a	1
658.4600000000	n/a	658460	GoVariableSOA	499	n/a	n/a	1
660.1940000000	n/a	660194	FrequentVariableSOA	1800	n/a	n/a	1
661.9940000000	n/a	661994	FrequentVariableSOA	1750	n/a	n/a	1
663.7440000000	n/a	663744	FrequentVariableSOA	1583	n/a	n/a	1
665.3270000000	n/a	665327	FrequentVariableSOA	1600	n/a	n/a	1
666.9270000000	n/a	666927	FrequentVariableSOA	1700	n/a	n/a	1
668.6270000000	n/a	668627	NovelVariableSOA	1666	n/a	n/a	1
670.2940000000	n/a	670294	FrequentVariableSOA	1583	n/a	n/a	1
671.8770000000	n/a	671877	GoVariableSOA	1716	n/a	n/a	0
673.5940000000	n/a	673594	FrequentVariableSOA	1700	n/a	n/a	1
675.2940000000	n/a	675294	FrequentVariableSOA	1533	n/a	n/a	1
676.8270000000	n/a	676827	FrequentVariableSOA	1733	n/a	n/a	1
678.5600000000	n/a	678560	FrequentVariableSOA	1550	n/a	n/a	1
680.1100000000	n/a	680110	FrequentVariableSOA	1533	n/a	n/a	1
681.6440000000	n/a	681644	FrequentVariableSOA	1583	n/a	n/a	1
683.2270000000	n/a	683227	FrequentVariableSOA	1700	n/a	n/a	1
684.9270000000	n/a	684927	FrequentVariableSOA	1733	n/a	n/a	1
686.6600000000	n/a	686660	NovelVariableSOA	1616	n/a	n/a	1
688.2770000000	n/a	688277	FrequentVariableSOA	1600	n/a	n/a	1
689.8770000000	n/a	689877	FrequentVariableSOA	1666	n/a	n/a	1
691.5440000000	n/a	691544	GoFixedSOA	622	n/a	n/a	1
693.1770000000	n/a	693177	FrequentFixedSOA	1633	n/a	n/a	1
694.8100000000	n/a	694810	FrequentFixedSOA	1633	n/a	n/a	1
696.4440000000	n/a	696444	FrequentFixedSOA	1633	n/a	n/a	1
698.0770000000	n/a	698077	GoFixedSOA	765	n/a	n/a	1
699.7100000000	n/a	699710	FrequentFixedSOA	1633	n/a	n/a	1
701.3440000000	n/a	701344	FrequentFixedSOA	1633	n/a	n/a	1
702.9770000000	n/a	702977	FrequentFixedSOA	1633	n/a	n/a	1
704.6100000000	n/a	704610	FrequentFixedSOA	1633	n/a	n/a	1
706.2440000000	n/a	706244	GoFixedSOA	1633	n/a	n/a	0
707.8770000000	n/a	707877	FrequentFixedSOA	1633	n/a	n/a	1
709.5100000000	n/a	709510	FrequentFixedSOA	1633	n/a	n/a	1
711.1440000000	n/a	711144	NovelFixedSOA	1633	n/a	n/a	1
712.7770000000	n/a	712777	FrequentFixedSOA	1633	n/a	n/a	1
714.4100000000	n/a	714410	FrequentFixedSOA	1633	n/a	n/a	1
716.0440000000	n/a	716044	GoFixedSOA	1633	n/a	n/a	0
717.6770000000	n/a	717677	FrequentFixedSOA	1633	n/a	n/a	1
719.3100000000	n/a	719310	FrequentFixedSOA	1633	n/a	n/a	1
720.9440000000	n/a	720944	FrequentFixedSOA	1633	n/a	n/a	1
722.5770000000	n/a	722577	NovelFixedSOA	1633	n/a	n/a	1
724.2100000000	n/a	724210	FrequentFixedSOA	1633	n/a	n/a	1
725.8440000000	n/a	725844	NovelFixedSOA	1633	n/a	n/a	1
727.4770000000	n/a	727477	FrequentFixedSOA	1633	n/a	n/a	1
729.1100000000	n/a	729110	FrequentFixedSOA	1633	n/a	n/a	1
730.7440000000	n/a	730744	FrequentFixedSOA	1633	n/a	n/a	1
732.3770000000	n/a	732377	GoFixedSOA	559	n/a	n/a	1
734.0100000000	n/a	734010	FrequentFixedSOA	1633	n/a	n/a	1
735.6440000000	n/a	735644	FrequentFixedSOA	1633	n/a	n/a	1
737.2770000000	n/a	737277	FrequentFixedSOA	1633	n/a	n/a	1
738.9100000000	n/a	738910	GoFixedSOA	444	n/a	n/a	1
740.5440000000	n/a	740544	FrequentFixedSOA	1633	n/a	n/a	1
742.1770000000	n/a	742177	FrequentFixedSOA	1633	n/a	n/a	1
743.8100000000	n/a	743810	NovelFixedSOA	1633	n/a	n/a	1
745.4430000000	n/a	745443	FrequentFixedSOA	1633	n/a	n/a	1
747.0770000000	n/a	747077	GoFixedSOA	460	n/a	n/a	1
748.7100000000	n/a	748710	FrequentFixedSOA	1633	n/a	n/a	1
750.3430000000	n/a	750343	FrequentFixedSOA	1633	n/a	n/a	1
751.9770000000	n/a	751977	FrequentFixedSOA	1633	n/a	n/a	1
753.6100000000	n/a	753610	FrequentFixedSOA	1633	n/a	n/a	1
755.2430000000	n/a	755243	FrequentFixedSOA	1633	n/a	n/a	1
756.8770000000	n/a	756877	FrequentFixedSOA	1633	n/a	n/a	1
758.5100000000	n/a	758510	NovelFixedSOA	1633	n/a	n/a	1
760.1430000000	n/a	760143	FrequentFixedSOA	1633	n/a	n/a	1
761.7770000000	n/a	761777	FrequentFixedSOA	1633	n/a	n/a	1
763.4100000000	n/a	763410	FrequentFixedSOA	1633	n/a	n/a	1
765.0430000000	n/a	765043	GoFixedSOA	1633	n/a	n/a	0
766.6770000000	n/a	766677	FrequentFixedSOA	1633	n/a	n/a	1
768.3100000000	n/a	768310	FrequentFixedSOA	1633	n/a	n/a	1
769.9430000000	n/a	769943	FrequentFixedSOA	1633	n/a	n/a	1
771.5770000000	n/a	771577	FrequentFixedSOA	1633	n/a	n/a	1
773.2100000000	n/a	773210	NovelFixedSOA	1633	n/a	n/a	1
774.8430000000	n/a	774843	FrequentFixedSOA	1633	n/a	n/a	1
776.4770000000	n/a	776477	FrequentFixedSOA	1633	n/a	n/a	1
778.1100000000	n/a	778110	NovelFixedSOA	1633	n/a	n/a	1
779.7430000000	n/a	779743	FrequentFixedSOA	1633	n/a	n/a	1
781.3770000000	n/a	781377	NovelFixedSOA	1633	n/a	n/a	1
783.0100000000	n/a	783010	FrequentFixedSOA	1633	n/a	n/a	1
784.6430000000	n/a	784643	FrequentFixedSOA	1633	n/a	n/a	1
786.2770000000	n/a	786277	FrequentFixedSOA	1633	n/a	n/a	1
787.9100000000	n/a	787910	FrequentFixedSOA	1633	n/a	n/a	1
789.5430000000	n/a	789543	FrequentFixedSOA	1633	n/a	n/a	1
791.1770000000	n/a	791177	FrequentFixedSOA	1633	n/a	n/a	1
792.8100000000	n/a	792810	FrequentFixedSOA	1633	n/a	n/a	1
794.4430000000	n/a	794443	GoFixedSOA	559	n/a	n/a	1
796.0770000000	n/a	796077	FrequentFixedSOA	1633	n/a	n/a	1
797.7100000000	n/a	797710	GoFixedSOA	532	n/a	n/a	1
799.3430000000	n/a	799343	FrequentFixedSOA	1633	n/a	n/a	1
800.9770000000	n/a	800977	FrequentFixedSOA	1633	n/a	n/a	1
802.6100000000	n/a	802610	NovelFixedSOA	1633	n/a	n/a	1
804.2430000000	n/a	804243	FrequentFixedSOA	1633	n/a	n/a	1
805.8770000000	n/a	805877	GoVariableSOA	483	n/a	n/a	1
807.5930000000	n/a	807593	FrequentVariableSOA	1600	n/a	n/a	1
809.1930000000	n/a	809193	FrequentVariableSOA	1733	n/a	n/a	1
810.9270000000	n/a	810927	FrequentVariableSOA	1516	n/a	n/a	1
812.4430000000	n/a	812443	GoVariableSOA	529	n/a	n/a	1
814.2100000000	n/a	814210	FrequentVariableSOA	1533	n/a	n/a	1
815.7430000000	n/a	815743	FrequentVariableSOA	1516	n/a	n/a	1
817.2600000000	n/a	817260	FrequentVariableSOA	1533	n/a	n/a	1
818.7930000000	n/a	818793	FrequentVariableSOA	1616	n/a	n/a	1
820.4100000000	n/a	820410	GoVariableSOA	1733	n/a	n/a	0
822.1430000000	n/a	822143	FrequentVariableSOA	1650	n/a	n/a	1
823.7930000000	n/a	823793	FrequentVariableSOA	1616	n/a	n/a	1
825.4100000000	n/a	825410	NovelVariableSOA	1500	n/a	n/a	1
826.9100000000	n/a	826910	FrequentVariableSOA	1533	n/a	n/a	1
828.4430000000	n/a	828443	FrequentVariableSOA	1616	n/a	n/a	1
830.0600000000	n/a	830060	GoVariableSOA	502	n/a	n/a	1
831.6600000000	n/a	831660	FrequentVariableSOA	1750	n/a	n/a	1
833.4100000000	n/a	833410	FrequentVariableSOA	1783	n/a	n/a	1
835.1930000000	n/a	835193	FrequentVariableSOA	1516	n/a	n/a	1
836.7100000000	n/a	836710	NovelVariableSOA	1716	n/a	n/a	1
838.4270000000	n/a	838427	FrequentVariableSOA	1516	n/a	n/a	1
839.9430000000	n/a	839943	NovelVariableSOA	1700	n/a	n/a	1
841.6430000000	n/a	841643	FrequentVariableSOA	1783	n/a	n/a	1
843.4270000000	n/a	843427	FrequentVariableSOA	1666	n/a	n/a	1
845.0930000000	n/a	845093	FrequentVariableSOA	1583	n/a	n/a	1
846.6770000000	n/a	846677	GoVariableSOA	1750	n/a	n/a	0
848.4270000000	n/a	848427	FrequentVariableSOA	1516	n/a	n/a	1
849.9430000000	n/a	849943	FrequentVariableSOA	1716	n/a	n/a	1
851.6600000000	n/a	851660	FrequentVariableSOA	1583	n/a	n/a	1
853.2430000000	n/a	853243	GoVariableSOA	1633	n/a	n/a	0
854.8770000000	n/a	854877	FrequentVariableSOA	1550	n/a	n/a	1
856.4270000000	n/a	856427	FrequentVariableSOA	1500	n/a	n/a	1
857.9270000000	n/a	857927	NovelVariableSOA	1700	n/a	n/a	1
859.6270000000	n/a	859627	FrequentVariableSOA	1600	n/a	n/a	1
861.2270000000	n/a	861227	GoVariableSOA	1733	n/a	n/a	0
862.9600000000	n/a	862960	FrequentVariableSOA	1566	n/a	n/a	1
864.5270000000	n/a	864527	FrequentVariableSOA	1650	n/a	n/a	1
866.1770000000	n/a	866177	FrequentVariableSOA	1550	n/a	n/a	1
867.7270000000	n/a	867727	FrequentVariableSOA	1616	n/a	n/a	1
869.3430000000	n/a	869343	FrequentVariableSOA	1516	n/a	n/a	1
870.8600000000	n/a	870860	FrequentVariableSOA	1616	n/a	n/a	1
872.4770000000	n/a	872477	NovelVariableSOA	1666	n/a	n/a	1
874.1430000000	n/a	874143	FrequentVariableSOA	1733	n/a	n/a	1
875.8770000000	n/a	875877	FrequentVariableSOA	1766	n/a	n/a	1
877.6430000000	n/a	877643	FrequentVariableSOA	1733	n/a	n/a	1
879.3770000000	n/a	879377	GoVariableSOA	489	n/a	n/a	1
880.9930000000	n/a	880993	FrequentVariableSOA	1650	n/a	n/a	1
882.6430000000	n/a	882643	FrequentVariableSOA	1783	n/a	n/a	1
884.4270000000	n/a	884427	FrequentVariableSOA	1633	n/a	n/a	1
886.0600000000	n/a	886060	FrequentVariableSOA	1633	n/a	n/a	1
887.6930000000	n/a	887693	NovelVariableSOA	1550	n/a	n/a	1
889.2430000000	n/a	889243	FrequentVariableSOA	1650	n/a	n/a	1
890.8930000000	n/a	890893	FrequentVariableSOA	1716	n/a	n/a	1
892.6100000000	n/a	892610	NovelVariableSOA	1683	n/a	n/a	1
894.2930000000	n/a	894293	FrequentVariableSOA	1533	n/a	n/a	1
895.8270000000	n/a	895827	NovelVariableSOA	1633	n/a	n/a	1
897.4600000000	n/a	897460	FrequentVariableSOA	1600	n/a	n/a	1
899.0600000000	n/a	899060	FrequentVariableSOA	1666	n/a	n/a	1
900.7270000000	n/a	900727	FrequentVariableSOA	1600	n/a	n/a	1
902.3270000000	n/a	902327	FrequentVariableSOA	1633	n/a	n/a	1
903.9600000000	n/a	903960	FrequentVariableSOA	1700	n/a	n/a	1
905.6600000000	n/a	905660	FrequentVariableSOA	1800	n/a	n/a	1
907.4600000000	n/a	907460	FrequentVariableSOA	1650	n/a	n/a	1
909.1100000000	n/a	909110	GoVariableSOA	544	n/a	n/a	1
910.8100000000	n/a	910810	FrequentVariableSOA	1766	n/a	n/a	1
912.5770000000	n/a	912577	GoVariableSOA	1766	n/a	n/a	0
914.3430000000	n/a	914343	FrequentVariableSOA	1633	n/a	n/a	1
915.9770000000	n/a	915977	FrequentVariableSOA	1550	n/a	n/a	1
917.5270000000	n/a	917527	NovelVariableSOA	1533	n/a	n/a	1
919.0600000000	n/a	919060	FrequentVariableSOA	1716	n/a	n/a	1
