onset	duration	sample	trial_type	response_time	stim_file	value	correct
9.0800000000	n/a	9080	ignore	n/a	n/a	n/a	n/a
12.1800000000	n/a	12180	ignore	n/a	n/a	n/a	n/a
15.1970000000	n/a	15197	ignore	n/a	n/a	n/a	n/a
32.4460000000	n/a	32446	ignore	n/a	n/a	n/a	n/a
35.5460000000	n/a	35546	ignore	n/a	n/a	n/a	n/a
38.5330000000	n/a	38533	ignore	n/a	n/a	n/a	n/a
56.4960000000	n/a	56496	NeuStim	n/a	n/a	n/a	n/a
59.5960000000	n/a	59596	NeuNonAlcP1000	n/a	n/a	n/a	n/a
64.5830000000	n/a	64583	NeuNonAlcP1000	n/a	n/a	n/a	n/a
73.9630000000	n/a	73963	PosStim	n/a	n/a	n/a	n/a
76.9960000000	n/a	76996	PosAlcStimWithoutStartle	n/a	n/a	n/a	n/a
92.6800000000	n/a	92680	NeuStim	n/a	n/a	n/a	n/a
95.7800000000	n/a	95780	NeuAlcP2000	n/a	n/a	n/a	n/a
99.7670000000	n/a	99767	NeuAlcP2000	n/a	n/a	n/a	n/a
112.3130000000	n/a	112313	NegStim	n/a	n/a	n/a	n/a
115.4130000000	n/a	115413	NegNonAlcP2000	n/a	n/a	n/a	n/a
119.4000000000	n/a	119400	NegNonAlcP2000	n/a	n/a	n/a	n/a
131.3630000000	n/a	131363	NeuStim	n/a	n/a	n/a	n/a
134.3960000000	n/a	134396	NeuNonAlcStimWithoutStartle	n/a	n/a	n/a	n/a
150.9130000000	n/a	150913	PosStim	n/a	n/a	n/a	n/a
154.0130000000	n/a	154013	PosNonAlcP1000	n/a	n/a	n/a	n/a
159.0000000000	n/a	159000	PosNonAlcP1000	n/a	n/a	n/a	n/a
168.3460000000	n/a	168346	NeuStim	n/a	n/a	n/a	n/a
171.4460000000	n/a	171446	NeuAlcP1000	n/a	n/a	n/a	n/a
176.4330000000	n/a	176433	NeuAlcP1000	n/a	n/a	n/a	n/a
187.5630000000	n/a	187563	NegStim	n/a	n/a	n/a	n/a
190.5960000000	n/a	190596	NegNonAlcStimWithoutStartle	n/a	n/a	n/a	n/a
204.4290000000	n/a	204429	NeuStim	n/a	n/a	n/a	n/a
207.5290000000	n/a	207529	NeuNonAlcP1000	n/a	n/a	n/a	n/a
212.5170000000	n/a	212517	NeuNonAlcP1000	n/a	n/a	n/a	n/a
223.2790000000	n/a	223279	NegStim	n/a	n/a	n/a	n/a
226.3790000000	n/a	226379	NegNonAlcP3000	n/a	n/a	n/a	n/a
229.3660000000	n/a	229366	NegNonAlcP3000	n/a	n/a	n/a	n/a
240.0630000000	n/a	240063	PosStim	n/a	n/a	n/a	n/a
243.1630000000	n/a	243163	PosNonAlcP3000	n/a	n/a	n/a	n/a
246.1500000000	n/a	246150	PosNonAlcP3000	n/a	n/a	n/a	n/a
259.4290000000	n/a	259429	NeuStim	n/a	n/a	n/a	n/a
262.5290000000	n/a	262529	NeuAlcP1000	n/a	n/a	n/a	n/a
267.5160000000	n/a	267516	NeuAlcP1000	n/a	n/a	n/a	n/a
278.0130000000	n/a	278013	NegStim	n/a	n/a	n/a	n/a
281.0460000000	n/a	281046	NegAlcStimWithoutStartle	n/a	n/a	n/a	n/a
295.5290000000	n/a	295529	PosStim	n/a	n/a	n/a	n/a
298.5630000000	n/a	298563	PosNonAlcStimWithoutStartle	n/a	n/a	n/a	n/a
315.3130000000	n/a	315313	NegStim	n/a	n/a	n/a	n/a
318.4130000000	n/a	318413	NegAlcP3000	n/a	n/a	n/a	n/a
321.4000000000	n/a	321400	NegAlcP3000	n/a	n/a	n/a	n/a
332.6290000000	n/a	332629	NeuStim	n/a	n/a	n/a	n/a
335.6630000000	n/a	335663	NeuAlcStimWithoutStartle	n/a	n/a	n/a	n/a
351.9630000000	n/a	351963	PosStim	n/a	n/a	n/a	n/a
355.0630000000	n/a	355063	PosNonAlcP1000	n/a	n/a	n/a	n/a
360.0500000000	n/a	360050	PosNonAlcP1000	n/a	n/a	n/a	n/a
369.9790000000	n/a	369979	NegStim	n/a	n/a	n/a	n/a
373.0790000000	n/a	373079	NegAlcP3000	n/a	n/a	n/a	n/a
376.0660000000	n/a	376066	NegAlcP3000	n/a	n/a	n/a	n/a
386.6460000000	n/a	386646	NegStim	n/a	n/a	n/a	n/a
389.6790000000	n/a	389679	NegNonAlcStimWithoutStartle	n/a	n/a	n/a	n/a
406.6120000000	n/a	406612	PosStim	n/a	n/a	n/a	n/a
409.7120000000	n/a	409712	PosAlcP1000	n/a	n/a	n/a	n/a
414.6990000000	n/a	414699	PosAlcP1000	n/a	n/a	n/a	n/a
424.3120000000	n/a	424312	NeuStim	n/a	n/a	n/a	n/a
427.3460000000	n/a	427346	NeuAlcStimWithoutStartle	n/a	n/a	n/a	n/a
442.0620000000	n/a	442062	NegStim	n/a	n/a	n/a	n/a
445.1620000000	n/a	445162	NegNonAlcP1000	n/a	n/a	n/a	n/a
450.1490000000	n/a	450149	NegNonAlcP1000	n/a	n/a	n/a	n/a
460.6960000000	n/a	460696	PosStim	n/a	n/a	n/a	n/a
463.7960000000	n/a	463796	PosAlcP3000	n/a	n/a	n/a	n/a
466.7830000000	n/a	466783	PosAlcP3000	n/a	n/a	n/a	n/a
478.0620000000	n/a	478062	NeuStim	n/a	n/a	n/a	n/a
481.1620000000	n/a	481162	NeuAlcP3000	n/a	n/a	n/a	n/a
484.1490000000	n/a	484149	NeuAlcP3000	n/a	n/a	n/a	n/a
495.8460000000	n/a	495846	NegStim	n/a	n/a	n/a	n/a
498.8790000000	n/a	498879	NegAlcStimWithoutStartle	n/a	n/a	n/a	n/a
512.6790000000	n/a	512679	PosStim	n/a	n/a	n/a	n/a
515.7790000000	n/a	515779	PosNonAlcP2000	n/a	n/a	n/a	n/a
519.7660000000	n/a	519766	PosNonAlcP2000	n/a	n/a	n/a	n/a
530.2620000000	n/a	530262	NegStim	n/a	n/a	n/a	n/a
533.3620000000	n/a	533362	NegAlcP2000	n/a	n/a	n/a	n/a
537.3490000000	n/a	537349	NegAlcP2000	n/a	n/a	n/a	n/a
547.7290000000	n/a	547729	PosStim	n/a	n/a	n/a	n/a
550.8290000000	n/a	550829	PosAlcP2000	n/a	n/a	n/a	n/a
554.8160000000	n/a	554816	PosAlcP2000	n/a	n/a	n/a	n/a
565.4120000000	n/a	565412	NeuStim	n/a	n/a	n/a	n/a
568.4460000000	n/a	568446	NeuAlcStimWithoutStartle	n/a	n/a	n/a	n/a
584.2290000000	n/a	584229	NegStim	n/a	n/a	n/a	n/a
587.3290000000	n/a	587329	NegNonAlcP1000	n/a	n/a	n/a	n/a
592.3160000000	n/a	592316	NegNonAlcP1000	n/a	n/a	n/a	n/a
603.5790000000	n/a	603579	NeuStim	n/a	n/a	n/a	n/a
606.6790000000	n/a	606679	NeuNonAlcP1000	n/a	n/a	n/a	n/a
611.6660000000	n/a	611666	NeuNonAlcP1000	n/a	n/a	n/a	n/a
622.4620000000	n/a	622462	PosStim	n/a	n/a	n/a	n/a
625.5620000000	n/a	625562	PosNonAlcP3000	n/a	n/a	n/a	n/a
628.5490000000	n/a	628549	PosNonAlcP3000	n/a	n/a	n/a	n/a
638.6790000000	n/a	638679	NeuStim	n/a	n/a	n/a	n/a
641.7120000000	n/a	641712	NeuNonAlcStimWithoutStartle	n/a	n/a	n/a	n/a
657.1620000000	n/a	657162	NegStim	n/a	n/a	n/a	n/a
660.1950000000	n/a	660195	NegNonAlcStimWithoutStartle	n/a	n/a	n/a	n/a
677.0450000000	n/a	677045	NeuStim	n/a	n/a	n/a	n/a
680.1450000000	n/a	680145	NeuNonAlcP3000	n/a	n/a	n/a	n/a
683.1320000000	n/a	683132	NeuNonAlcP3000	n/a	n/a	n/a	n/a
695.0450000000	n/a	695045	PosStim	n/a	n/a	n/a	n/a
698.1450000000	n/a	698145	PosAlcP1000	n/a	n/a	n/a	n/a
703.1320000000	n/a	703132	PosAlcP1000	n/a	n/a	n/a	n/a
711.5120000000	n/a	711512	NegStim	n/a	n/a	n/a	n/a
714.6120000000	n/a	714612	NegNonAlcP1000	n/a	n/a	n/a	n/a
719.5990000000	n/a	719599	NegNonAlcP1000	n/a	n/a	n/a	n/a
731.2290000000	n/a	731229	PosStim	n/a	n/a	n/a	n/a
734.2620000000	n/a	734262	PosNonAlcStimWithoutStartle	n/a	n/a	n/a	n/a
750.0120000000	n/a	750012	NeuStim	n/a	n/a	n/a	n/a
753.1120000000	n/a	753112	NeuAlcP2000	n/a	n/a	n/a	n/a
757.0990000000	n/a	757099	NeuAlcP2000	n/a	n/a	n/a	n/a
768.2290000000	n/a	768229	PosStim	n/a	n/a	n/a	n/a
771.3280000000	n/a	771328	PosAlcP1000	n/a	n/a	n/a	n/a
776.3160000000	n/a	776316	PosAlcP1000	n/a	n/a	n/a	n/a
785.3120000000	n/a	785312	NegStim	n/a	n/a	n/a	n/a
788.3450000000	n/a	788345	NegNonAlcStimWithoutStartle	n/a	n/a	n/a	n/a
803.0950000000	n/a	803095	PosStim	n/a	n/a	n/a	n/a
806.1950000000	n/a	806195	PosNonAlcP2000	n/a	n/a	n/a	n/a
810.1820000000	n/a	810182	PosNonAlcP2000	n/a	n/a	n/a	n/a
820.1120000000	n/a	820112	NegStim	n/a	n/a	n/a	n/a
823.2120000000	n/a	823212	NegNonAlcP3000	n/a	n/a	n/a	n/a
826.1990000000	n/a	826199	NegNonAlcP3000	n/a	n/a	n/a	n/a
840.1950000000	n/a	840195	NeuStim	n/a	n/a	n/a	n/a
843.2950000000	n/a	843295	NeuNonAlcP2000	n/a	n/a	n/a	n/a
847.2820000000	n/a	847282	NeuNonAlcP2000	n/a	n/a	n/a	n/a
856.4950000000	n/a	856495	NegStim	n/a	n/a	n/a	n/a
859.5280000000	n/a	859528	NegAlcStimWithoutStartle	n/a	n/a	n/a	n/a
873.1620000000	n/a	873162	PosStim	n/a	n/a	n/a	n/a
876.1950000000	n/a	876195	PosAlcStimWithoutStartle	n/a	n/a	n/a	n/a
891.1280000000	n/a	891128	NeuStim	n/a	n/a	n/a	n/a
894.2280000000	n/a	894228	NeuAlcP3000	n/a	n/a	n/a	n/a
897.2150000000	n/a	897215	NeuAlcP3000	n/a	n/a	n/a	n/a
909.2620000000	n/a	909262	NegStim	n/a	n/a	n/a	n/a
912.3620000000	n/a	912362	NegNonAlcP1000	n/a	n/a	n/a	n/a
917.3490000000	n/a	917349	NegNonAlcP1000	n/a	n/a	n/a	n/a
929.1120000000	n/a	929112	NeuStim	n/a	n/a	n/a	n/a
932.2120000000	n/a	932212	NeuNonAlcP2000	n/a	n/a	n/a	n/a
936.1990000000	n/a	936199	NeuNonAlcP2000	n/a	n/a	n/a	n/a
946.0620000000	n/a	946062	PosStim	n/a	n/a	n/a	n/a
949.0950000000	n/a	949095	PosAlcStimWithoutStartle	n/a	n/a	n/a	n/a
962.7950000000	n/a	962795	NegStim	n/a	n/a	n/a	n/a
965.8950000000	n/a	965895	NegNonAlcP2000	n/a	n/a	n/a	n/a
969.8820000000	n/a	969882	NegNonAlcP2000	n/a	n/a	n/a	n/a
982.9280000000	n/a	982928	NeuStim	n/a	n/a	n/a	n/a
986.0280000000	n/a	986028	NeuAlcP1000	n/a	n/a	n/a	n/a
991.0150000000	n/a	991015	NeuAlcP1000	n/a	n/a	n/a	n/a
