onset	duration	sample	trial_type	response_time	stim_file	value	correct
8.9170000000	n/a	8917	ignore	2080	n/a	n/a	1
12.0670000000	n/a	12067	ignore	1000	n/a	n/a	1
14.0670000000	n/a	14067	ignore	1700	n/a	n/a	1
15.7670000000	n/a	15767	ignore	1741	n/a	n/a	1
18.5840000000	n/a	18584	ignore	1000	n/a	n/a	1
20.5840000000	n/a	20584	ignore	1700	n/a	n/a	1
22.2840000000	n/a	22284	ignore	1589	n/a	n/a	1
24.9510000000	n/a	24951	ignore	1000	n/a	n/a	1
26.9510000000	n/a	26951	ignore	1700	n/a	n/a	1
28.6510000000	n/a	28651	ignore	1566	n/a	n/a	1
31.2840000000	n/a	31284	ignore	1000	n/a	n/a	1
33.2840000000	n/a	33284	ignore	1700	n/a	n/a	1
34.9840000000	n/a	34984	ignore	3340	n/a	n/a	1
39.4010000000	n/a	39401	ignore	1000	n/a	n/a	1
41.4010000000	n/a	41401	ignore	1700	n/a	n/a	1
43.1010000000	n/a	43101	ignore	1294	n/a	n/a	1
45.4670000000	n/a	45467	ignore	1000	n/a	n/a	1
47.4670000000	n/a	47467	STATUS	1700	n/a	n/a	1
49.1670000000	n/a	49167	ignore	780	n/a	n/a	1
51.0170000000	n/a	51017	ignore	1000	n/a	n/a	1
53.0170000000	n/a	53017	STATUS	1700	n/a	n/a	1
54.7170000000	n/a	54717	ignore	1066	n/a	n/a	1
56.8510000000	n/a	56851	ignore	1000	n/a	n/a	1
58.8510000000	n/a	58851	STATUS	1700	n/a	n/a	1
60.5510000000	n/a	60551	ignore	2345	n/a	n/a	1
62.9670000000	n/a	62967	ignore 	2000	n/a	n/a	1
68.9170000000	n/a	68917	ignore	1000	n/a	n/a	1
70.9170000000	n/a	70917	STATUS	1700	n/a	n/a	1
72.6170000000	n/a	72617	ignore	1524	n/a	n/a	1
75.2170000000	n/a	75217	ignore	1000	n/a	n/a	1
77.2170000000	n/a	77217	STATUS	1700	n/a	n/a	1
78.9170000000	n/a	78917	ignore	3468	n/a	n/a	0
83.4510000000	n/a	83451	ignore	1000	n/a	n/a	1
85.4510000000	n/a	85451	STATUS	1700	n/a	n/a	1
87.1510000000	n/a	87151	ignore	3068	n/a	n/a	1
91.2840000000	n/a	91284	ignore	1000	n/a	n/a	1
93.2840000000	n/a	93284	ignore	1700	n/a	n/a	1
94.9840000000	n/a	94984	ignore	3784	n/a	n/a	0
99.8340000000	n/a	99834	ignore	1000	n/a	n/a	1
101.8340000000	n/a	101834	ignore	1700	n/a	n/a	1
103.5340000000	n/a	103534	ignore	1472	n/a	n/a	1
106.0840000000	n/a	106084	ignore	1000	n/a	n/a	1
108.0840000000	n/a	108084	ignore	1700	n/a	n/a	1
109.7840000000	n/a	109784	ignore	1075	n/a	n/a	1
111.9340000000	n/a	111934	ignore	1000	n/a	n/a	1
113.9340000000	n/a	113934	ignore	1700	n/a	n/a	1
115.6340000000	n/a	115634	ignore	3605	n/a	n/a	0
120.3170000000	n/a	120317	ignore	1000	n/a	n/a	1
122.3170000000	n/a	122317	ignore	1700	n/a	n/a	1
124.0170000000	n/a	124017	ignore	1432	n/a	n/a	1
125.5170000000	n/a	125517	ignore 	2000	n/a	n/a	1
136.7340000000	n/a	136734	PenaltyB1	1214	n/a	n/a	1
139.0170000000	n/a	139017	NeuCorrB1	1000	n/a	n/a	1
141.0170000000	n/a	141017	ignore	1700	n/a	n/a	1
142.7170000000	n/a	142717	PenaltyB1	1163	n/a	n/a	1
144.9500000000	n/a	144950	NeuCorrB1	1000	n/a	n/a	1
146.9510000000	n/a	146951	ignore	1700	n/a	n/a	1
148.6500000000	n/a	148650	PenaltyB1	1203	n/a	n/a	0
150.9170000000	n/a	150917	PunIncorrB1	1000	n/a	n/a	1
152.9170000000	n/a	152917	ignore	1700	n/a	n/a	1
154.6170000000	n/a	154617	RewardB1	999	n/a	n/a	0
156.6840000000	n/a	156684	NeuIncorrB1	1000	n/a	n/a	1
158.6840000000	n/a	158684	ignore	1700	n/a	n/a	1
160.3840000000	n/a	160384	RewardB1	1044	n/a	n/a	0
162.5000000000	n/a	162500	NeuIncorrB1	1000	n/a	n/a	1
164.5010000000	n/a	164501	ignore	1700	n/a	n/a	1
166.2000000000	n/a	166200	PenaltyB1	1323	n/a	n/a	0
168.6000000000	n/a	168600	PunIncorrB1	1000	n/a	n/a	1
170.6010000000	n/a	170601	STATUS	1700	n/a	n/a	1
172.3000000000	n/a	172300	PenaltyB1	1035	n/a	n/a	0
174.4000000000	n/a	174400	PunIncorrB1	1000	n/a	n/a	1
176.4000000000	n/a	176400	STATUS	1700	n/a	n/a	1
178.1000000000	n/a	178100	PenaltyB1	2042	n/a	n/a	1
181.2170000000	n/a	181217	NeuCorrB1	1000	n/a	n/a	1
183.2170000000	n/a	183217	STATUS	1700	n/a	n/a	1
184.9170000000	n/a	184917	PenaltyB1	856	n/a	n/a	0
186.8500000000	n/a	186850	NeuIncorrB1	1000	n/a	n/a	1
188.8500000000	n/a	188850	STATUS	1700	n/a	n/a	1
190.5500000000	n/a	190550	RewardB1	2907	n/a	n/a	1
194.5340000000	n/a	194534	RewardCorrB1	1000	n/a	n/a	1
196.5340000000	n/a	196534	STATUS	1700	n/a	n/a	1
198.2340000000	n/a	198234	PenaltyB1	1298	n/a	n/a	1
200.6000000000	n/a	200600	NeuCorrB1	1000	n/a	n/a	1
202.6000000000	n/a	202600	STATUS	1700	n/a	n/a	1
204.3000000000	n/a	204300	RewardB1	919	n/a	n/a	0
206.2840000000	n/a	206284	RewIncorrB1	1000	n/a	n/a	1
208.2840000000	n/a	208284	ignore	1700	n/a	n/a	1
209.9840000000	n/a	209984	PenaltyB1	1439	n/a	n/a	0
212.5000000000	n/a	212500	PunIncorrB1	1000	n/a	n/a	1
214.5000000000	n/a	214500	STATUS	1700	n/a	n/a	1
216.2000000000	n/a	216200	RewardB1	828	n/a	n/a	0
218.1000000000	n/a	218100	NeuIncorrB1	1000	n/a	n/a	1
220.1000000000	n/a	220100	STATUS	1700	n/a	n/a	1
221.8000000000	n/a	221800	PenaltyB1	3209	n/a	n/a	0
226.0840000000	n/a	226084	PunIncorrB1	1000	n/a	n/a	1
228.0840000000	n/a	228084	STATUS	1700	n/a	n/a	1
229.7840000000	n/a	229784	PenaltyB1	2174	n/a	n/a	1
233.0340000000	n/a	233034	NeuCorrB1	1000	n/a	n/a	1
235.0340000000	n/a	235034	STATUS	1700	n/a	n/a	1
236.7340000000	n/a	236734	RewardB1	672	n/a	n/a	0
238.4840000000	n/a	238484	RewIncorrB1	1000	n/a	n/a	1
240.4840000000	n/a	240484	STATUS	1700	n/a	n/a	1
242.1840000000	n/a	242184	PenaltyB1	2521	n/a	n/a	1
245.7670000000	n/a	245767	NeuCorrB1	1000	n/a	n/a	1
247.7670000000	n/a	247767	STATUS	1700	n/a	n/a	1
249.4670000000	n/a	249467	RewardB1	539	n/a	n/a	0
251.0840000000	n/a	251084	NeuIncorrB1	1000	n/a	n/a	1
253.0840000000	n/a	253084	STATUS	1700	n/a	n/a	1
254.7840000000	n/a	254784	RewardB1	786	n/a	n/a	0
256.6340000000	n/a	256634	NeuIncorrB1	1000	n/a	n/a	1
258.6340000000	n/a	258634	STATUS	1700	n/a	n/a	1
260.3340000000	n/a	260334	RewardB1	1391	n/a	n/a	1
262.8000000000	n/a	262800	NeuCorrB1	1000	n/a	n/a	1
264.8000000000	n/a	264800	STATUS	1700	n/a	n/a	1
266.5000000000	n/a	266500	RewardB1	758	n/a	n/a	1
268.3340000000	n/a	268334	RewardCorrB1	1000	n/a	n/a	1
270.3340000000	n/a	270334	ignore	1700	n/a	n/a	1
272.0340000000	n/a	272034	RewardB1	712	n/a	n/a	0
273.8170000000	n/a	273817	NeuIncorrB1	1000	n/a	n/a	1
275.8170000000	n/a	275817	ignore	1700	n/a	n/a	1
277.5170000000	n/a	277517	PenaltyB1	669	n/a	n/a	1
279.2500000000	n/a	279250	NeuCorrB1	1000	n/a	n/a	1
281.2500000000	n/a	281250	ignore	1700	n/a	n/a	1
282.9500000000	n/a	282950	RewardB1	1579	n/a	n/a	1
285.6000000000	n/a	285600	RewardCorrB1	1000	n/a	n/a	1
287.6000000000	n/a	287600	ignore	1700	n/a	n/a	1
289.3000000000	n/a	289300	PenaltyB1	1018	n/a	n/a	1
291.3840000000	n/a	291384	PunCorrB1	1000	n/a	n/a	1
293.3840000000	n/a	293384	ignore	1700	n/a	n/a	1
295.0840000000	n/a	295084	RewardB1	558	n/a	n/a	1
296.7170000000	n/a	296717	RewardCorrB1	1000	n/a	n/a	1
298.7170000000	n/a	298717	ignore	1700	n/a	n/a	1
300.4170000000	n/a	300417	RewardB1	611	n/a	n/a	0
302.1000000000	n/a	302100	NeuIncorrB1	1000	n/a	n/a	1
304.1000000000	n/a	304100	ignore	1700	n/a	n/a	1
305.8000000000	n/a	305800	RewardB1	608	n/a	n/a	1
307.4840000000	n/a	307484	RewardCorrB1	1000	n/a	n/a	1
309.4840000000	n/a	309484	ignore	1700	n/a	n/a	1
311.1840000000	n/a	311184	PenaltyB1	1825	n/a	n/a	0
314.0840000000	n/a	314084	PunIncorrB1	1000	n/a	n/a	1
316.0840000000	n/a	316084	ignore	1700	n/a	n/a	1
317.7840000000	n/a	317784	RewardB1	759	n/a	n/a	1
319.6170000000	n/a	319617	NeuCorrB1	1000	n/a	n/a	1
321.6170000000	n/a	321617	ignore	1700	n/a	n/a	1
323.3170000000	n/a	323317	PenaltyB1	828	n/a	n/a	1
325.2170000000	n/a	325217	NeuCorrB1	1000	n/a	n/a	1
327.2170000000	n/a	327217	ignore	1700	n/a	n/a	1
328.9170000000	n/a	328917	RewardB1	816	n/a	n/a	0
330.8000000000	n/a	330800	NeuIncorrB1	1000	n/a	n/a	1
332.8000000000	n/a	332800	ignore	1700	n/a	n/a	1
334.5000000000	n/a	334500	PenaltyB1	782	n/a	n/a	1
336.3500000000	n/a	336350	PunCorrB1	1000	n/a	n/a	1
338.3500000000	n/a	338350	ignore	1700	n/a	n/a	1
340.0500000000	n/a	340050	RewardB1	724	n/a	n/a	1
341.8500000000	n/a	341850	RewardCorrB1	1000	n/a	n/a	1
343.8500000000	n/a	343850	ignore	1700	n/a	n/a	1
345.5500000000	n/a	345550	PenaltyB1	772	n/a	n/a	0
347.4000000000	n/a	347400	PunIncorrB1	1000	n/a	n/a	1
349.4000000000	n/a	349400	ignore	1700	n/a	n/a	1
351.1000000000	n/a	351100	PenaltyB1	1787	n/a	n/a	1
353.9500000000	n/a	353950	NeuCorrB1	1000	n/a	n/a	1
355.9500000000	n/a	355950	ignore	1700	n/a	n/a	1
357.6500000000	n/a	357650	RewardB1	492	n/a	n/a	1
359.2170000000	n/a	359217	RewardCorrB1	1000	n/a	n/a	1
361.2170000000	n/a	361217	ignore	1700	n/a	n/a	1
362.9170000000	n/a	362917	PenaltyB1	1139	n/a	n/a	1
365.1330000000	n/a	365133	PunCorrB1	1000	n/a	n/a	1
367.1330000000	n/a	367133	ignore	1700	n/a	n/a	1
368.8330000000	n/a	368833	RewardB1	709	n/a	n/a	0
370.6170000000	n/a	370617	NeuIncorrB1	1000	n/a	n/a	1
372.6170000000	n/a	372617	ignore	1700	n/a	n/a	1
382.2330000000	n/a	382233	RewardB2	1176	n/a	n/a	0
384.4830000000	n/a	384483	NeuIncorrB2	1000	n/a	n/a	1
386.4830000000	n/a	386483	ignore	1700	n/a	n/a	1
388.1830000000	n/a	388183	PenaltyB2	2558	n/a	n/a	0
391.8170000000	n/a	391817	PunIncorrB2	1000	n/a	n/a	1
393.8170000000	n/a	393817	STATUS	1700	n/a	n/a	1
395.5170000000	n/a	395517	RewardB2	419	n/a	n/a	0
397.0000000000	n/a	397000	NeuIncorrB2	1000	n/a	n/a	1
399.0000000000	n/a	399000	STATUS	1700	n/a	n/a	1
400.7000000000	n/a	400700	RewardB2	670	n/a	n/a	1
402.4330000000	n/a	402433	NeuCorrB2	1000	n/a	n/a	1
404.4330000000	n/a	404433	STATUS	1700	n/a	n/a	1
406.1330000000	n/a	406133	PenaltyB2	1398	n/a	n/a	1
408.6000000000	n/a	408600	NeuCorrB2	1000	n/a	n/a	1
410.6000000000	n/a	410600	STATUS	1700	n/a	n/a	1
412.3000000000	n/a	412300	RewardB2	662	n/a	n/a	1
414.0330000000	n/a	414033	RewardCorrB2	1000	n/a	n/a	1
416.0330000000	n/a	416033	ignore	1700	n/a	n/a	1
417.7330000000	n/a	417733	PenaltyB2	649	n/a	n/a	1
419.4500000000	n/a	419450	NeuCorrB2	1000	n/a	n/a	1
421.4500000000	n/a	421450	ignore	1700	n/a	n/a	1
423.1500000000	n/a	423150	RewardB2	1886	n/a	n/a	1
426.1000000000	n/a	426100	RewardCorrB2	1000	n/a	n/a	1
428.1000000000	n/a	428100	ignore	1700	n/a	n/a	1
429.8000000000	n/a	429800	PenaltyB2	1509	n/a	n/a	1
432.3830000000	n/a	432383	NeuCorrB2	1000	n/a	n/a	1
434.3830000000	n/a	434383	ignore	1700	n/a	n/a	1
436.0830000000	n/a	436083	RewardB2	685	n/a	n/a	0
437.8330000000	n/a	437833	NeuIncorrB2	1000	n/a	n/a	1
439.8330000000	n/a	439833	ignore	1700	n/a	n/a	1
441.5330000000	n/a	441533	PenaltyB2	1442	n/a	n/a	1
444.0500000000	n/a	444050	PunCorrB2	1000	n/a	n/a	1
446.0500000000	n/a	446050	ignore	1700	n/a	n/a	1
447.7500000000	n/a	447750	RewardB2	828	n/a	n/a	0
449.6500000000	n/a	449650	NeuIncorrB2	1000	n/a	n/a	1
451.6500000000	n/a	451650	ignore	1700	n/a	n/a	1
453.3500000000	n/a	453350	PenaltyB2	789	n/a	n/a	1
455.2170000000	n/a	455217	NeuCorrB2	1000	n/a	n/a	1
457.2170000000	n/a	457217	ignore	1700	n/a	n/a	1
458.9170000000	n/a	458917	RewardB2	600	n/a	n/a	1
460.5830000000	n/a	460583	RewardCorrB2	1000	n/a	n/a	1
462.5830000000	n/a	462583	ignore	1700	n/a	n/a	1
464.2830000000	n/a	464283	PenaltyB2	1225	n/a	n/a	1
466.5830000000	n/a	466583	NeuCorrB2	1000	n/a	n/a	1
468.5830000000	n/a	468583	ignore	1700	n/a	n/a	1
470.2830000000	n/a	470283	RewardB2	671	n/a	n/a	1
472.0170000000	n/a	472017	NeuCorrB2	1000	n/a	n/a	1
474.0170000000	n/a	474017	ignore	1700	n/a	n/a	1
475.7170000000	n/a	475717	PenaltyB2	1839	n/a	n/a	1
478.6330000000	n/a	478633	NeuCorrB2	1000	n/a	n/a	1
480.6330000000	n/a	480633	ignore	1700	n/a	n/a	1
482.3330000000	n/a	482333	RewardB2	463	n/a	n/a	1
483.8670000000	n/a	483867	RewardCorrB2	1000	n/a	n/a	1
485.8670000000	n/a	485867	ignore	1700	n/a	n/a	1
487.5670000000	n/a	487567	PenaltyB2	943	n/a	n/a	1
489.5830000000	n/a	489583	NeuCorrB2	1000	n/a	n/a	1
491.5830000000	n/a	491583	ignore	1700	n/a	n/a	1
493.2830000000	n/a	493283	RewardB2	550	n/a	n/a	0
494.9000000000	n/a	494900	NeuIncorrB2	1000	n/a	n/a	1
496.9000000000	n/a	496900	ignore	1700	n/a	n/a	1
498.6000000000	n/a	498600	PenaltyB2	523	n/a	n/a	1
500.2000000000	n/a	500200	PunCorrB2	1000	n/a	n/a	1
502.2000000000	n/a	502200	ignore	1700	n/a	n/a	1
503.9000000000	n/a	503900	PenaltyB2	512	n/a	n/a	1
505.4830000000	n/a	505483	NeuCorrB2	1000	n/a	n/a	1
507.4830000000	n/a	507483	ignore	1700	n/a	n/a	1
509.1830000000	n/a	509183	PenaltyB2	1951	n/a	n/a	0
512.2000000000	n/a	512200	PunIncorrB2	1000	n/a	n/a	1
514.2000000000	n/a	514200	ignore	1700	n/a	n/a	1
515.9000000000	n/a	515900	RewardB2	535	n/a	n/a	1
517.5000000000	n/a	517500	RewardCorrB2	1000	n/a	n/a	1
519.5000000000	n/a	519500	ignore	1700	n/a	n/a	1
521.2000000000	n/a	521200	RewardB2	743	n/a	n/a	0
523.0170000000	n/a	523017	RewIncorrB2	1000	n/a	n/a	1
525.0170000000	n/a	525017	ignore	1700	n/a	n/a	1
526.7170000000	n/a	526717	RewardB2	600	n/a	n/a	0
528.3830000000	n/a	528383	NeuIncorrB2	1000	n/a	n/a	1
530.3830000000	n/a	530383	ignore	1700	n/a	n/a	1
532.0830000000	n/a	532083	PenaltyB2	954	n/a	n/a	1
534.1000000000	n/a	534100	NeuCorrB2	1000	n/a	n/a	1
536.1000000000	n/a	536100	ignore	1700	n/a	n/a	1
537.8000000000	n/a	537800	PenaltyB2	610	n/a	n/a	1
539.4830000000	n/a	539483	NeuCorrB2	1000	n/a	n/a	1
541.4830000000	n/a	541483	ignore	1700	n/a	n/a	1
543.1830000000	n/a	543183	RewardB2	682	n/a	n/a	1
544.9330000000	n/a	544933	RewardCorrB2	1000	n/a	n/a	1
546.9330000000	n/a	546933	ignore	1700	n/a	n/a	1
548.6330000000	n/a	548633	PenaltyB2	1610	n/a	n/a	1
551.3160000000	n/a	551316	NeuCorrB2	1000	n/a	n/a	1
553.3170000000	n/a	553317	ignore	1700	n/a	n/a	1
555.0160000000	n/a	555016	RewardB2	624	n/a	n/a	0
556.7160000000	n/a	556716	RewIncorrB2	1000	n/a	n/a	1
558.7170000000	n/a	558717	ignore	1700	n/a	n/a	1
560.4160000000	n/a	560416	PenaltyB2	1264	n/a	n/a	1
562.7500000000	n/a	562750	NeuCorrB2	1000	n/a	n/a	1
564.7500000000	n/a	564750	ignore	1700	n/a	n/a	1
566.4500000000	n/a	566450	RewardB2	591	n/a	n/a	1
568.1160000000	n/a	568116	RewardCorrB2	1000	n/a	n/a	1
570.1160000000	n/a	570116	ignore	1700	n/a	n/a	1
571.8160000000	n/a	571816	PenaltyB2	1969	n/a	n/a	1
574.8500000000	n/a	574850	NeuCorrB2	1000	n/a	n/a	1
576.8500000000	n/a	576850	ignore	1700	n/a	n/a	1
578.5500000000	n/a	578550	PenaltyB2	701	n/a	n/a	1
580.3160000000	n/a	580316	PunCorrB2	1000	n/a	n/a	1
582.3160000000	n/a	582316	ignore	1700	n/a	n/a	1
584.0160000000	n/a	584016	RewardB2	753	n/a	n/a	0
585.8330000000	n/a	585833	NeuIncorrB2	1000	n/a	n/a	1
587.8330000000	n/a	587833	ignore	1700	n/a	n/a	1
589.5330000000	n/a	589533	PenaltyB2	918	n/a	n/a	1
591.5160000000	n/a	591516	NeuCorrB2	1000	n/a	n/a	1
593.5160000000	n/a	593516	ignore	1700	n/a	n/a	1
595.2160000000	n/a	595216	RewardB2	651	n/a	n/a	1
596.9330000000	n/a	596933	RewardCorrB2	1000	n/a	n/a	1
598.9330000000	n/a	598933	ignore	1700	n/a	n/a	1
600.6330000000	n/a	600633	PenaltyB2	954	n/a	n/a	1
602.6500000000	n/a	602650	PunCorrB2	1000	n/a	n/a	1
604.6500000000	n/a	604650	ignore	1700	n/a	n/a	1
606.3500000000	n/a	606350	RewardB2	2199	n/a	n/a	0
609.6160000000	n/a	609616	NeuIncorrB2	1000	n/a	n/a	1
611.6160000000	n/a	611616	ignore	1700	n/a	n/a	1
618.1160000000	n/a	618116	RewardB3	844	n/a	n/a	0
620.0330000000	n/a	620033	NeuIncorrB3	1000	n/a	n/a	1
622.0330000000	n/a	622033	ignore	1700	n/a	n/a	1
623.7330000000	n/a	623733	PenaltyB3	1114	n/a	n/a	1
625.9160000000	n/a	625916	PunCorrB3	1000	n/a	n/a	1
627.9160000000	n/a	627916	ignore	1700	n/a	n/a	1
629.6160000000	n/a	629616	RewardB3	592	n/a	n/a	1
631.2830000000	n/a	631283	RewardCorrB3	1000	n/a	n/a	1
633.2830000000	n/a	633283	ignore	1700	n/a	n/a	1
634.9830000000	n/a	634983	PenaltyB3	1813	n/a	n/a	1
637.8660000000	n/a	637866	NeuCorrB3	1000	n/a	n/a	1
639.8660000000	n/a	639866	ignore	1700	n/a	n/a	1
641.5660000000	n/a	641566	PenaltyB3	1667	n/a	n/a	0
644.3000000000	n/a	644300	PunIncorrB3	1000	n/a	n/a	1
646.3000000000	n/a	646300	ignore	1700	n/a	n/a	1
648.0000000000	n/a	648000	RewardB3	2709	n/a	n/a	1
651.7830000000	n/a	651783	RewardCorrB3	1000	n/a	n/a	1
653.7830000000	n/a	653783	ignore	1700	n/a	n/a	1
655.4830000000	n/a	655483	PenaltyB3	1235	n/a	n/a	1
657.7830000000	n/a	657783	PunCorrB3	1000	n/a	n/a	1
659.7830000000	n/a	659783	ignore	1700	n/a	n/a	1
661.4830000000	n/a	661483	RewardB3	3258	n/a	n/a	0
665.8160000000	n/a	665816	NeuIncorrB3	1000	n/a	n/a	1
667.8160000000	n/a	667816	ignore	1700	n/a	n/a	1
669.5160000000	n/a	669516	PenaltyB3	985	n/a	n/a	1
671.5660000000	n/a	671566	NeuCorrB3	1000	n/a	n/a	1
673.5660000000	n/a	673566	ignore	1700	n/a	n/a	1
675.2660000000	n/a	675266	RewardB3	2609	n/a	n/a	1
678.9500000000	n/a	678950	NeuCorrB3	1000	n/a	n/a	1
680.9500000000	n/a	680950	ignore	1700	n/a	n/a	1
682.6500000000	n/a	682650	PenaltyB3	512	n/a	n/a	1
684.2330000000	n/a	684233	NeuCorrB3	1000	n/a	n/a	1
686.2330000000	n/a	686233	ignore	1700	n/a	n/a	1
687.9330000000	n/a	687933	RewardB3	866	n/a	n/a	1
689.8660000000	n/a	689866	RewardCorrB3	1000	n/a	n/a	1
691.8660000000	n/a	691866	ignore	1700	n/a	n/a	1
693.5660000000	n/a	693566	RewardB3	683	n/a	n/a	0
695.3160000000	n/a	695316	NeuIncorrB3	1000	n/a	n/a	1
697.3160000000	n/a	697316	ignore	1700	n/a	n/a	1
699.0160000000	n/a	699016	RewardB3	1840	n/a	n/a	1
701.9330000000	n/a	701933	RewardCorrB3	1000	n/a	n/a	1
703.9330000000	n/a	703933	ignore	1700	n/a	n/a	1
705.6330000000	n/a	705633	PenaltyB3	835	n/a	n/a	0
707.5330000000	n/a	707533	NeuIncorrB3	1000	n/a	n/a	1
709.5330000000	n/a	709533	ignore	1700	n/a	n/a	1
711.2330000000	n/a	711233	RewardB3	1643	n/a	n/a	1
713.9500000000	n/a	713950	RewardCorrB3	1000	n/a	n/a	1
715.9500000000	n/a	715950	ignore	1700	n/a	n/a	1
717.6500000000	n/a	717650	PenaltyB3	2883	n/a	n/a	1
721.6000000000	n/a	721600	NeuCorrB3	1000	n/a	n/a	1
723.6000000000	n/a	723600	ignore	1700	n/a	n/a	1
725.3000000000	n/a	725300	RewardB3	1094	n/a	n/a	0
727.4660000000	n/a	727466	NeuIncorrB3	1000	n/a	n/a	1
729.4660000000	n/a	729466	ignore	1700	n/a	n/a	1
731.1660000000	n/a	731166	RewardB3	2724	n/a	n/a	0
734.9660000000	n/a	734966	NeuIncorrB3	1000	n/a	n/a	1
736.9660000000	n/a	736966	ignore	1700	n/a	n/a	1
738.6660000000	n/a	738666	RewardB3	755	n/a	n/a	1
740.4990000000	n/a	740499	NeuCorrB3	1000	n/a	n/a	1
742.5000000000	n/a	742500	ignore	1700	n/a	n/a	1
744.1990000000	n/a	744199	RewardB3	930	n/a	n/a	0
746.1990000000	n/a	746199	NeuIncorrB3	1000	n/a	n/a	1
748.2000000000	n/a	748200	ignore	1700	n/a	n/a	1
749.8990000000	n/a	749899	RewardB3	807	n/a	n/a	0
751.7830000000	n/a	751783	NeuIncorrB3	1000	n/a	n/a	1
753.7830000000	n/a	753783	ignore	1700	n/a	n/a	1
755.4830000000	n/a	755483	PenaltyB3	912	n/a	n/a	1
757.4660000000	n/a	757466	NeuCorrB3	1000	n/a	n/a	1
759.4660000000	n/a	759466	ignore	1700	n/a	n/a	1
761.1660000000	n/a	761166	RewardB3	1379	n/a	n/a	0
763.6160000000	n/a	763616	RewIncorrB3	1000	n/a	n/a	1
765.6160000000	n/a	765616	ignore	1700	n/a	n/a	1
767.3160000000	n/a	767316	PenaltyB3	1208	n/a	n/a	0
769.5990000000	n/a	769599	PunIncorrB3	1000	n/a	n/a	1
771.5990000000	n/a	771599	ignore	1700	n/a	n/a	1
773.2990000000	n/a	773299	PenaltyB3	1523	n/a	n/a	0
775.8990000000	n/a	775899	PunIncorrB3	1000	n/a	n/a	1
777.8990000000	n/a	777899	ignore	1700	n/a	n/a	1
779.5990000000	n/a	779599	RewardB3	4162	n/a	n/a	0
784.8330000000	n/a	784833	NeuIncorrB3	1000	n/a	n/a	1
786.8330000000	n/a	786833	ignore	1700	n/a	n/a	1
788.5330000000	n/a	788533	PenaltyB3	2886	n/a	n/a	1
792.4830000000	n/a	792483	NeuCorrB3	1000	n/a	n/a	1
794.4830000000	n/a	794483	ignore	1700	n/a	n/a	1
796.1830000000	n/a	796183	RewardB3	827	n/a	n/a	0
798.0830000000	n/a	798083	RewIncorrB3	1000	n/a	n/a	1
800.0830000000	n/a	800083	ignore	1700	n/a	n/a	1
801.7830000000	n/a	801783	PenaltyB3	1927	n/a	n/a	1
804.7830000000	n/a	804783	NeuCorrB3	1000	n/a	n/a	1
806.7830000000	n/a	806783	ignore	1700	n/a	n/a	1
808.4830000000	n/a	808483	RewardB3	1711	n/a	n/a	1
811.2660000000	n/a	811266	RewardCorrB3	1000	n/a	n/a	1
813.2660000000	n/a	813266	ignore	1700	n/a	n/a	1
814.9660000000	n/a	814966	PenaltyB3	1006	n/a	n/a	1
817.0490000000	n/a	817049	PunCorrB3	1000	n/a	n/a	1
819.0490000000	n/a	819049	ignore	1700	n/a	n/a	1
820.7490000000	n/a	820749	PenaltyB3	828	n/a	n/a	0
822.6490000000	n/a	822649	PunIncorrB3	1000	n/a	n/a	1
824.6490000000	n/a	824649	ignore	1700	n/a	n/a	1
826.3490000000	n/a	826349	PenaltyB3	1337	n/a	n/a	1
828.7490000000	n/a	828749	NeuCorrB3	1000	n/a	n/a	1
830.7490000000	n/a	830749	ignore	1700	n/a	n/a	1
832.4490000000	n/a	832449	PenaltyB3	1388	n/a	n/a	0
834.8990000000	n/a	834899	PunIncorrB3	1000	n/a	n/a	1
836.8990000000	n/a	836899	ignore	1700	n/a	n/a	1
838.5990000000	n/a	838599	RewardB3	876	n/a	n/a	1
840.5490000000	n/a	840549	RewardCorrB3	1000	n/a	n/a	1
842.5490000000	n/a	842549	ignore	1700	n/a	n/a	1
844.2490000000	n/a	844249	RewardB3	670	n/a	n/a	0
845.9830000000	n/a	845983	NeuIncorrB3	1000	n/a	n/a	1
847.9830000000	n/a	847983	ignore	1700	n/a	n/a	1
849.6830000000	n/a	849683	PenaltyB3	900	n/a	n/a	0
851.6490000000	n/a	851649	PunIncorrB3	1000	n/a	n/a	1
853.6490000000	n/a	853649	ignore	1700	n/a	n/a	1
855.3490000000	n/a	855349	PenaltyB3	3085	n/a	n/a	0
859.4990000000	n/a	859499	PunIncorrB3	1000	n/a	n/a	1
861.4990000000	n/a	861499	ignore	1700	n/a	n/a	1
863.1990000000	n/a	863199	PenaltyB3	651	n/a	n/a	1
864.9160000000	n/a	864916	NeuCorrB3	1000	n/a	n/a	1
866.9160000000	n/a	866916	ignore	1700	n/a	n/a	1
876.4660000000	n/a	876466	RewardB4	875	n/a	n/a	0
878.4160000000	n/a	878416	NeuIncorrB4	1000	n/a	n/a	1
880.4160000000	n/a	880416	ignore	1700	n/a	n/a	1
882.1160000000	n/a	882116	PenaltyB4	1664	n/a	n/a	0
884.8490000000	n/a	884849	NeuIncorrB4	1000	n/a	n/a	1
886.8490000000	n/a	886849	ignore	1700	n/a	n/a	1
888.5490000000	n/a	888549	RewardB4	2459	n/a	n/a	1
892.0830000000	n/a	892083	RewardCorrB4	1000	n/a	n/a	1
894.0830000000	n/a	894083	ignore	1700	n/a	n/a	1
895.7830000000	n/a	895783	PenaltyB4	765	n/a	n/a	1
897.6160000000	n/a	897616	NeuCorrB4	1000	n/a	n/a	1
899.6160000000	n/a	899616	ignore	1700	n/a	n/a	1
901.3160000000	n/a	901316	RewardB4	681	n/a	n/a	0
903.0660000000	n/a	903066	NeuIncorrB4	1000	n/a	n/a	1
905.0660000000	n/a	905066	ignore	1700	n/a	n/a	1
906.7660000000	n/a	906766	PenaltyB4	2229	n/a	n/a	1
910.0660000000	n/a	910066	PunCorrB4	1000	n/a	n/a	1
912.0660000000	n/a	912066	ignore	1700	n/a	n/a	1
913.7660000000	n/a	913766	PenaltyB4	3032	n/a	n/a	0
917.8660000000	n/a	917866	PunIncorrB4	1000	n/a	n/a	1
919.8660000000	n/a	919866	ignore	1700	n/a	n/a	1
921.5660000000	n/a	921566	RewardB4	588	n/a	n/a	1
923.2160000000	n/a	923216	RewardCorrB4	1000	n/a	n/a	1
925.2160000000	n/a	925216	ignore	1700	n/a	n/a	1
926.9160000000	n/a	926916	PenaltyB4	800	n/a	n/a	0
928.7830000000	n/a	928783	PunIncorrB4	1000	n/a	n/a	1
930.7830000000	n/a	930783	ignore	1700	n/a	n/a	1
932.4820000000	n/a	932482	RewardB4	696	n/a	n/a	0
934.2490000000	n/a	934249	RewIncorrB4	1000	n/a	n/a	1
936.2490000000	n/a	936249	ignore	1700	n/a	n/a	1
937.9490000000	n/a	937949	PenaltyB4	1418	n/a	n/a	0
940.4320000000	n/a	940432	PunIncorrB4	1000	n/a	n/a	1
942.4330000000	n/a	942433	ignore	1700	n/a	n/a	1
944.1320000000	n/a	944132	RewardB4	1281	n/a	n/a	1
946.4820000000	n/a	946482	RewardCorrB4	1000	n/a	n/a	1
948.4830000000	n/a	948483	ignore	1700	n/a	n/a	1
950.1820000000	n/a	950182	PenaltyB4	898	n/a	n/a	0
952.1490000000	n/a	952149	PunIncorrB4	1000	n/a	n/a	1
954.1490000000	n/a	954149	ignore	1700	n/a	n/a	1
955.8490000000	n/a	955849	PenaltyB4	1513	n/a	n/a	1
958.4320000000	n/a	958432	NeuCorrB4	1000	n/a	n/a	1
960.4330000000	n/a	960433	ignore	1700	n/a	n/a	1
962.1320000000	n/a	962132	RewardB4	476	n/a	n/a	0
963.6820000000	n/a	963682	NeuIncorrB4	1000	n/a	n/a	1
965.6830000000	n/a	965683	ignore	1700	n/a	n/a	1
967.3820000000	n/a	967382	RewardB4	728	n/a	n/a	0
969.1820000000	n/a	969182	RewIncorrB4	1000	n/a	n/a	1
971.1820000000	n/a	971182	ignore	1700	n/a	n/a	1
972.8820000000	n/a	972882	RewardB4	1360	n/a	n/a	1
975.3160000000	n/a	975316	RewardCorrB4	1000	n/a	n/a	1
977.3160000000	n/a	977316	ignore	1700	n/a	n/a	1
979.0160000000	n/a	979016	PenaltyB4	827	n/a	n/a	1
980.9160000000	n/a	980916	NeuCorrB4	1000	n/a	n/a	1
982.9160000000	n/a	982916	ignore	1700	n/a	n/a	1
984.6160000000	n/a	984616	PenaltyB4	2544	n/a	n/a	0
988.2320000000	n/a	988232	PunIncorrB4	1000	n/a	n/a	1
990.2320000000	n/a	990232	ignore	1700	n/a	n/a	1
991.9320000000	n/a	991932	PenaltyB4	1820	n/a	n/a	1
994.8160000000	n/a	994816	PunCorrB4	1000	n/a	n/a	1
996.8160000000	n/a	996816	ignore	1700	n/a	n/a	1
998.5160000000	n/a	998516	RewardB4	1132	n/a	n/a	0
1000.7160000000	n/a	1000716	NeuIncorrB4	1000	n/a	n/a	1
1002.7160000000	n/a	1002716	ignore	1700	n/a	n/a	1
1004.4160000000	n/a	1004416	PenaltyB4	1057	n/a	n/a	0
1006.5490000000	n/a	1006549	PunIncorrB4	1000	n/a	n/a	1
1008.5490000000	n/a	1008549	ignore	1700	n/a	n/a	1
1010.2490000000	n/a	1010249	RewardB4	802	n/a	n/a	1
1012.1160000000	n/a	1012116	RewardCorrB4	1000	n/a	n/a	1
1014.1160000000	n/a	1014116	ignore	1700	n/a	n/a	1
1015.8160000000	n/a	1015816	PenaltyB4	510	n/a	n/a	1
1017.3990000000	n/a	1017399	NeuCorrB4	1000	n/a	n/a	1
1019.3990000000	n/a	1019399	ignore	1700	n/a	n/a	1
1021.0990000000	n/a	1021099	RewardB4	1931	n/a	n/a	1
1024.0990000000	n/a	1024099	NeuCorrB4	1000	n/a	n/a	1
1026.0990000000	n/a	1026099	ignore	1700	n/a	n/a	1
1027.7990000000	n/a	1027799	PenaltyB4	2088	n/a	n/a	1
1030.9660000000	n/a	1030966	NeuCorrB4	1000	n/a	n/a	1
1032.9660000000	n/a	1032966	ignore	1700	n/a	n/a	1
1034.6660000000	n/a	1034666	RewardB4	643	n/a	n/a	1
1036.3820000000	n/a	1036382	RewardCorrB4	1000	n/a	n/a	1
1038.3820000000	n/a	1038382	ignore	1700	n/a	n/a	1
1040.0820000000	n/a	1040082	PenaltyB4	2257	n/a	n/a	1
1043.4160000000	n/a	1043416	NeuCorrB4	1000	n/a	n/a	1
1045.4160000000	n/a	1045416	ignore	1700	n/a	n/a	1
1047.1160000000	n/a	1047116	RewardB4	684	n/a	n/a	0
1048.8660000000	n/a	1048866	NeuIncorrB4	1000	n/a	n/a	1
1050.8660000000	n/a	1050866	ignore	1700	n/a	n/a	1
1052.5660000000	n/a	1052566	PenaltyB4	1469	n/a	n/a	0
1055.0990000000	n/a	1055099	NeuIncorrB4	1000	n/a	n/a	1
1057.0990000000	n/a	1057099	ignore	1700	n/a	n/a	1
1058.7990000000	n/a	1058799	RewardB4	671	n/a	n/a	0
1060.5320000000	n/a	1060532	NeuIncorrB4	1000	n/a	n/a	1
1062.5320000000	n/a	1062532	ignore	1700	n/a	n/a	1
1064.2320000000	n/a	1064232	PenaltyB4	1459	n/a	n/a	1
1066.7660000000	n/a	1066766	NeuCorrB4	1000	n/a	n/a	1
1068.7660000000	n/a	1068766	ignore	1700	n/a	n/a	1
1070.4660000000	n/a	1070466	RewardB4	698	n/a	n/a	1
1072.2320000000	n/a	1072232	RewardCorrB4	1000	n/a	n/a	1
1074.2320000000	n/a	1074232	ignore	1700	n/a	n/a	1
1075.9320000000	n/a	1075932	PenaltyB4	557	n/a	n/a	1
1077.5660000000	n/a	1077566	NeuCorrB4	1000	n/a	n/a	1
1079.5660000000	n/a	1079566	ignore	1700	n/a	n/a	1
1081.2660000000	n/a	1081266	RewardB4	805	n/a	n/a	1
1083.1490000000	n/a	1083149	RewardCorrB4	1000	n/a	n/a	1
1085.1490000000	n/a	1085149	ignore	1700	n/a	n/a	1
1086.8490000000	n/a	1086849	PenaltyB4	1929	n/a	n/a	1
1089.8490000000	n/a	1089849	NeuCorrB4	1000	n/a	n/a	1
1091.8490000000	n/a	1091849	ignore	1700	n/a	n/a	1
1093.5490000000	n/a	1093549	RewardB4	677	n/a	n/a	1
1095.2990000000	n/a	1095299	NeuCorrB4	1000	n/a	n/a	1
1097.2990000000	n/a	1097299	ignore	1700	n/a	n/a	1
1098.9990000000	n/a	1098999	RewardB4	1694	n/a	n/a	0
1101.7660000000	n/a	1101766	NeuIncorrB4	1000	n/a	n/a	1
1103.7660000000	n/a	1103766	ignore	1700	n/a	n/a	1
1105.4660000000	n/a	1105466	PenaltyB4	1581	n/a	n/a	1
1108.1160000000	n/a	1108116	NeuCorrB4	1000	n/a	n/a	1
1110.1160000000	n/a	1110116	ignore	1700	n/a	n/a	1
1111.8160000000	n/a	1111816	RewardB4	889	n/a	n/a	0
1113.7820000000	n/a	1113782	NeuIncorrB4	1000	n/a	n/a	1
1115.7820000000	n/a	1115782	ignore	1700	n/a	n/a	1
1127.4320000000	n/a	1127432	ignore	1700	n/a	n/a	1
