onset	duration	sample	trial_type	response_time	stim_file	value	correct
6.6190000000	n/a	6619	ignore	n/a	n/a	n/a	n/a
9.7190000000	n/a	9719	ignore	n/a	n/a	n/a	n/a
12.7290000000	n/a	12729	ignore	n/a	n/a	n/a	n/a
29.2190000000	n/a	29219	ignore	n/a	n/a	n/a	n/a
32.3180000000	n/a	32318	ignore	n/a	n/a	n/a	n/a
35.3060000000	n/a	35306	ignore	n/a	n/a	n/a	n/a
52.2350000000	n/a	52235	PosStim	n/a	n/a	n/a	n/a
55.2680000000	n/a	55268	PosNonAlcStimWithoutStartle	n/a	n/a	n/a	n/a
70.9850000000	n/a	70985	NegStim	n/a	n/a	n/a	n/a
74.0180000000	n/a	74018	NegNonAlcStimWithoutStartle	n/a	n/a	n/a	n/a
88.0520000000	n/a	88052	NeuStim	n/a	n/a	n/a	n/a
91.1520000000	n/a	91152	NeuNonAlcP2000	n/a	n/a	n/a	n/a
95.1390000000	n/a	95139	NeuNonAlcP2000	n/a	n/a	n/a	n/a
104.8520000000	n/a	104852	NegStim	n/a	n/a	n/a	n/a
107.9520000000	n/a	107952	NegAlcP2000	n/a	n/a	n/a	n/a
111.9390000000	n/a	111939	NegAlcP2000	n/a	n/a	n/a	n/a
122.7350000000	n/a	122735	NeuStim	n/a	n/a	n/a	n/a
125.7680000000	n/a	125768	NeuAlcStimWithoutStartle	n/a	n/a	n/a	n/a
139.8180000000	n/a	139818	PosStim	n/a	n/a	n/a	n/a
142.9180000000	n/a	142918	PosAlcP1000	n/a	n/a	n/a	n/a
147.9050000000	n/a	147905	PosAlcP1000	n/a	n/a	n/a	n/a
157.6350000000	n/a	157635	NeuStim	n/a	n/a	n/a	n/a
160.7350000000	n/a	160735	NeuAlcP2000	n/a	n/a	n/a	n/a
164.7220000000	n/a	164722	NeuAlcP2000	n/a	n/a	n/a	n/a
177.7850000000	n/a	177785	NegStim	n/a	n/a	n/a	n/a
180.8850000000	n/a	180885	NegAlcP3000	n/a	n/a	n/a	n/a
183.8720000000	n/a	183872	NegAlcP3000	n/a	n/a	n/a	n/a
196.9020000000	n/a	196902	PosStim	n/a	n/a	n/a	n/a
199.9350000000	n/a	199935	PosNonAlcStimWithoutStartle	n/a	n/a	n/a	n/a
214.8520000000	n/a	214852	NeuStim	n/a	n/a	n/a	n/a
217.9520000000	n/a	217952	NeuAlcP1000	n/a	n/a	n/a	n/a
222.9390000000	n/a	222939	NeuAlcP1000	n/a	n/a	n/a	n/a
233.4680000000	n/a	233468	NegStim	n/a	n/a	n/a	n/a
236.5680000000	n/a	236568	NegNonAlcP3000	n/a	n/a	n/a	n/a
239.5550000000	n/a	239555	NegNonAlcP3000	n/a	n/a	n/a	n/a
249.8180000000	n/a	249818	PosStim	n/a	n/a	n/a	n/a
252.9180000000	n/a	252918	PosAlcP2000	n/a	n/a	n/a	n/a
256.9050000000	n/a	256905	PosAlcP2000	n/a	n/a	n/a	n/a
269.7510000000	n/a	269751	NegStim	n/a	n/a	n/a	n/a
272.7850000000	n/a	272785	NegNonAlcStimWithoutStartle	n/a	n/a	n/a	n/a
288.8850000000	n/a	288885	PosStim	n/a	n/a	n/a	n/a
291.9180000000	n/a	291918	PosAlcStimWithoutStartle	n/a	n/a	n/a	n/a
305.0010000000	n/a	305001	NeuStim	n/a	n/a	n/a	n/a
308.1010000000	n/a	308101	NeuNonAlcP3000	n/a	n/a	n/a	n/a
311.0880000000	n/a	311088	NeuNonAlcP3000	n/a	n/a	n/a	n/a
324.7350000000	n/a	324735	NegStim	n/a	n/a	n/a	n/a
327.8350000000	n/a	327835	NegAlcP1000	n/a	n/a	n/a	n/a
332.8220000000	n/a	332822	NegAlcP1000	n/a	n/a	n/a	n/a
343.7010000000	n/a	343701	NeuStim	n/a	n/a	n/a	n/a
346.8010000000	n/a	346801	NeuAlcP3000	n/a	n/a	n/a	n/a
349.7880000000	n/a	349788	NeuAlcP3000	n/a	n/a	n/a	n/a
361.8680000000	n/a	361868	PosStim	n/a	n/a	n/a	n/a
364.9680000000	n/a	364968	PosAlcP3000	n/a	n/a	n/a	n/a
367.9550000000	n/a	367955	PosAlcP3000	n/a	n/a	n/a	n/a
378.4510000000	n/a	378451	NeuStim	n/a	n/a	n/a	n/a
381.4850000000	n/a	381485	NeuAlcStimWithoutStartle	n/a	n/a	n/a	n/a
397.4010000000	n/a	397401	NegStim	n/a	n/a	n/a	n/a
400.5010000000	n/a	400501	NegAlcP1000	n/a	n/a	n/a	n/a
405.4880000000	n/a	405488	NegAlcP1000	n/a	n/a	n/a	n/a
416.6510000000	n/a	416651	NeuStim	n/a	n/a	n/a	n/a
419.7510000000	n/a	419751	NeuNonAlcP3000	n/a	n/a	n/a	n/a
422.7380000000	n/a	422738	NeuNonAlcP3000	n/a	n/a	n/a	n/a
436.5850000000	n/a	436585	NegStim	n/a	n/a	n/a	n/a
439.6840000000	n/a	439684	NegNonAlcP2000	n/a	n/a	n/a	n/a
443.6710000000	n/a	443671	NegNonAlcP2000	n/a	n/a	n/a	n/a
456.4180000000	n/a	456418	PosStim	n/a	n/a	n/a	n/a
459.4510000000	n/a	459451	PosNonAlcStimWithoutStartle	n/a	n/a	n/a	n/a
474.6510000000	n/a	474651	NeuStim	n/a	n/a	n/a	n/a
477.6840000000	n/a	477684	NeuNonAlcStimWithoutStartle	n/a	n/a	n/a	n/a
492.5680000000	n/a	492568	PosStim	n/a	n/a	n/a	n/a
495.6680000000	n/a	495668	PosNonAlcP1000	n/a	n/a	n/a	n/a
500.6550000000	n/a	500655	PosNonAlcP1000	n/a	n/a	n/a	n/a
511.2340000000	n/a	511234	NegStim	n/a	n/a	n/a	n/a
514.2680000000	n/a	514268	NegAlcStimWithoutStartle	n/a	n/a	n/a	n/a
527.4010000000	n/a	527401	NeuStim	n/a	n/a	n/a	n/a
530.5010000000	n/a	530501	NeuAlcP2000	n/a	n/a	n/a	n/a
534.4880000000	n/a	534488	NeuAlcP2000	n/a	n/a	n/a	n/a
546.0510000000	n/a	546051	PosStim	n/a	n/a	n/a	n/a
549.1510000000	n/a	549151	PosNonAlcP1000	n/a	n/a	n/a	n/a
554.1380000000	n/a	554138	PosNonAlcP1000	n/a	n/a	n/a	n/a
564.1680000000	n/a	564168	NeuStim	n/a	n/a	n/a	n/a
567.2680000000	n/a	567268	NeuNonAlcP1000	n/a	n/a	n/a	n/a
572.2550000000	n/a	572255	NeuNonAlcP1000	n/a	n/a	n/a	n/a
581.6340000000	n/a	581634	PosStim	n/a	n/a	n/a	n/a
584.6680000000	n/a	584668	PosNonAlcStimWithoutStartle	n/a	n/a	n/a	n/a
600.6180000000	n/a	600618	NegStim	n/a	n/a	n/a	n/a
603.7180000000	n/a	603718	NegAlcP2000	n/a	n/a	n/a	n/a
607.7050000000	n/a	607705	NegAlcP2000	n/a	n/a	n/a	n/a
619.1840000000	n/a	619184	NeuStim	n/a	n/a	n/a	n/a
622.2840000000	n/a	622284	NeuAlcP3000	n/a	n/a	n/a	n/a
625.2710000000	n/a	625271	NeuAlcP3000	n/a	n/a	n/a	n/a
638.3180000000	n/a	638318	NegStim	n/a	n/a	n/a	n/a
641.3510000000	n/a	641351	NegAlcStimWithoutStartle	n/a	n/a	n/a	n/a
656.2840000000	n/a	656284	NeuStim	n/a	n/a	n/a	n/a
659.3840000000	n/a	659384	NeuNonAlcP2000	n/a	n/a	n/a	n/a
663.3710000000	n/a	663371	NeuNonAlcP2000	n/a	n/a	n/a	n/a
676.4170000000	n/a	676417	PosStim	n/a	n/a	n/a	n/a
679.5170000000	n/a	679517	PosNonAlcP3000	n/a	n/a	n/a	n/a
682.5040000000	n/a	682504	PosNonAlcP3000	n/a	n/a	n/a	n/a
694.0670000000	n/a	694067	NegStim	n/a	n/a	n/a	n/a
697.1670000000	n/a	697167	NegAlcP3000	n/a	n/a	n/a	n/a
700.1540000000	n/a	700154	NegAlcP3000	n/a	n/a	n/a	n/a
713.3670000000	n/a	713367	PosStim	n/a	n/a	n/a	n/a
716.4010000000	n/a	716401	PosAlcStimWithoutStartle	n/a	n/a	n/a	n/a
730.4170000000	n/a	730417	NegStim	n/a	n/a	n/a	n/a
733.5170000000	n/a	733517	NegAlcP1000	n/a	n/a	n/a	n/a
738.5040000000	n/a	738504	NegAlcP1000	n/a	n/a	n/a	n/a
747.5670000000	n/a	747567	PosStim	n/a	n/a	n/a	n/a
750.6010000000	n/a	750601	PosAlcStimWithoutStartle	n/a	n/a	n/a	n/a
764.5010000000	n/a	764501	NegStim	n/a	n/a	n/a	n/a
767.6010000000	n/a	767601	NegNonAlcP2000	n/a	n/a	n/a	n/a
771.5880000000	n/a	771588	NegNonAlcP2000	n/a	n/a	n/a	n/a
782.6840000000	n/a	782684	PosStim	n/a	n/a	n/a	n/a
785.7840000000	n/a	785784	PosAlcP2000	n/a	n/a	n/a	n/a
789.7710000000	n/a	789771	PosAlcP2000	n/a	n/a	n/a	n/a
799.4510000000	n/a	799451	NeuStim	n/a	n/a	n/a	n/a
802.4840000000	n/a	802484	NeuNonAlcStimWithoutStartle	n/a	n/a	n/a	n/a
818.6670000000	n/a	818667	PosStim	n/a	n/a	n/a	n/a
821.7670000000	n/a	821767	PosNonAlcP2000	n/a	n/a	n/a	n/a
825.7540000000	n/a	825754	PosNonAlcP2000	n/a	n/a	n/a	n/a
835.8840000000	n/a	835884	NegStim	n/a	n/a	n/a	n/a
838.9170000000	n/a	838917	NegAlcStimWithoutStartle	n/a	n/a	n/a	n/a
855.7010000000	n/a	855701	PosStim	n/a	n/a	n/a	n/a
858.8000000000	n/a	858800	PosAlcP3000	n/a	n/a	n/a	n/a
861.7870000000	n/a	861787	PosAlcP3000	n/a	n/a	n/a	n/a
873.3500000000	n/a	873350	PosStim	n/a	n/a	n/a	n/a
876.4500000000	n/a	876450	PosNonAlcP3000	n/a	n/a	n/a	n/a
879.4370000000	n/a	879437	PosNonAlcP3000	n/a	n/a	n/a	n/a
893.0670000000	n/a	893067	NeuStim	n/a	n/a	n/a	n/a
896.1000000000	n/a	896100	NeuNonAlcStimWithoutStartle	n/a	n/a	n/a	n/a
912.3340000000	n/a	912334	NeuStim	n/a	n/a	n/a	n/a
915.4340000000	n/a	915434	NeuNonAlcP3000	n/a	n/a	n/a	n/a
918.4210000000	n/a	918421	NeuNonAlcP3000	n/a	n/a	n/a	n/a
930.3000000000	n/a	930300	PosStim	n/a	n/a	n/a	n/a
933.4000000000	n/a	933400	PosAlcP2000	n/a	n/a	n/a	n/a
937.3870000000	n/a	937387	PosAlcP2000	n/a	n/a	n/a	n/a
948.9670000000	n/a	948967	NegStim	n/a	n/a	n/a	n/a
952.0670000000	n/a	952067	NegAlcP1000	n/a	n/a	n/a	n/a
957.0540000000	n/a	957054	NegAlcP1000	n/a	n/a	n/a	n/a
966.2670000000	n/a	966267	PosStim	n/a	n/a	n/a	n/a
969.3670000000	n/a	969367	PosNonAlcP2000	n/a	n/a	n/a	n/a
973.3540000000	n/a	973354	PosNonAlcP2000	n/a	n/a	n/a	n/a
984.0000000000	n/a	984000	NeuStim	n/a	n/a	n/a	n/a
987.0340000000	n/a	987034	NeuNonAlcStimWithoutStartle	n/a	n/a	n/a	n/a
1001.8340000000	n/a	1001834	NegStim	n/a	n/a	n/a	n/a
1004.9340000000	n/a	1004934	NegAlcP2000	n/a	n/a	n/a	n/a
1008.9210000000	n/a	1008921	NegAlcP2000	n/a	n/a	n/a	n/a
1021.5340000000	n/a	1021534	PosStim	n/a	n/a	n/a	n/a
1024.6340000000	n/a	1024634	PosAlcP3000	n/a	n/a	n/a	n/a
1027.6210000000	n/a	1027621	PosAlcP3000	n/a	n/a	n/a	n/a
1038.5000000000	n/a	1038500	NeuStim	n/a	n/a	n/a	n/a
1041.5340000000	n/a	1041534	NeuAlcStimWithoutStartle	n/a	n/a	n/a	n/a
1056.5670000000	n/a	1056567	NegStim	n/a	n/a	n/a	n/a
1059.6670000000	n/a	1059667	NegNonAlcP3000	n/a	n/a	n/a	n/a
1062.6540000000	n/a	1062654	NegNonAlcP3000	n/a	n/a	n/a	n/a
