onset	duration	sample	trial_type	response_time	stim_file	value	correct
20.4310000000	n/a	20431	ignore	2292	n/a	n/a	1
23.7980000000	n/a	23798	ignore	1000	n/a	n/a	1
25.7980000000	n/a	25798	ignore	1700	n/a	n/a	1
27.4980000000	n/a	27498	ignore	3127	n/a	n/a	1
31.6980000000	n/a	31698	ignore	1000	n/a	n/a	1
33.6980000000	n/a	33698	ignore	1700	n/a	n/a	1
35.3980000000	n/a	35398	ignore	4291	n/a	n/a	1
40.7640000000	n/a	40764	ignore	1000	n/a	n/a	1
42.7640000000	n/a	42764	ignore	1700	n/a	n/a	1
44.4640000000	n/a	44464	ignore	6935	n/a	n/a	1
52.4640000000	n/a	52464	ignore	1000	n/a	n/a	1
54.4640000000	n/a	54464	ignore	1700	n/a	n/a	1
56.1640000000	n/a	56164	ignore	3055	n/a	n/a	0
60.2980000000	n/a	60298	ignore	1000	n/a	n/a	1
62.2980000000	n/a	62298	ignore	1700	n/a	n/a	1
63.9980000000	n/a	63998	ignore	6409	n/a	n/a	1
71.4810000000	n/a	71481	ignore	1000	n/a	n/a	1
73.4810000000	n/a	73481	ignore	1700	n/a	n/a	1
75.1810000000	n/a	75181	ignore	5174	n/a	n/a	1
81.4310000000	n/a	81431	ignore	1000	n/a	n/a	1
83.4310000000	n/a	83431	ignore	1700	n/a	n/a	1
85.1310000000	n/a	85131	ignore	4981	n/a	n/a	0
91.1810000000	n/a	91181	ignore	1000	n/a	n/a	1
93.1810000000	n/a	93181	ignore	1700	n/a	n/a	1
94.8810000000	n/a	94881	ignore	3807	n/a	n/a	1
98.7640000000	n/a	98764	ignore 	2000	n/a	n/a	1
109.3480000000	n/a	109348	ignore	1000	n/a	n/a	1
111.3480000000	n/a	111348	ignore	1700	n/a	n/a	1
113.0480000000	n/a	113048	ignore	1937	n/a	n/a	0
116.0480000000	n/a	116048	ignore	1000	n/a	n/a	1
118.0480000000	n/a	118048	ignore	1700	n/a	n/a	1
119.7480000000	n/a	119748	ignore	2521	n/a	n/a	0
123.3310000000	n/a	123331	ignore	1000	n/a	n/a	1
125.3310000000	n/a	125331	ignore	1700	n/a	n/a	1
127.0310000000	n/a	127031	ignore	557	n/a	n/a	1
128.6640000000	n/a	128664	ignore	1000	n/a	n/a	1
130.6640000000	n/a	130664	ignore	1700	n/a	n/a	1
132.3640000000	n/a	132364	ignore	3902	n/a	n/a	1
137.3310000000	n/a	137331	ignore	1000	n/a	n/a	1
139.3310000000	n/a	139331	ignore	1700	n/a	n/a	1
141.0310000000	n/a	141031	ignore	2587	n/a	n/a	1
144.6810000000	n/a	144681	ignore	1000	n/a	n/a	1
146.6810000000	n/a	146681	ignore	1700	n/a	n/a	1
148.3810000000	n/a	148381	ignore	4314	n/a	n/a	1
153.7640000000	n/a	153764	ignore	1000	n/a	n/a	1
155.7640000000	n/a	155764	ignore	1700	n/a	n/a	1
157.4640000000	n/a	157464	ignore	1000	n/a	n/a	1
159.5310000000	n/a	159531	ignore	1000	n/a	n/a	1
161.5310000000	n/a	161531	ignore	1700	n/a	n/a	1
163.2310000000	n/a	163231	ignore	1053	n/a	n/a	1
164.3480000000	n/a	164348	ignore 	2000	n/a	n/a	1
173.5310000000	n/a	173531	PenaltyB1	2894	n/a	n/a	1
177.4970000000	n/a	177497	NeuCorrB1	1000	n/a	n/a	1
179.4980000000	n/a	179498	ignore	1700	n/a	n/a	1
181.1970000000	n/a	181197	PenaltyB1	4729	n/a	n/a	1
186.9970000000	n/a	186997	NeuCorrB1	1000	n/a	n/a	1
188.9980000000	n/a	188998	ignore	1700	n/a	n/a	1
190.6970000000	n/a	190697	PenaltyB1	1113	n/a	n/a	0
192.8810000000	n/a	192881	PunIncorrB1	1000	n/a	n/a	1
194.8810000000	n/a	194881	ignore	1700	n/a	n/a	1
196.5810000000	n/a	196581	RewardB1	1951	n/a	n/a	0
199.5970000000	n/a	199597	NeuIncorrB1	1000	n/a	n/a	1
201.5980000000	n/a	201598	ignore	1700	n/a	n/a	1
203.2970000000	n/a	203297	RewardB1	3228	n/a	n/a	1
207.5970000000	n/a	207597	RewardCorrB1	1000	n/a	n/a	1
209.5980000000	n/a	209598	ignore	1700	n/a	n/a	1
211.2970000000	n/a	211297	PenaltyB1	1338	n/a	n/a	0
213.7140000000	n/a	213714	PunIncorrB1	1000	n/a	n/a	1
215.7140000000	n/a	215714	ignore	1700	n/a	n/a	1
217.4140000000	n/a	217414	PenaltyB1	1251	n/a	n/a	0
219.7310000000	n/a	219731	PunIncorrB1	1000	n/a	n/a	1
221.7310000000	n/a	221731	STATUS	1700	n/a	n/a	1
223.4310000000	n/a	223431	PenaltyB1	1503	n/a	n/a	0
225.9970000000	n/a	225997	PunIncorrB1	1000	n/a	n/a	1
227.9970000000	n/a	227997	STATUS	1700	n/a	n/a	1
229.6970000000	n/a	229697	PenaltyB1	1318	n/a	n/a	1
232.0810000000	n/a	232081	PunCorrB1	1000	n/a	n/a	1
234.0810000000	n/a	234081	STATUS	1700	n/a	n/a	1
235.7810000000	n/a	235781	RewardB1	4891	n/a	n/a	1
241.7470000000	n/a	241747	RewardCorrB1	1000	n/a	n/a	1
243.7470000000	n/a	243747	STATUS	1700	n/a	n/a	1
245.4470000000	n/a	245447	PenaltyB1	5630	n/a	n/a	1
252.1470000000	n/a	252147	NeuCorrB1	1000	n/a	n/a	1
254.1470000000	n/a	254147	STATUS	1700	n/a	n/a	1
255.8470000000	n/a	255847	RewardB1	2442	n/a	n/a	1
259.3640000000	n/a	259364	NeuCorrB1	1000	n/a	n/a	1
261.3640000000	n/a	261364	STATUS	1700	n/a	n/a	1
263.0640000000	n/a	263064	PenaltyB1	2648	n/a	n/a	0
266.7810000000	n/a	266781	PunIncorrB1	1000	n/a	n/a	1
268.7810000000	n/a	268781	STATUS	1700	n/a	n/a	1
270.4810000000	n/a	270481	RewardB1	3173	n/a	n/a	1
274.7310000000	n/a	274731	RewardCorrB1	1000	n/a	n/a	1
276.7310000000	n/a	276731	STATUS	1700	n/a	n/a	1
278.4310000000	n/a	278431	PenaltyB1	2219	n/a	n/a	0
281.7140000000	n/a	281714	PunIncorrB1	1000	n/a	n/a	1
283.7140000000	n/a	283714	STATUS	1700	n/a	n/a	1
285.4140000000	n/a	285414	PenaltyB1	2984	n/a	n/a	1
289.4640000000	n/a	289464	NeuCorrB1	1000	n/a	n/a	1
291.4640000000	n/a	291464	STATUS	1700	n/a	n/a	1
293.1640000000	n/a	293164	RewardB1	2974	n/a	n/a	1
297.2140000000	n/a	297214	NeuCorrB1	1000	n/a	n/a	1
299.2140000000	n/a	299214	STATUS	1700	n/a	n/a	1
300.9140000000	n/a	300914	PenaltyB1	4164	n/a	n/a	1
306.1470000000	n/a	306147	NeuCorrB1	1000	n/a	n/a	1
308.1470000000	n/a	308147	STATUS	1700	n/a	n/a	1
309.8470000000	n/a	309847	RewardB1	2641	n/a	n/a	1
313.5640000000	n/a	313564	RewardCorrB1	1000	n/a	n/a	1
315.5640000000	n/a	315564	STATUS	1700	n/a	n/a	1
317.2640000000	n/a	317264	RewardB1	2241	n/a	n/a	1
320.5810000000	n/a	320581	RewardCorrB1	1000	n/a	n/a	1
322.5810000000	n/a	322581	STATUS	1700	n/a	n/a	1
324.2810000000	n/a	324281	RewardB1	5112	n/a	n/a	1
330.4640000000	n/a	330464	NeuCorrB1	1000	n/a	n/a	1
332.4640000000	n/a	332464	STATUS	1700	n/a	n/a	1
334.1640000000	n/a	334164	RewardB1	2354	n/a	n/a	1
337.5810000000	n/a	337581	RewardCorrB1	1000	n/a	n/a	1
339.5810000000	n/a	339581	ignore	1700	n/a	n/a	1
341.2810000000	n/a	341281	RewardB1	3048	n/a	n/a	1
345.3970000000	n/a	345397	RewardCorrB1	1000	n/a	n/a	1
347.3970000000	n/a	347397	ignore	1700	n/a	n/a	1
349.0970000000	n/a	349097	PenaltyB1	2724	n/a	n/a	1
352.8970000000	n/a	352897	NeuCorrB1	1000	n/a	n/a	1
354.8970000000	n/a	354897	ignore	1700	n/a	n/a	1
356.5970000000	n/a	356597	RewardB1	2102	n/a	n/a	1
359.7640000000	n/a	359764	RewardCorrB1	1000	n/a	n/a	1
361.7640000000	n/a	361764	ignore	1700	n/a	n/a	1
363.4640000000	n/a	363464	PenaltyB1	2649	n/a	n/a	0
367.1810000000	n/a	367181	NeuIncorrB1	1000	n/a	n/a	1
369.1810000000	n/a	369181	ignore	1700	n/a	n/a	1
370.8810000000	n/a	370881	RewardB1	2196	n/a	n/a	1
374.1470000000	n/a	374147	RewardCorrB1	1000	n/a	n/a	1
376.1470000000	n/a	376147	ignore	1700	n/a	n/a	1
377.8470000000	n/a	377847	RewardB1	1960	n/a	n/a	1
380.8800000000	n/a	380880	RewardCorrB1	1000	n/a	n/a	1
382.8810000000	n/a	382881	ignore	1700	n/a	n/a	1
384.5800000000	n/a	384580	RewardB1	2071	n/a	n/a	1
387.7140000000	n/a	387714	RewardCorrB1	1000	n/a	n/a	1
389.7140000000	n/a	389714	ignore	1700	n/a	n/a	1
391.4140000000	n/a	391414	PenaltyB1	1930	n/a	n/a	0
394.4140000000	n/a	394414	PunIncorrB1	1000	n/a	n/a	1
396.4140000000	n/a	396414	ignore	1700	n/a	n/a	1
398.1140000000	n/a	398114	RewardB1	2614	n/a	n/a	1
401.7970000000	n/a	401797	NeuCorrB1	1000	n/a	n/a	1
403.7970000000	n/a	403797	ignore	1700	n/a	n/a	1
405.4970000000	n/a	405497	PenaltyB1	1776	n/a	n/a	1
408.3470000000	n/a	408347	NeuCorrB1	1000	n/a	n/a	1
410.3470000000	n/a	410347	ignore	1700	n/a	n/a	1
412.0470000000	n/a	412047	RewardB1	1930	n/a	n/a	1
415.0470000000	n/a	415047	RewardCorrB1	1000	n/a	n/a	1
417.0470000000	n/a	417047	ignore	1700	n/a	n/a	1
418.7470000000	n/a	418747	PenaltyB1	1886	n/a	n/a	0
421.6970000000	n/a	421697	NeuIncorrB1	1000	n/a	n/a	1
423.6970000000	n/a	423697	ignore	1700	n/a	n/a	1
425.3970000000	n/a	425397	RewardB1	3561	n/a	n/a	1
430.0300000000	n/a	430030	RewardCorrB1	1000	n/a	n/a	1
432.0300000000	n/a	432030	ignore	1700	n/a	n/a	1
433.7300000000	n/a	433730	PenaltyB1	3556	n/a	n/a	0
438.3640000000	n/a	438364	PunIncorrB1	1000	n/a	n/a	1
440.3640000000	n/a	440364	ignore	1700	n/a	n/a	1
442.0640000000	n/a	442064	PenaltyB1	1738	n/a	n/a	1
444.8800000000	n/a	444880	NeuCorrB1	1000	n/a	n/a	1
446.8800000000	n/a	446880	ignore	1700	n/a	n/a	1
448.5800000000	n/a	448580	RewardB1	2348	n/a	n/a	1
451.9970000000	n/a	451997	RewardCorrB1	1000	n/a	n/a	1
453.9970000000	n/a	453997	ignore	1700	n/a	n/a	1
455.6970000000	n/a	455697	PenaltyB1	2040	n/a	n/a	0
458.8140000000	n/a	458814	NeuIncorrB1	1000	n/a	n/a	1
460.8140000000	n/a	460814	ignore	1700	n/a	n/a	1
462.5140000000	n/a	462514	RewardB1	1990	n/a	n/a	1
465.5800000000	n/a	465580	RewardCorrB1	1000	n/a	n/a	1
467.5800000000	n/a	467580	ignore	1700	n/a	n/a	1
513.4470000000	n/a	513447	RewardB2	1443	n/a	n/a	1
515.9640000000	n/a	515964	RewardCorrB2	1000	n/a	n/a	1
517.9640000000	n/a	517964	ignore	1700	n/a	n/a	1
519.6640000000	n/a	519664	PenaltyB2	1202	n/a	n/a	0
521.9300000000	n/a	521930	PunIncorrB2	1000	n/a	n/a	1
523.9300000000	n/a	523930	ignore	1700	n/a	n/a	1
525.6300000000	n/a	525630	RewardB2	728	n/a	n/a	1
527.4300000000	n/a	527430	RewardCorrB2	1000	n/a	n/a	1
529.4300000000	n/a	529430	ignore	1700	n/a	n/a	1
531.1300000000	n/a	531130	RewardB2	1776	n/a	n/a	1
533.9800000000	n/a	533980	NeuCorrB2	1000	n/a	n/a	1
535.9800000000	n/a	535980	ignore	1700	n/a	n/a	1
537.6800000000	n/a	537680	PenaltyB2	1384	n/a	n/a	0
540.1300000000	n/a	540130	PunIncorrB2	1000	n/a	n/a	1
542.1300000000	n/a	542130	ignore	1700	n/a	n/a	1
543.8300000000	n/a	543830	RewardB2	5878	n/a	n/a	1
550.7800000000	n/a	550780	RewardCorrB2	1000	n/a	n/a	1
552.7800000000	n/a	552780	ignore	1700	n/a	n/a	1
554.4800000000	n/a	554480	PenaltyB2	5437	n/a	n/a	0
560.9800000000	n/a	560980	PunIncorrB2	1000	n/a	n/a	1
562.9800000000	n/a	562980	ignore	1700	n/a	n/a	1
564.6800000000	n/a	564680	RewardB2	3984	n/a	n/a	1
569.7300000000	n/a	569730	RewardCorrB2	1000	n/a	n/a	1
571.7300000000	n/a	571730	ignore	1700	n/a	n/a	1
573.4300000000	n/a	573430	PenaltyB2	5009	n/a	n/a	0
579.5140000000	n/a	579514	PunIncorrB2	1000	n/a	n/a	1
581.5140000000	n/a	581514	ignore	1700	n/a	n/a	1
583.2130000000	n/a	583213	RewardB2	3001	n/a	n/a	1
587.2800000000	n/a	587280	RewardCorrB2	1000	n/a	n/a	1
589.2800000000	n/a	589280	ignore	1700	n/a	n/a	1
590.9800000000	n/a	590980	PenaltyB2	1876	n/a	n/a	1
593.9300000000	n/a	593930	PunCorrB2	1000	n/a	n/a	1
595.9300000000	n/a	595930	ignore	1700	n/a	n/a	1
597.6300000000	n/a	597630	RewardB2	2077	n/a	n/a	1
600.7800000000	n/a	600780	RewardCorrB2	1000	n/a	n/a	1
602.7800000000	n/a	602780	ignore	1700	n/a	n/a	1
604.4800000000	n/a	604480	PenaltyB2	4446	n/a	n/a	0
609.9970000000	n/a	609997	PunIncorrB2	1000	n/a	n/a	1
611.9970000000	n/a	611997	ignore	1700	n/a	n/a	1
613.6970000000	n/a	613697	RewardB2	4725	n/a	n/a	1
619.4970000000	n/a	619497	RewardCorrB2	1000	n/a	n/a	1
621.4970000000	n/a	621497	ignore	1700	n/a	n/a	1
623.1970000000	n/a	623197	PenaltyB2	4429	n/a	n/a	1
628.6970000000	n/a	628697	NeuCorrB2	1000	n/a	n/a	1
630.6970000000	n/a	630697	ignore	1700	n/a	n/a	1
632.3970000000	n/a	632397	RewardB2	5551	n/a	n/a	1
639.0130000000	n/a	639013	NeuCorrB2	1000	n/a	n/a	1
641.0130000000	n/a	641013	ignore	1700	n/a	n/a	1
642.7130000000	n/a	642713	PenaltyB2	2119	n/a	n/a	1
645.8970000000	n/a	645897	NeuCorrB2	1000	n/a	n/a	1
647.8970000000	n/a	647897	ignore	1700	n/a	n/a	1
649.5970000000	n/a	649597	RewardB2	7653	n/a	n/a	1
658.3130000000	n/a	658313	RewardCorrB2	1000	n/a	n/a	1
660.3130000000	n/a	660313	STATUS	1700	n/a	n/a	1
662.0130000000	n/a	662013	PenaltyB2	1822	n/a	n/a	1
664.9130000000	n/a	664913	NeuCorrB2	1000	n/a	n/a	1
666.9130000000	n/a	666913	STATUS	1700	n/a	n/a	1
668.6130000000	n/a	668613	RewardB2	3446	n/a	n/a	1
673.1300000000	n/a	673130	RewardCorrB2	1000	n/a	n/a	1
675.1300000000	n/a	675130	STATUS	1700	n/a	n/a	1
676.8300000000	n/a	676830	PenaltyB2	3290	n/a	n/a	1
681.1970000000	n/a	681197	PunCorrB2	1000	n/a	n/a	1
683.1970000000	n/a	683197	STATUS	1700	n/a	n/a	1
684.8970000000	n/a	684897	PenaltyB2	2873	n/a	n/a	1
688.8470000000	n/a	688847	NeuCorrB2	1000	n/a	n/a	1
690.8470000000	n/a	690847	STATUS	1700	n/a	n/a	1
692.5470000000	n/a	692547	PenaltyB2	4205	n/a	n/a	0
697.8300000000	n/a	697830	PunIncorrB2	1000	n/a	n/a	1
699.8300000000	n/a	699830	ignore	1700	n/a	n/a	1
701.5300000000	n/a	701530	RewardB2	8132	n/a	n/a	1
710.7300000000	n/a	710730	RewardCorrB2	1000	n/a	n/a	1
712.7300000000	n/a	712730	STATUS	1700	n/a	n/a	1
714.4300000000	n/a	714430	RewardB2	1151	n/a	n/a	1
716.6470000000	n/a	716647	NeuCorrB2	1000	n/a	n/a	1
718.6470000000	n/a	718647	STATUS	1700	n/a	n/a	1
720.3470000000	n/a	720347	RewardB2	2903	n/a	n/a	1
724.3130000000	n/a	724313	RewardCorrB2	1000	n/a	n/a	1
726.3130000000	n/a	726313	STATUS	1700	n/a	n/a	1
728.0130000000	n/a	728013	PenaltyB2	2869	n/a	n/a	1
731.9470000000	n/a	731947	NeuCorrB2	1000	n/a	n/a	1
733.9470000000	n/a	733947	STATUS	1700	n/a	n/a	1
735.6470000000	n/a	735647	PenaltyB2	3405	n/a	n/a	1
740.1300000000	n/a	740130	NeuCorrB2	1000	n/a	n/a	1
742.1300000000	n/a	742130	STATUS	1700	n/a	n/a	1
743.8300000000	n/a	743830	RewardB2	8183	n/a	n/a	1
753.0800000000	n/a	753080	RewardCorrB2	1000	n/a	n/a	1
755.0800000000	n/a	755080	STATUS	1700	n/a	n/a	1
756.7800000000	n/a	756780	PenaltyB2	3424	n/a	n/a	1
761.2800000000	n/a	761280	NeuCorrB2	1000	n/a	n/a	1
763.2800000000	n/a	763280	STATUS	1700	n/a	n/a	1
764.9800000000	n/a	764980	RewardB2	2586	n/a	n/a	1
768.6300000000	n/a	768630	NeuCorrB2	1000	n/a	n/a	1
770.6300000000	n/a	770630	STATUS	1700	n/a	n/a	1
772.3300000000	n/a	772330	PenaltyB2	3088	n/a	n/a	1
776.4970000000	n/a	776497	NeuCorrB2	1000	n/a	n/a	1
778.4970000000	n/a	778497	STATUS	1700	n/a	n/a	1
780.1970000000	n/a	780197	RewardB2	7300	n/a	n/a	1
788.5630000000	n/a	788563	RewardCorrB2	1000	n/a	n/a	1
790.5630000000	n/a	790563	STATUS	1700	n/a	n/a	1
792.2630000000	n/a	792263	PenaltyB2	3691	n/a	n/a	0
797.0300000000	n/a	797030	PunIncorrB2	1000	n/a	n/a	1
799.0300000000	n/a	799030	STATUS	1700	n/a	n/a	1
800.7300000000	n/a	800730	PenaltyB2	3064	n/a	n/a	1
804.8630000000	n/a	804863	PunCorrB2	1000	n/a	n/a	1
806.8630000000	n/a	806863	STATUS	1700	n/a	n/a	1
808.5630000000	n/a	808563	RewardB2	3477	n/a	n/a	1
813.1130000000	n/a	813113	RewardCorrB2	1000	n/a	n/a	1
815.1130000000	n/a	815113	STATUS	1700	n/a	n/a	1
816.8130000000	n/a	816813	PenaltyB2	2438	n/a	n/a	1
820.3300000000	n/a	820330	NeuCorrB2	1000	n/a	n/a	1
822.3300000000	n/a	822330	STATUS	1700	n/a	n/a	1
824.0300000000	n/a	824030	RewardB2	7105	n/a	n/a	1
832.2130000000	n/a	832213	RewardCorrB2	1000	n/a	n/a	1
834.2130000000	n/a	834213	STATUS	1700	n/a	n/a	1
835.9130000000	n/a	835913	PenaltyB2	3239	n/a	n/a	1
840.2300000000	n/a	840230	PunCorrB2	1000	n/a	n/a	1
842.2300000000	n/a	842230	STATUS	1700	n/a	n/a	1
843.9300000000	n/a	843930	RewardB2	2649	n/a	n/a	1
847.6460000000	n/a	847646	RewardCorrB2	1000	n/a	n/a	1
849.6460000000	n/a	849646	STATUS	1700	n/a	n/a	1
856.3300000000	n/a	856330	RewardB3	2438	n/a	n/a	1
859.8300000000	n/a	859830	RewardCorrB3	1000	n/a	n/a	1
861.8300000000	n/a	861830	STATUS	1700	n/a	n/a	1
863.5300000000	n/a	863530	PenaltyB3	3548	n/a	n/a	0
868.1460000000	n/a	868146	NeuIncorrB3	1000	n/a	n/a	1
870.1460000000	n/a	870146	STATUS	1700	n/a	n/a	1
871.8460000000	n/a	871846	RewardB3	5680	n/a	n/a	1
878.5960000000	n/a	878596	RewardCorrB3	1000	n/a	n/a	1
880.5960000000	n/a	880596	STATUS	1700	n/a	n/a	1
882.2960000000	n/a	882296	PenaltyB3	3069	n/a	n/a	0
886.4300000000	n/a	886430	PunIncorrB3	1000	n/a	n/a	1
888.4300000000	n/a	888430	STATUS	1700	n/a	n/a	1
890.1300000000	n/a	890130	PenaltyB3	4413	n/a	n/a	1
895.6130000000	n/a	895613	NeuCorrB3	1000	n/a	n/a	1
897.6130000000	n/a	897613	STATUS	1700	n/a	n/a	1
899.3130000000	n/a	899313	RewardB3	5671	n/a	n/a	1
906.0460000000	n/a	906046	RewardCorrB3	1000	n/a	n/a	1
908.0460000000	n/a	908046	STATUS	1700	n/a	n/a	1
909.7460000000	n/a	909746	PenaltyB3	4240	n/a	n/a	1
915.0630000000	n/a	915063	PunCorrB3	1000	n/a	n/a	1
917.0630000000	n/a	917063	STATUS	1700	n/a	n/a	1
918.7630000000	n/a	918763	RewardB3	1654	n/a	n/a	1
921.4800000000	n/a	921480	RewardCorrB3	1000	n/a	n/a	1
923.4800000000	n/a	923480	STATUS	1700	n/a	n/a	1
925.1800000000	n/a	925180	PenaltyB3	3534	n/a	n/a	0
929.7800000000	n/a	929780	PunIncorrB3	1000	n/a	n/a	1
931.7800000000	n/a	931780	STATUS	1700	n/a	n/a	1
933.4800000000	n/a	933480	RewardB3	4489	n/a	n/a	1
939.0460000000	n/a	939046	NeuCorrB3	1000	n/a	n/a	1
941.0460000000	n/a	941046	STATUS	1700	n/a	n/a	1
942.7460000000	n/a	942746	PenaltyB3	5458	n/a	n/a	1
949.2800000000	n/a	949280	NeuCorrB3	1000	n/a	n/a	1
951.2800000000	n/a	951280	STATUS	1700	n/a	n/a	1
952.9800000000	n/a	952980	RewardB3	6554	n/a	n/a	1
960.5960000000	n/a	960596	RewardCorrB3	1000	n/a	n/a	1
962.5960000000	n/a	962596	STATUS	1700	n/a	n/a	1
964.2960000000	n/a	964296	RewardB3	4516	n/a	n/a	1
969.8800000000	n/a	969880	RewardCorrB3	1000	n/a	n/a	1
971.8800000000	n/a	971880	STATUS	1700	n/a	n/a	1
973.5800000000	n/a	973580	RewardB3	6476	n/a	n/a	1
981.1300000000	n/a	981130	RewardCorrB3	1000	n/a	n/a	1
983.1300000000	n/a	983130	STATUS	1700	n/a	n/a	1
984.8300000000	n/a	984830	PenaltyB3	4110	n/a	n/a	1
990.0130000000	n/a	990013	PunCorrB3	1000	n/a	n/a	1
992.0130000000	n/a	992013	STATUS	1700	n/a	n/a	1
993.7130000000	n/a	993713	RewardB3	5079	n/a	n/a	1
999.8630000000	n/a	999863	RewardCorrB3	1000	n/a	n/a	1
1001.8630000000	n/a	1001863	STATUS	1700	n/a	n/a	1
1003.5630000000	n/a	1003563	PenaltyB3	3872	n/a	n/a	1
1008.5130000000	n/a	1008513	NeuCorrB3	1000	n/a	n/a	1
1010.5130000000	n/a	1010513	STATUS	1700	n/a	n/a	1
1012.2130000000	n/a	1012213	RewardB3	2946	n/a	n/a	1
1016.2290000000	n/a	1016229	RewardCorrB3	1000	n/a	n/a	1
1018.2300000000	n/a	1018230	STATUS	1700	n/a	n/a	1
1019.9290000000	n/a	1019929	RewardB3	5508	n/a	n/a	1
1026.5130000000	n/a	1026513	RewardCorrB3	1000	n/a	n/a	1
1028.5130000000	n/a	1028513	STATUS	1700	n/a	n/a	1
1030.2130000000	n/a	1030213	RewardB3	5512	n/a	n/a	1
1036.7960000000	n/a	1036796	NeuCorrB3	1000	n/a	n/a	1
1038.7960000000	n/a	1038796	STATUS	1700	n/a	n/a	1
1040.4960000000	n/a	1040496	RewardB3	3065	n/a	n/a	1
1044.6290000000	n/a	1044629	RewardCorrB3	1000	n/a	n/a	1
1046.6290000000	n/a	1046629	STATUS	1700	n/a	n/a	1
1048.3290000000	n/a	1048329	RewardB3	2454	n/a	n/a	1
1051.8460000000	n/a	1051846	RewardCorrB3	1000	n/a	n/a	1
1053.8460000000	n/a	1053846	STATUS	1700	n/a	n/a	1
1055.5460000000	n/a	1055546	PenaltyB3	4582	n/a	n/a	1
1061.1960000000	n/a	1061196	NeuCorrB3	1000	n/a	n/a	1
1063.1960000000	n/a	1063196	STATUS	1700	n/a	n/a	1
1064.8960000000	n/a	1064896	RewardB3	2476	n/a	n/a	1
1068.4460000000	n/a	1068446	NeuCorrB3	1000	n/a	n/a	1
1070.4460000000	n/a	1070446	STATUS	1700	n/a	n/a	1
1072.1460000000	n/a	1072146	PenaltyB3	4403	n/a	n/a	1
1077.6130000000	n/a	1077613	NeuCorrB3	1000	n/a	n/a	1
1079.6130000000	n/a	1079613	STATUS	1700	n/a	n/a	1
1081.3130000000	n/a	1081313	PenaltyB3	3600	n/a	n/a	1
1085.9790000000	n/a	1085979	NeuCorrB3	1000	n/a	n/a	1
1087.9790000000	n/a	1087979	STATUS	1700	n/a	n/a	1
1089.6790000000	n/a	1089679	RewardB3	2544	n/a	n/a	1
1093.2960000000	n/a	1093296	RewardCorrB3	1000	n/a	n/a	1
1095.2960000000	n/a	1095296	STATUS	1700	n/a	n/a	1
1096.9960000000	n/a	1096996	PenaltyB3	3101	n/a	n/a	1
1101.1630000000	n/a	1101163	NeuCorrB3	1000	n/a	n/a	1
1103.1630000000	n/a	1103163	STATUS	1700	n/a	n/a	1
1104.8630000000	n/a	1104863	RewardB3	2108	n/a	n/a	1
1108.0460000000	n/a	1108046	NeuCorrB3	1000	n/a	n/a	1
1110.0460000000	n/a	1110046	STATUS	1700	n/a	n/a	1
1111.7460000000	n/a	1111746	PenaltyB3	3283	n/a	n/a	1
1116.0960000000	n/a	1116096	NeuCorrB3	1000	n/a	n/a	1
1118.0960000000	n/a	1118096	STATUS	1700	n/a	n/a	1
1119.7960000000	n/a	1119796	RewardB3	6572	n/a	n/a	1
1127.4460000000	n/a	1127446	RewardCorrB3	1000	n/a	n/a	1
1129.4460000000	n/a	1129446	STATUS	1700	n/a	n/a	1
1131.1460000000	n/a	1131146	PenaltyB3	2826	n/a	n/a	1
1135.0460000000	n/a	1135046	PunCorrB3	1000	n/a	n/a	1
1137.0460000000	n/a	1137046	STATUS	1700	n/a	n/a	1
1138.7460000000	n/a	1138746	PenaltyB3	4271	n/a	n/a	1
1144.0960000000	n/a	1144096	NeuCorrB3	1000	n/a	n/a	1
1146.0960000000	n/a	1146096	STATUS	1700	n/a	n/a	1
1147.7960000000	n/a	1147796	PenaltyB3	4071	n/a	n/a	1
1152.9290000000	n/a	1152929	NeuCorrB3	1000	n/a	n/a	1
1154.9290000000	n/a	1154929	STATUS	1700	n/a	n/a	1
1156.6290000000	n/a	1156629	PenaltyB3	4220	n/a	n/a	1
1161.9130000000	n/a	1161913	NeuCorrB3	1000	n/a	n/a	1
1163.9130000000	n/a	1163913	STATUS	1700	n/a	n/a	1
1165.6130000000	n/a	1165613	RewardB3	5932	n/a	n/a	1
1172.6130000000	n/a	1172613	RewardCorrB3	1000	n/a	n/a	1
1174.6130000000	n/a	1174613	STATUS	1700	n/a	n/a	1
1176.3130000000	n/a	1176313	RewardB3	2095	n/a	n/a	1
1179.4790000000	n/a	1179479	RewardCorrB3	1000	n/a	n/a	1
1181.4790000000	n/a	1181479	STATUS	1700	n/a	n/a	1
1183.1790000000	n/a	1183179	PenaltyB3	3829	n/a	n/a	1
1188.0790000000	n/a	1188079	NeuCorrB3	1000	n/a	n/a	1
1190.0790000000	n/a	1190079	STATUS	1700	n/a	n/a	1
1191.7790000000	n/a	1191779	PenaltyB3	4497	n/a	n/a	1
1197.3460000000	n/a	1197346	NeuCorrB3	1000	n/a	n/a	1
1199.3460000000	n/a	1199346	STATUS	1700	n/a	n/a	1
1201.0460000000	n/a	1201046	PenaltyB3	4277	n/a	n/a	1
1206.3960000000	n/a	1206396	NeuCorrB3	1000	n/a	n/a	1
1208.3960000000	n/a	1208396	STATUS	1700	n/a	n/a	1
1212.9790000000	n/a	1212979	RewardB4	2582	n/a	n/a	1
1216.6290000000	n/a	1216629	RewardCorrB4	1000	n/a	n/a	1
1218.6290000000	n/a	1218629	STATUS	1700	n/a	n/a	1
1220.3290000000	n/a	1220329	PenaltyB4	3765	n/a	n/a	1
1225.1620000000	n/a	1225162	PunCorrB4	1000	n/a	n/a	1
1227.1630000000	n/a	1227163	STATUS	1700	n/a	n/a	1
1228.8620000000	n/a	1228862	RewardB4	7457	n/a	n/a	1
1237.3960000000	n/a	1237396	RewardCorrB4	1000	n/a	n/a	1
1239.3960000000	n/a	1239396	STATUS	1700	n/a	n/a	1
1241.0960000000	n/a	1241096	PenaltyB4	3952	n/a	n/a	1
1246.1120000000	n/a	1246112	NeuCorrB4	1000	n/a	n/a	1
1248.1120000000	n/a	1248112	STATUS	1700	n/a	n/a	1
1249.8120000000	n/a	1249812	RewardB4	2494	n/a	n/a	1
1253.3790000000	n/a	1253379	RewardCorrB4	1000	n/a	n/a	1
1255.3790000000	n/a	1255379	STATUS	1700	n/a	n/a	1
1257.0790000000	n/a	1257079	PenaltyB4	3979	n/a	n/a	1
1262.1290000000	n/a	1262129	PunCorrB4	1000	n/a	n/a	1
1264.1290000000	n/a	1264129	STATUS	1700	n/a	n/a	1
1265.8290000000	n/a	1265829	PenaltyB4	4405	n/a	n/a	1
1271.3120000000	n/a	1271312	NeuCorrB4	1000	n/a	n/a	1
1273.3120000000	n/a	1273312	STATUS	1700	n/a	n/a	1
1275.0120000000	n/a	1275012	RewardB4	5437	n/a	n/a	1
1281.5120000000	n/a	1281512	RewardCorrB4	1000	n/a	n/a	1
1283.5120000000	n/a	1283512	STATUS	1700	n/a	n/a	1
1285.2120000000	n/a	1285212	PenaltyB4	3798	n/a	n/a	1
1290.0790000000	n/a	1290079	NeuCorrB4	1000	n/a	n/a	1
1292.0790000000	n/a	1292079	STATUS	1700	n/a	n/a	1
1293.7790000000	n/a	1293779	RewardB4	2254	n/a	n/a	1
1297.0960000000	n/a	1297096	NeuCorrB4	1000	n/a	n/a	1
1299.0960000000	n/a	1299096	STATUS	1700	n/a	n/a	1
1300.7960000000	n/a	1300796	PenaltyB4	4452	n/a	n/a	1
1306.3120000000	n/a	1306312	NeuCorrB4	1000	n/a	n/a	1
1308.3120000000	n/a	1308312	STATUS	1700	n/a	n/a	1
1310.0120000000	n/a	1310012	RewardB4	5289	n/a	n/a	1
1316.3790000000	n/a	1316379	RewardCorrB4	1000	n/a	n/a	1
1318.3790000000	n/a	1318379	STATUS	1700	n/a	n/a	1
1320.0790000000	n/a	1320079	PenaltyB4	5084	n/a	n/a	1
1326.2290000000	n/a	1326229	NeuCorrB4	1000	n/a	n/a	1
1328.2290000000	n/a	1328229	STATUS	1700	n/a	n/a	1
1329.9290000000	n/a	1329929	PenaltyB4	4406	n/a	n/a	1
1335.4120000000	n/a	1335412	NeuCorrB4	1000	n/a	n/a	1
1337.4120000000	n/a	1337412	STATUS	1700	n/a	n/a	1
1339.1120000000	n/a	1339112	RewardB4	1285	n/a	n/a	1
1341.4620000000	n/a	1341462	RewardCorrB4	1000	n/a	n/a	1
1343.4620000000	n/a	1343462	STATUS	1700	n/a	n/a	1
1345.1620000000	n/a	1345162	RewardB4	3070	n/a	n/a	1
1349.2960000000	n/a	1349296	NeuCorrB4	1000	n/a	n/a	1
1351.2960000000	n/a	1351296	STATUS	1700	n/a	n/a	1
1352.9960000000	n/a	1352996	RewardB4	4814	n/a	n/a	1
1358.8790000000	n/a	1358879	RewardCorrB4	1000	n/a	n/a	1
1360.8790000000	n/a	1360879	STATUS	1700	n/a	n/a	1
1362.5790000000	n/a	1362579	PenaltyB4	4831	n/a	n/a	1
1368.4790000000	n/a	1368479	NeuCorrB4	1000	n/a	n/a	1
1370.4790000000	n/a	1370479	STATUS	1700	n/a	n/a	1
1372.1790000000	n/a	1372179	PenaltyB4	4346	n/a	n/a	1
1377.5960000000	n/a	1377596	NeuCorrB4	1000	n/a	n/a	1
1379.5960000000	n/a	1379596	STATUS	1700	n/a	n/a	1
1381.2960000000	n/a	1381296	PenaltyB4	3700	n/a	n/a	1
1386.0620000000	n/a	1386062	PunCorrB4	1000	n/a	n/a	1
1388.0620000000	n/a	1388062	STATUS	1700	n/a	n/a	1
1389.7620000000	n/a	1389762	RewardB4	2682	n/a	n/a	1
1393.5120000000	n/a	1393512	RewardCorrB4	1000	n/a	n/a	1
1395.5120000000	n/a	1395512	STATUS	1700	n/a	n/a	1
1397.2120000000	n/a	1397212	PenaltyB4	5417	n/a	n/a	1
1403.6960000000	n/a	1403696	NeuCorrB4	1000	n/a	n/a	1
1405.6960000000	n/a	1405696	STATUS	1700	n/a	n/a	1
1407.3960000000	n/a	1407396	RewardB4	5999	n/a	n/a	1
1414.4620000000	n/a	1414462	RewardCorrB4	1000	n/a	n/a	1
1416.4620000000	n/a	1416462	STATUS	1700	n/a	n/a	1
1418.1620000000	n/a	1418162	PenaltyB4	4263	n/a	n/a	1
1423.4950000000	n/a	1423495	NeuCorrB4	1000	n/a	n/a	1
1425.4960000000	n/a	1425496	STATUS	1700	n/a	n/a	1
1427.1950000000	n/a	1427195	RewardB4	8807	n/a	n/a	1
1437.0790000000	n/a	1437079	NeuCorrB4	1000	n/a	n/a	1
1439.0790000000	n/a	1439079	STATUS	1700	n/a	n/a	1
1440.7790000000	n/a	1440779	PenaltyB4	4860	n/a	n/a	1
1446.7120000000	n/a	1446712	NeuCorrB4	1000	n/a	n/a	1
1448.7120000000	n/a	1448712	STATUS	1700	n/a	n/a	1
1450.4120000000	n/a	1450412	RewardB4	5404	n/a	n/a	1
1456.8790000000	n/a	1456879	RewardCorrB4	1000	n/a	n/a	1
1458.8790000000	n/a	1458879	STATUS	1700	n/a	n/a	1
1460.5790000000	n/a	1460579	PenaltyB4	3473	n/a	n/a	1
1465.1290000000	n/a	1465129	NeuCorrB4	1000	n/a	n/a	1
1467.1290000000	n/a	1467129	STATUS	1700	n/a	n/a	1
1468.8290000000	n/a	1468829	RewardB4	1736	n/a	n/a	1
1471.6290000000	n/a	1471629	RewardCorrB4	1000	n/a	n/a	1
1473.6290000000	n/a	1473629	STATUS	1700	n/a	n/a	1
1475.3290000000	n/a	1475329	PenaltyB4	2975	n/a	n/a	1
1479.3790000000	n/a	1479379	PunCorrB4	1000	n/a	n/a	1
1481.3790000000	n/a	1481379	STATUS	1700	n/a	n/a	1
1483.0790000000	n/a	1483079	RewardB4	1849	n/a	n/a	1
1485.9950000000	n/a	1485995	RewardCorrB4	1000	n/a	n/a	1
1487.9950000000	n/a	1487995	STATUS	1700	n/a	n/a	1
1489.6950000000	n/a	1489695	PenaltyB4	5138	n/a	n/a	1
1495.8950000000	n/a	1495895	NeuCorrB4	1000	n/a	n/a	1
1497.8950000000	n/a	1497895	STATUS	1700	n/a	n/a	1
1499.5950000000	n/a	1499595	RewardB4	5444	n/a	n/a	1
1506.1120000000	n/a	1506112	RewardCorrB4	1000	n/a	n/a	1
1508.1120000000	n/a	1508112	STATUS	1700	n/a	n/a	1
1509.8120000000	n/a	1509812	PenaltyB4	4116	n/a	n/a	1
1514.9950000000	n/a	1514995	NeuCorrB4	1000	n/a	n/a	1
1516.9950000000	n/a	1516995	STATUS	1700	n/a	n/a	1
1518.6950000000	n/a	1518695	RewardB4	6244	n/a	n/a	1
1526.0120000000	n/a	1526012	RewardCorrB4	1000	n/a	n/a	1
1528.0120000000	n/a	1528012	STATUS	1700	n/a	n/a	1
1529.7120000000	n/a	1529712	PenaltyB4	4932	n/a	n/a	1
1535.7120000000	n/a	1535712	NeuCorrB4	1000	n/a	n/a	1
1537.7120000000	n/a	1537712	STATUS	1700	n/a	n/a	1
1539.4120000000	n/a	1539412	RewardB4	6144	n/a	n/a	1
1546.6290000000	n/a	1546629	NeuCorrB4	1000	n/a	n/a	1
1548.6290000000	n/a	1548629	STATUS	1700	n/a	n/a	1
1550.3290000000	n/a	1550329	RewardB4	1663	n/a	n/a	1
1553.0620000000	n/a	1553062	RewardCorrB4	1000	n/a	n/a	1
1555.0620000000	n/a	1555062	STATUS	1700	n/a	n/a	1
1556.7620000000	n/a	1556762	PenaltyB4	4006	n/a	n/a	1
1561.8450000000	n/a	1561845	NeuCorrB4	1000	n/a	n/a	1
1563.8450000000	n/a	1563845	STATUS	1700	n/a	n/a	1
1565.5450000000	n/a	1565545	RewardB4	1831	n/a	n/a	1
1568.4450000000	n/a	1568445	RewardCorrB4	1000	n/a	n/a	1
1570.4450000000	n/a	1570445	STATUS	1700	n/a	n/a	1
1576.9290000000	n/a	1576929	STATUS	1700	n/a	n/a	1
