onset	duration	sample	trial_type	response_time	stim_file	value	correct
1.2790000000	n/a	1279	FrequentFixedSOA	1633	n/a	n/a	1
2.9120000000	n/a	2912	FrequentFixedSOA	1633	n/a	n/a	1
4.5460000000	n/a	4546	FrequentFixedSOA	1633	n/a	n/a	1
6.1790000000	n/a	6179	FrequentFixedSOA	1633	n/a	n/a	1
7.8120000000	n/a	7812	FrequentFixedSOA	1633	n/a	n/a	1
9.4460000000	n/a	9446	FrequentFixedSOA	1633	n/a	n/a	1
11.0790000000	n/a	11079	FrequentFixedSOA	1633	n/a	n/a	1
12.7120000000	n/a	12712	FrequentFixedSOA	1633	n/a	n/a	1
14.3460000000	n/a	14346	FrequentFixedSOA	1633	n/a	n/a	1
15.9790000000	n/a	15979	NovelFixedSOA	1633	n/a	n/a	1
17.6120000000	n/a	17612	FrequentFixedSOA	1633	n/a	n/a	1
19.2460000000	n/a	19246	GoFixedSOA	339	n/a	n/a	1
20.8790000000	n/a	20879	FrequentFixedSOA	1633	n/a	n/a	1
22.5120000000	n/a	22512	FrequentFixedSOA	1633	n/a	n/a	1
24.1460000000	n/a	24146	FrequentFixedSOA	1633	n/a	n/a	1
25.7790000000	n/a	25779	GoFixedSOA	287	n/a	n/a	1
27.4120000000	n/a	27412	FrequentFixedSOA	1633	n/a	n/a	1
29.0460000000	n/a	29046	FrequentFixedSOA	1633	n/a	n/a	1
30.6790000000	n/a	30679	FrequentFixedSOA	1633	n/a	n/a	1
32.3120000000	n/a	32312	NovelFixedSOA	1633	n/a	n/a	1
33.9460000000	n/a	33946	FrequentFixedSOA	1633	n/a	n/a	1
35.5790000000	n/a	35579	FrequentFixedSOA	1633	n/a	n/a	1
37.2120000000	n/a	37212	FrequentFixedSOA	1633	n/a	n/a	1
38.8460000000	n/a	38846	GoFixedSOA	317	n/a	n/a	1
40.4790000000	n/a	40479	FrequentFixedSOA	1633	n/a	n/a	1
42.1120000000	n/a	42112	NovelFixedSOA	1633	n/a	n/a	1
43.7460000000	n/a	43746	FrequentFixedSOA	1633	n/a	n/a	1
45.3790000000	n/a	45379	FrequentFixedSOA	1633	n/a	n/a	1
47.0120000000	n/a	47012	FrequentFixedSOA	1633	n/a	n/a	1
48.6460000000	n/a	48646	GoFixedSOA	370	n/a	n/a	1
50.2790000000	n/a	50279	FrequentFixedSOA	1633	n/a	n/a	1
51.9120000000	n/a	51912	GoFixedSOA	413	n/a	n/a	1
53.5460000000	n/a	53546	FrequentFixedSOA	1633	n/a	n/a	1
55.1790000000	n/a	55179	FrequentFixedSOA	1633	n/a	n/a	1
56.8120000000	n/a	56812	GoFixedSOA	357	n/a	n/a	1
58.4460000000	n/a	58446	FrequentFixedSOA	1633	n/a	n/a	1
60.0790000000	n/a	60079	FrequentFixedSOA	1633	n/a	n/a	1
61.7120000000	n/a	61712	FrequentFixedSOA	1633	n/a	n/a	1
63.3460000000	n/a	63346	FrequentFixedSOA	1633	n/a	n/a	1
64.9790000000	n/a	64979	NovelFixedSOA	1633	n/a	n/a	1
66.6120000000	n/a	66612	FrequentFixedSOA	1633	n/a	n/a	1
68.2460000000	n/a	68246	NovelFixedSOA	1633	n/a	n/a	1
69.8790000000	n/a	69879	FrequentFixedSOA	1633	n/a	n/a	1
71.5120000000	n/a	71512	FrequentFixedSOA	1633	n/a	n/a	1
73.1460000000	n/a	73146	GoFixedSOA	354	n/a	n/a	1
74.7790000000	n/a	74779	FrequentFixedSOA	1633	n/a	n/a	1
76.4120000000	n/a	76412	FrequentFixedSOA	1633	n/a	n/a	1
78.0460000000	n/a	78046	FrequentFixedSOA	1633	n/a	n/a	1
79.6790000000	n/a	79679	FrequentFixedSOA	1633	n/a	n/a	1
81.3120000000	n/a	81312	NovelFixedSOA	1633	n/a	n/a	1
82.9460000000	n/a	82946	FrequentFixedSOA	1633	n/a	n/a	1
84.5790000000	n/a	84579	FrequentFixedSOA	1633	n/a	n/a	1
86.2120000000	n/a	86212	FrequentFixedSOA	1633	n/a	n/a	1
87.8460000000	n/a	87846	FrequentFixedSOA	1633	n/a	n/a	1
89.4790000000	n/a	89479	GoFixedSOA	408	n/a	n/a	1
91.1120000000	n/a	91112	FrequentFixedSOA	1633	n/a	n/a	1
92.7460000000	n/a	92746	FrequentFixedSOA	1633	n/a	n/a	1
94.3790000000	n/a	94379	NovelFixedSOA	1633	n/a	n/a	1
96.0120000000	n/a	96012	FrequentFixedSOA	1633	n/a	n/a	1
97.6460000000	n/a	97646	FrequentFixedSOA	1633	n/a	n/a	1
99.2790000000	n/a	99279	GoFixedSOA	1633	n/a	n/a	0
100.9120000000	n/a	100912	FrequentFixedSOA	1633	n/a	n/a	1
102.5460000000	n/a	102546	FrequentFixedSOA	1633	n/a	n/a	1
104.1790000000	n/a	104179	FrequentFixedSOA	1633	n/a	n/a	1
105.8120000000	n/a	105812	FrequentFixedSOA	1633	n/a	n/a	1
107.4460000000	n/a	107446	NovelFixedSOA	1633	n/a	n/a	1
109.0790000000	n/a	109079	FrequentFixedSOA	1633	n/a	n/a	1
110.7120000000	n/a	110712	FrequentFixedSOA	1633	n/a	n/a	1
112.3460000000	n/a	112346	GoFixedSOA	280	n/a	n/a	1
113.9790000000	n/a	113979	FrequentVariableSOA	1800	n/a	n/a	1
115.7790000000	n/a	115779	FrequentVariableSOA	1500	n/a	n/a	1
117.2790000000	n/a	117279	FrequentVariableSOA	1666	n/a	n/a	1
118.9460000000	n/a	118946	FrequentVariableSOA	1566	n/a	n/a	1
120.5120000000	n/a	120512	FrequentVariableSOA	1516	n/a	n/a	1
122.0290000000	n/a	122029	FrequentVariableSOA	1783	n/a	n/a	1
123.8120000000	n/a	123812	FrequentVariableSOA	1566	n/a	n/a	1
125.3790000000	n/a	125379	FrequentVariableSOA	1550	n/a	n/a	1
126.9290000000	n/a	126929	FrequentVariableSOA	1533	n/a	n/a	1
128.4620000000	n/a	128462	FrequentVariableSOA	1683	n/a	n/a	1
130.1450000000	n/a	130145	NovelVariableSOA	1616	n/a	n/a	1
131.7620000000	n/a	131762	FrequentVariableSOA	1650	n/a	n/a	1
133.4120000000	n/a	133412	GoVariableSOA	371	n/a	n/a	1
135.1790000000	n/a	135179	FrequentVariableSOA	1500	n/a	n/a	1
136.6790000000	n/a	136679	FrequentVariableSOA	1783	n/a	n/a	1
138.4620000000	n/a	138462	FrequentVariableSOA	1500	n/a	n/a	1
139.9620000000	n/a	139962	GoVariableSOA	375	n/a	n/a	1
141.5450000000	n/a	141545	FrequentVariableSOA	1800	n/a	n/a	1
143.3450000000	n/a	143345	FrequentVariableSOA	1616	n/a	n/a	1
144.9620000000	n/a	144962	FrequentVariableSOA	1516	n/a	n/a	1
146.4790000000	n/a	146479	NovelVariableSOA	1750	n/a	n/a	1
148.2290000000	n/a	148229	FrequentVariableSOA	1750	n/a	n/a	1
149.9790000000	n/a	149979	FrequentVariableSOA	1650	n/a	n/a	1
151.6290000000	n/a	151629	FrequentVariableSOA	1683	n/a	n/a	1
153.3120000000	n/a	153312	GoVariableSOA	320	n/a	n/a	1
154.9620000000	n/a	154962	FrequentVariableSOA	1750	n/a	n/a	1
156.7120000000	n/a	156712	NovelVariableSOA	1550	n/a	n/a	1
158.2620000000	n/a	158262	FrequentVariableSOA	1733	n/a	n/a	1
159.9950000000	n/a	159995	FrequentVariableSOA	1733	n/a	n/a	1
161.7290000000	n/a	161729	FrequentVariableSOA	1766	n/a	n/a	1
163.4950000000	n/a	163495	GoVariableSOA	1783	n/a	n/a	0
165.2790000000	n/a	165279	FrequentVariableSOA	1666	n/a	n/a	1
166.9450000000	n/a	166945	GoVariableSOA	1666	n/a	n/a	0
168.6120000000	n/a	168612	FrequentVariableSOA	1683	n/a	n/a	1
170.2950000000	n/a	170295	FrequentVariableSOA	1600	n/a	n/a	1
171.8950000000	n/a	171895	GoVariableSOA	356	n/a	n/a	1
173.6620000000	n/a	173662	FrequentVariableSOA	1583	n/a	n/a	1
175.2450000000	n/a	175245	FrequentVariableSOA	1716	n/a	n/a	1
176.9620000000	n/a	176962	FrequentVariableSOA	1666	n/a	n/a	1
178.6290000000	n/a	178629	FrequentVariableSOA	1583	n/a	n/a	1
180.2120000000	n/a	180212	NovelVariableSOA	1783	n/a	n/a	1
181.9950000000	n/a	181995	FrequentVariableSOA	1683	n/a	n/a	1
183.6790000000	n/a	183679	NovelVariableSOA	1550	n/a	n/a	1
185.2290000000	n/a	185229	FrequentVariableSOA	1666	n/a	n/a	1
186.8950000000	n/a	186895	FrequentVariableSOA	1650	n/a	n/a	1
188.5450000000	n/a	188545	GoVariableSOA	425	n/a	n/a	1
190.1450000000	n/a	190145	FrequentVariableSOA	1716	n/a	n/a	1
191.8620000000	n/a	191862	FrequentVariableSOA	1600	n/a	n/a	1
193.4620000000	n/a	193462	FrequentVariableSOA	1766	n/a	n/a	1
195.2290000000	n/a	195229	FrequentVariableSOA	1550	n/a	n/a	1
196.7790000000	n/a	196779	NovelVariableSOA	1633	n/a	n/a	1
198.4120000000	n/a	198412	FrequentVariableSOA	1633	n/a	n/a	1
200.0450000000	n/a	200045	FrequentVariableSOA	1566	n/a	n/a	1
201.6120000000	n/a	201612	FrequentVariableSOA	1550	n/a	n/a	1
203.1620000000	n/a	203162	FrequentVariableSOA	1800	n/a	n/a	1
204.9620000000	n/a	204962	GoVariableSOA	1733	n/a	n/a	0
206.6950000000	n/a	206695	FrequentVariableSOA	1616	n/a	n/a	1
208.3120000000	n/a	208312	FrequentVariableSOA	1616	n/a	n/a	1
209.9290000000	n/a	209929	NovelVariableSOA	1733	n/a	n/a	1
211.6620000000	n/a	211662	FrequentVariableSOA	1600	n/a	n/a	1
213.2620000000	n/a	213262	FrequentVariableSOA	1800	n/a	n/a	1
215.0620000000	n/a	215062	GoVariableSOA	305	n/a	n/a	1
216.5790000000	n/a	216579	FrequentVariableSOA	1516	n/a	n/a	1
218.0950000000	n/a	218095	FrequentVariableSOA	1650	n/a	n/a	1
219.7450000000	n/a	219745	FrequentVariableSOA	1683	n/a	n/a	1
221.4290000000	n/a	221429	FrequentVariableSOA	1566	n/a	n/a	1
222.9950000000	n/a	222995	NovelVariableSOA	1600	n/a	n/a	1
224.5950000000	n/a	224595	FrequentVariableSOA	1783	n/a	n/a	1
226.3790000000	n/a	226379	FrequentVariableSOA	1633	n/a	n/a	1
228.0120000000	n/a	228012	GoVariableSOA	346	n/a	n/a	1
229.8120000000	n/a	229812	FrequentFixedSOA	1633	n/a	n/a	1
231.4450000000	n/a	231445	FrequentFixedSOA	1633	n/a	n/a	1
233.0790000000	n/a	233079	FrequentFixedSOA	1633	n/a	n/a	1
234.7120000000	n/a	234712	GoFixedSOA	362	n/a	n/a	1
236.3450000000	n/a	236345	FrequentFixedSOA	1633	n/a	n/a	1
237.9790000000	n/a	237979	FrequentFixedSOA	1633	n/a	n/a	1
239.6120000000	n/a	239612	FrequentFixedSOA	1633	n/a	n/a	1
241.2450000000	n/a	241245	GoFixedSOA	1633	n/a	n/a	0
242.8790000000	n/a	242879	FrequentFixedSOA	1633	n/a	n/a	1
244.5120000000	n/a	244512	FrequentFixedSOA	1633	n/a	n/a	1
246.1450000000	n/a	246145	FrequentFixedSOA	1633	n/a	n/a	1
247.7790000000	n/a	247779	NovelFixedSOA	1633	n/a	n/a	1
249.4120000000	n/a	249412	FrequentFixedSOA	1633	n/a	n/a	1
251.0450000000	n/a	251045	NovelFixedSOA	1633	n/a	n/a	1
252.6790000000	n/a	252679	FrequentFixedSOA	1633	n/a	n/a	1
254.3120000000	n/a	254312	FrequentFixedSOA	1633	n/a	n/a	1
255.9450000000	n/a	255945	NovelFixedSOA	1633	n/a	n/a	1
257.5790000000	n/a	257579	FrequentFixedSOA	1633	n/a	n/a	1
259.2120000000	n/a	259212	FrequentFixedSOA	1633	n/a	n/a	1
260.8450000000	n/a	260845	FrequentFixedSOA	1633	n/a	n/a	1
262.4790000000	n/a	262479	FrequentFixedSOA	1633	n/a	n/a	1
264.1120000000	n/a	264112	FrequentFixedSOA	1633	n/a	n/a	1
265.7450000000	n/a	265745	NovelFixedSOA	1633	n/a	n/a	1
267.3790000000	n/a	267379	FrequentFixedSOA	1633	n/a	n/a	1
269.0120000000	n/a	269012	FrequentFixedSOA	1633	n/a	n/a	1
270.6450000000	n/a	270645	FrequentFixedSOA	1633	n/a	n/a	1
272.2790000000	n/a	272279	FrequentFixedSOA	1633	n/a	n/a	1
273.9120000000	n/a	273912	FrequentFixedSOA	1633	n/a	n/a	1
275.5450000000	n/a	275545	GoFixedSOA	341	n/a	n/a	1
277.1790000000	n/a	277179	FrequentFixedSOA	1633	n/a	n/a	1
278.8120000000	n/a	278812	FrequentFixedSOA	1633	n/a	n/a	1
280.4450000000	n/a	280445	GoFixedSOA	341	n/a	n/a	1
282.0790000000	n/a	282079	FrequentFixedSOA	1633	n/a	n/a	1
283.7120000000	n/a	283712	NovelFixedSOA	1633	n/a	n/a	1
285.3450000000	n/a	285345	FrequentFixedSOA	1633	n/a	n/a	1
286.9790000000	n/a	286979	GoFixedSOA	330	n/a	n/a	1
288.6120000000	n/a	288612	FrequentFixedSOA	1633	n/a	n/a	1
290.2450000000	n/a	290245	GoFixedSOA	429	n/a	n/a	1
291.8790000000	n/a	291879	FrequentFixedSOA	1633	n/a	n/a	1
293.5120000000	n/a	293512	FrequentFixedSOA	1633	n/a	n/a	1
295.1450000000	n/a	295145	FrequentFixedSOA	1633	n/a	n/a	1
296.7790000000	n/a	296779	FrequentFixedSOA	1633	n/a	n/a	1
298.4120000000	n/a	298412	GoFixedSOA	290	n/a	n/a	1
300.0450000000	n/a	300045	FrequentFixedSOA	1633	n/a	n/a	1
301.6790000000	n/a	301679	FrequentFixedSOA	1633	n/a	n/a	1
303.3120000000	n/a	303312	FrequentFixedSOA	1633	n/a	n/a	1
304.9450000000	n/a	304945	NovelFixedSOA	1633	n/a	n/a	1
306.5790000000	n/a	306579	FrequentFixedSOA	1633	n/a	n/a	1
308.2120000000	n/a	308212	FrequentFixedSOA	1633	n/a	n/a	1
309.8450000000	n/a	309845	FrequentFixedSOA	1633	n/a	n/a	1
311.4790000000	n/a	311479	FrequentFixedSOA	1633	n/a	n/a	1
313.1120000000	n/a	313112	NovelFixedSOA	1633	n/a	n/a	1
314.7450000000	n/a	314745	FrequentFixedSOA	1633	n/a	n/a	1
316.3780000000	n/a	316378	FrequentFixedSOA	1633	n/a	n/a	1
318.0120000000	n/a	318012	FrequentFixedSOA	1633	n/a	n/a	1
319.6450000000	n/a	319645	FrequentFixedSOA	1633	n/a	n/a	1
321.2780000000	n/a	321278	NovelFixedSOA	1633	n/a	n/a	1
322.9120000000	n/a	322912	FrequentFixedSOA	1633	n/a	n/a	1
324.5450000000	n/a	324545	FrequentFixedSOA	1633	n/a	n/a	1
326.1780000000	n/a	326178	GoFixedSOA	325	n/a	n/a	1
327.8120000000	n/a	327812	FrequentFixedSOA	1633	n/a	n/a	1
329.4450000000	n/a	329445	FrequentFixedSOA	1633	n/a	n/a	1
331.0780000000	n/a	331078	FrequentFixedSOA	1633	n/a	n/a	1
332.7120000000	n/a	332712	FrequentFixedSOA	1633	n/a	n/a	1
334.3450000000	n/a	334345	NovelFixedSOA	1633	n/a	n/a	1
335.9780000000	n/a	335978	FrequentFixedSOA	1633	n/a	n/a	1
337.6120000000	n/a	337612	FrequentFixedSOA	1633	n/a	n/a	1
339.2450000000	n/a	339245	FrequentFixedSOA	1633	n/a	n/a	1
340.8780000000	n/a	340878	FrequentFixedSOA	1633	n/a	n/a	1
342.5120000000	n/a	342512	FrequentFixedSOA	1633	n/a	n/a	1
344.1450000000	n/a	344145	FrequentVariableSOA	1783	n/a	n/a	1
345.9280000000	n/a	345928	FrequentVariableSOA	1566	n/a	n/a	1
347.4950000000	n/a	347495	FrequentVariableSOA	1516	n/a	n/a	1
349.0120000000	n/a	349012	GoVariableSOA	302	n/a	n/a	1
350.6780000000	n/a	350678	FrequentVariableSOA	1616	n/a	n/a	1
352.2950000000	n/a	352295	FrequentVariableSOA	1783	n/a	n/a	1
354.0780000000	n/a	354078	FrequentVariableSOA	1750	n/a	n/a	1
355.8280000000	n/a	355828	GoVariableSOA	360	n/a	n/a	1
357.4280000000	n/a	357428	FrequentVariableSOA	1633	n/a	n/a	1
359.0620000000	n/a	359062	FrequentVariableSOA	1750	n/a	n/a	1
360.8120000000	n/a	360812	FrequentVariableSOA	1533	n/a	n/a	1
362.3450000000	n/a	362345	NovelVariableSOA	1650	n/a	n/a	1
363.9950000000	n/a	363995	FrequentVariableSOA	1700	n/a	n/a	1
365.6950000000	n/a	365695	NovelVariableSOA	1800	n/a	n/a	1
367.4950000000	n/a	367495	FrequentVariableSOA	1600	n/a	n/a	1
369.0950000000	n/a	369095	FrequentVariableSOA	1600	n/a	n/a	1
370.6950000000	n/a	370695	NovelVariableSOA	1650	n/a	n/a	1
372.3450000000	n/a	372345	FrequentVariableSOA	1700	n/a	n/a	1
374.0450000000	n/a	374045	FrequentVariableSOA	1733	n/a	n/a	1
375.7780000000	n/a	375778	FrequentVariableSOA	1500	n/a	n/a	1
377.2780000000	n/a	377278	FrequentVariableSOA	1733	n/a	n/a	1
379.0120000000	n/a	379012	FrequentVariableSOA	1766	n/a	n/a	1
380.7780000000	n/a	380778	NovelVariableSOA	1800	n/a	n/a	1
382.5780000000	n/a	382578	FrequentVariableSOA	1600	n/a	n/a	1
384.1780000000	n/a	384178	FrequentVariableSOA	1750	n/a	n/a	1
385.9280000000	n/a	385928	FrequentVariableSOA	1516	n/a	n/a	1
387.4450000000	n/a	387445	FrequentVariableSOA	1566	n/a	n/a	1
389.0120000000	n/a	389012	FrequentVariableSOA	1550	n/a	n/a	1
390.5620000000	n/a	390562	GoVariableSOA	323	n/a	n/a	1
392.0780000000	n/a	392078	FrequentVariableSOA	1766	n/a	n/a	1
393.8450000000	n/a	393845	FrequentVariableSOA	1600	n/a	n/a	1
395.4450000000	n/a	395445	GoVariableSOA	361	n/a	n/a	1
397.1950000000	n/a	397195	FrequentVariableSOA	1650	n/a	n/a	1
398.8450000000	n/a	398845	NovelVariableSOA	1783	n/a	n/a	1
400.6280000000	n/a	400628	FrequentVariableSOA	1716	n/a	n/a	1
402.3450000000	n/a	402345	GoVariableSOA	343	n/a	n/a	1
404.1120000000	n/a	404112	FrequentVariableSOA	1783	n/a	n/a	1
405.8950000000	n/a	405895	GoVariableSOA	338	n/a	n/a	1
407.4620000000	n/a	407462	FrequentVariableSOA	1633	n/a	n/a	1
409.0950000000	n/a	409095	FrequentVariableSOA	1583	n/a	n/a	1
410.6780000000	n/a	410678	FrequentVariableSOA	1533	n/a	n/a	1
412.2120000000	n/a	412212	FrequentVariableSOA	1716	n/a	n/a	1
413.9280000000	n/a	413928	GoVariableSOA	1750	n/a	n/a	0
415.6780000000	n/a	415678	FrequentVariableSOA	1766	n/a	n/a	1
417.4450000000	n/a	417445	FrequentVariableSOA	1633	n/a	n/a	1
419.0780000000	n/a	419078	FrequentVariableSOA	1666	n/a	n/a	1
420.7450000000	n/a	420745	NovelVariableSOA	1766	n/a	n/a	1
422.5120000000	n/a	422512	FrequentVariableSOA	1650	n/a	n/a	1
424.1620000000	n/a	424162	FrequentVariableSOA	1566	n/a	n/a	1
425.7280000000	n/a	425728	FrequentVariableSOA	1783	n/a	n/a	1
427.5120000000	n/a	427512	FrequentVariableSOA	1550	n/a	n/a	1
429.0620000000	n/a	429062	NovelVariableSOA	1600	n/a	n/a	1
430.6620000000	n/a	430662	FrequentVariableSOA	1666	n/a	n/a	1
432.3280000000	n/a	432328	FrequentVariableSOA	1750	n/a	n/a	1
434.0780000000	n/a	434078	FrequentVariableSOA	1766	n/a	n/a	1
435.8450000000	n/a	435845	FrequentVariableSOA	1650	n/a	n/a	1
437.4950000000	n/a	437495	NovelVariableSOA	1766	n/a	n/a	1
439.2620000000	n/a	439262	FrequentVariableSOA	1650	n/a	n/a	1
440.9120000000	n/a	440912	FrequentVariableSOA	1750	n/a	n/a	1
442.6620000000	n/a	442662	GoVariableSOA	1500	n/a	n/a	0
444.1620000000	n/a	444162	FrequentVariableSOA	1766	n/a	n/a	1
445.9280000000	n/a	445928	FrequentVariableSOA	1766	n/a	n/a	1
447.6950000000	n/a	447695	FrequentVariableSOA	1716	n/a	n/a	1
449.4120000000	n/a	449412	FrequentVariableSOA	1566	n/a	n/a	1
450.9780000000	n/a	450978	NovelVariableSOA	1700	n/a	n/a	1
452.6780000000	n/a	452678	FrequentVariableSOA	1683	n/a	n/a	1
454.3620000000	n/a	454362	FrequentVariableSOA	1733	n/a	n/a	1
456.0950000000	n/a	456095	FrequentVariableSOA	1666	n/a	n/a	1
457.7620000000	n/a	457762	FrequentVariableSOA	1683	n/a	n/a	1
459.4450000000	n/a	459445	FrequentVariableSOA	1666	n/a	n/a	1
461.1120000000	n/a	461112	GoFixedSOA	1633	n/a	n/a	0
462.7450000000	n/a	462745	FrequentFixedSOA	1633	n/a	n/a	1
464.3780000000	n/a	464378	FrequentFixedSOA	1633	n/a	n/a	1
466.0120000000	n/a	466012	FrequentFixedSOA	1633	n/a	n/a	1
467.6450000000	n/a	467645	FrequentFixedSOA	1633	n/a	n/a	1
469.2780000000	n/a	469278	FrequentFixedSOA	1633	n/a	n/a	1
470.9120000000	n/a	470912	FrequentFixedSOA	1633	n/a	n/a	1
472.5450000000	n/a	472545	NovelFixedSOA	1633	n/a	n/a	1
474.1780000000	n/a	474178	FrequentFixedSOA	1633	n/a	n/a	1
475.8120000000	n/a	475812	FrequentFixedSOA	1633	n/a	n/a	1
477.4450000000	n/a	477445	FrequentFixedSOA	1633	n/a	n/a	1
479.0780000000	n/a	479078	NovelFixedSOA	1633	n/a	n/a	1
480.7120000000	n/a	480712	FrequentFixedSOA	1633	n/a	n/a	1
482.3450000000	n/a	482345	GoFixedSOA	521	n/a	n/a	1
483.9780000000	n/a	483978	FrequentFixedSOA	1633	n/a	n/a	1
485.6120000000	n/a	485612	FrequentFixedSOA	1633	n/a	n/a	1
487.2450000000	n/a	487245	GoFixedSOA	388	n/a	n/a	1
488.8780000000	n/a	488878	FrequentFixedSOA	1633	n/a	n/a	1
490.5120000000	n/a	490512	NovelFixedSOA	1633	n/a	n/a	1
492.1450000000	n/a	492145	FrequentFixedSOA	1633	n/a	n/a	1
493.7780000000	n/a	493778	FrequentFixedSOA	1633	n/a	n/a	1
495.4120000000	n/a	495412	FrequentFixedSOA	1633	n/a	n/a	1
497.0450000000	n/a	497045	FrequentFixedSOA	1633	n/a	n/a	1
498.6780000000	n/a	498678	FrequentFixedSOA	1633	n/a	n/a	1
500.3120000000	n/a	500312	GoFixedSOA	352	n/a	n/a	1
501.9450000000	n/a	501945	FrequentFixedSOA	1633	n/a	n/a	1
503.5780000000	n/a	503578	FrequentFixedSOA	1633	n/a	n/a	1
505.2120000000	n/a	505212	NovelFixedSOA	1633	n/a	n/a	1
506.8450000000	n/a	506845	FrequentFixedSOA	1633	n/a	n/a	1
508.4780000000	n/a	508478	FrequentFixedSOA	1633	n/a	n/a	1
510.1120000000	n/a	510112	FrequentFixedSOA	1633	n/a	n/a	1
511.7450000000	n/a	511745	FrequentFixedSOA	1633	n/a	n/a	1
513.3780000000	n/a	513378	FrequentFixedSOA	1633	n/a	n/a	1
515.0110000000	n/a	515011	NovelFixedSOA	1633	n/a	n/a	1
516.6450000000	n/a	516645	FrequentFixedSOA	1633	n/a	n/a	1
518.2780000000	n/a	518278	FrequentFixedSOA	1633	n/a	n/a	1
519.9110000000	n/a	519911	FrequentFixedSOA	1633	n/a	n/a	1
521.5450000000	n/a	521545	FrequentFixedSOA	1633	n/a	n/a	1
523.1780000000	n/a	523178	GoFixedSOA	369	n/a	n/a	1
524.8110000000	n/a	524811	FrequentFixedSOA	1633	n/a	n/a	1
526.4450000000	n/a	526445	FrequentFixedSOA	1633	n/a	n/a	1
528.0780000000	n/a	528078	NovelFixedSOA	1633	n/a	n/a	1
529.7110000000	n/a	529711	FrequentFixedSOA	1633	n/a	n/a	1
531.3450000000	n/a	531345	FrequentFixedSOA	1633	n/a	n/a	1
532.9780000000	n/a	532978	NovelFixedSOA	1633	n/a	n/a	1
534.6110000000	n/a	534611	FrequentFixedSOA	1633	n/a	n/a	1
536.2450000000	n/a	536245	FrequentFixedSOA	1633	n/a	n/a	1
537.8780000000	n/a	537878	FrequentFixedSOA	1633	n/a	n/a	1
539.5110000000	n/a	539511	FrequentFixedSOA	1633	n/a	n/a	1
541.1450000000	n/a	541145	FrequentFixedSOA	1633	n/a	n/a	1
542.7780000000	n/a	542778	GoFixedSOA	1633	n/a	n/a	0
544.4110000000	n/a	544411	FrequentFixedSOA	1633	n/a	n/a	1
546.0450000000	n/a	546045	FrequentFixedSOA	1633	n/a	n/a	1
547.6780000000	n/a	547678	FrequentFixedSOA	1633	n/a	n/a	1
549.3110000000	n/a	549311	FrequentFixedSOA	1633	n/a	n/a	1
550.9450000000	n/a	550945	FrequentFixedSOA	1633	n/a	n/a	1
552.5780000000	n/a	552578	NovelFixedSOA	1633	n/a	n/a	1
554.2110000000	n/a	554211	FrequentFixedSOA	1633	n/a	n/a	1
555.8450000000	n/a	555845	GoFixedSOA	302	n/a	n/a	1
557.4780000000	n/a	557478	FrequentFixedSOA	1633	n/a	n/a	1
559.1110000000	n/a	559111	FrequentFixedSOA	1633	n/a	n/a	1
560.7450000000	n/a	560745	FrequentFixedSOA	1633	n/a	n/a	1
562.3780000000	n/a	562378	FrequentFixedSOA	1633	n/a	n/a	1
564.0110000000	n/a	564011	FrequentFixedSOA	1633	n/a	n/a	1
565.6450000000	n/a	565645	FrequentFixedSOA	1633	n/a	n/a	1
567.2780000000	n/a	567278	FrequentFixedSOA	1633	n/a	n/a	1
568.9110000000	n/a	568911	FrequentFixedSOA	1633	n/a	n/a	1
570.5450000000	n/a	570545	NovelFixedSOA	1633	n/a	n/a	1
572.1780000000	n/a	572178	FrequentFixedSOA	1633	n/a	n/a	1
573.8110000000	n/a	573811	FrequentFixedSOA	1633	n/a	n/a	1
575.4450000000	n/a	575445	GoVariableSOA	311	n/a	n/a	1
576.9780000000	n/a	576978	FrequentVariableSOA	1666	n/a	n/a	1
578.6450000000	n/a	578645	FrequentVariableSOA	1500	n/a	n/a	1
580.1450000000	n/a	580145	FrequentVariableSOA	1583	n/a	n/a	1
581.7280000000	n/a	581728	FrequentVariableSOA	1600	n/a	n/a	1
583.3280000000	n/a	583328	FrequentVariableSOA	1700	n/a	n/a	1
585.0280000000	n/a	585028	FrequentVariableSOA	1516	n/a	n/a	1
586.5450000000	n/a	586545	NovelVariableSOA	1700	n/a	n/a	1
588.2450000000	n/a	588245	FrequentVariableSOA	1700	n/a	n/a	1
589.9450000000	n/a	589945	FrequentVariableSOA	1650	n/a	n/a	1
591.5950000000	n/a	591595	FrequentVariableSOA	1683	n/a	n/a	1
593.2780000000	n/a	593278	NovelVariableSOA	1583	n/a	n/a	1
594.8610000000	n/a	594861	FrequentVariableSOA	1683	n/a	n/a	1
596.5450000000	n/a	596545	GoVariableSOA	370	n/a	n/a	1
598.1450000000	n/a	598145	FrequentVariableSOA	1533	n/a	n/a	1
599.6780000000	n/a	599678	FrequentVariableSOA	1583	n/a	n/a	1
601.2610000000	n/a	601261	GoVariableSOA	403	n/a	n/a	1
603.0110000000	n/a	603011	FrequentVariableSOA	1600	n/a	n/a	1
604.6110000000	n/a	604611	NovelVariableSOA	1566	n/a	n/a	1
606.1780000000	n/a	606178	FrequentVariableSOA	1566	n/a	n/a	1
607.7450000000	n/a	607745	FrequentVariableSOA	1666	n/a	n/a	1
609.4110000000	n/a	609411	FrequentVariableSOA	1733	n/a	n/a	1
611.1450000000	n/a	611145	FrequentVariableSOA	1800	n/a	n/a	1
612.9450000000	n/a	612945	FrequentVariableSOA	1733	n/a	n/a	1
614.6780000000	n/a	614678	GoVariableSOA	448	n/a	n/a	1
616.2780000000	n/a	616278	FrequentVariableSOA	1800	n/a	n/a	1
618.0780000000	n/a	618078	FrequentVariableSOA	1800	n/a	n/a	1
619.8780000000	n/a	619878	NovelVariableSOA	1666	n/a	n/a	1
621.5450000000	n/a	621545	FrequentVariableSOA	1650	n/a	n/a	1
623.1950000000	n/a	623195	FrequentVariableSOA	1733	n/a	n/a	1
624.9280000000	n/a	624928	FrequentVariableSOA	1733	n/a	n/a	1
626.6610000000	n/a	626661	FrequentVariableSOA	1766	n/a	n/a	1
628.4280000000	n/a	628428	FrequentVariableSOA	1616	n/a	n/a	1
630.0450000000	n/a	630045	NovelVariableSOA	1600	n/a	n/a	1
631.6450000000	n/a	631645	FrequentVariableSOA	1733	n/a	n/a	1
633.3780000000	n/a	633378	FrequentVariableSOA	1783	n/a	n/a	1
635.1610000000	n/a	635161	FrequentVariableSOA	1616	n/a	n/a	1
636.7780000000	n/a	636778	FrequentVariableSOA	1650	n/a	n/a	1
638.4280000000	n/a	638428	GoVariableSOA	380	n/a	n/a	1
640.0950000000	n/a	640095	FrequentVariableSOA	1633	n/a	n/a	1
641.7280000000	n/a	641728	FrequentVariableSOA	1666	n/a	n/a	1
643.3950000000	n/a	643395	NovelVariableSOA	1566	n/a	n/a	1
644.9610000000	n/a	644961	FrequentVariableSOA	1650	n/a	n/a	1
646.6110000000	n/a	646611	FrequentVariableSOA	1683	n/a	n/a	1
648.2950000000	n/a	648295	NovelVariableSOA	1733	n/a	n/a	1
650.0280000000	n/a	650028	FrequentVariableSOA	1666	n/a	n/a	1
651.6950000000	n/a	651695	FrequentVariableSOA	1616	n/a	n/a	1
653.3110000000	n/a	653311	FrequentVariableSOA	1733	n/a	n/a	1
655.0450000000	n/a	655045	FrequentVariableSOA	1516	n/a	n/a	1
656.5610000000	n/a	656561	FrequentVariableSOA	1666	n/a	n/a	1
658.2280000000	n/a	658228	GoVariableSOA	395	n/a	n/a	1
659.7450000000	n/a	659745	FrequentVariableSOA	1716	n/a	n/a	1
661.4610000000	n/a	661461	FrequentVariableSOA	1500	n/a	n/a	1
662.9610000000	n/a	662961	FrequentVariableSOA	1800	n/a	n/a	1
664.7610000000	n/a	664761	FrequentVariableSOA	1583	n/a	n/a	1
666.3450000000	n/a	666345	FrequentVariableSOA	1516	n/a	n/a	1
667.8610000000	n/a	667861	NovelVariableSOA	1516	n/a	n/a	1
669.3780000000	n/a	669378	FrequentVariableSOA	1783	n/a	n/a	1
671.1610000000	n/a	671161	GoVariableSOA	418	n/a	n/a	1
672.7950000000	n/a	672795	FrequentVariableSOA	1566	n/a	n/a	1
674.3610000000	n/a	674361	FrequentVariableSOA	1733	n/a	n/a	1
676.0950000000	n/a	676095	FrequentVariableSOA	1550	n/a	n/a	1
677.6450000000	n/a	677645	FrequentVariableSOA	1716	n/a	n/a	1
679.3610000000	n/a	679361	FrequentVariableSOA	1700	n/a	n/a	1
681.0610000000	n/a	681061	FrequentVariableSOA	1516	n/a	n/a	1
682.5780000000	n/a	682578	FrequentVariableSOA	1750	n/a	n/a	1
684.3280000000	n/a	684328	FrequentVariableSOA	1566	n/a	n/a	1
685.8950000000	n/a	685895	NovelVariableSOA	1616	n/a	n/a	1
687.5110000000	n/a	687511	FrequentVariableSOA	1633	n/a	n/a	1
689.1450000000	n/a	689145	FrequentVariableSOA	1700	n/a	n/a	1
690.8450000000	n/a	690845	GoFixedSOA	374	n/a	n/a	1
692.4780000000	n/a	692478	FrequentFixedSOA	1633	n/a	n/a	1
694.1110000000	n/a	694111	FrequentFixedSOA	1633	n/a	n/a	1
695.7450000000	n/a	695745	FrequentFixedSOA	1633	n/a	n/a	1
697.3780000000	n/a	697378	GoFixedSOA	1633	n/a	n/a	0
699.0110000000	n/a	699011	FrequentFixedSOA	1633	n/a	n/a	1
700.6450000000	n/a	700645	FrequentFixedSOA	1633	n/a	n/a	1
702.2780000000	n/a	702278	FrequentFixedSOA	1633	n/a	n/a	1
703.9110000000	n/a	703911	FrequentFixedSOA	1633	n/a	n/a	1
705.5450000000	n/a	705545	GoFixedSOA	311	n/a	n/a	1
707.1780000000	n/a	707178	FrequentFixedSOA	1633	n/a	n/a	1
708.8110000000	n/a	708811	FrequentFixedSOA	1633	n/a	n/a	1
710.4450000000	n/a	710445	NovelFixedSOA	1633	n/a	n/a	1
712.0780000000	n/a	712078	FrequentFixedSOA	1633	n/a	n/a	1
713.7110000000	n/a	713711	FrequentFixedSOA	1633	n/a	n/a	1
715.3440000000	n/a	715344	GoFixedSOA	438	n/a	n/a	1
716.9780000000	n/a	716978	FrequentFixedSOA	1633	n/a	n/a	1
718.6110000000	n/a	718611	FrequentFixedSOA	1633	n/a	n/a	1
720.2440000000	n/a	720244	FrequentFixedSOA	1633	n/a	n/a	1
721.8780000000	n/a	721878	NovelFixedSOA	1633	n/a	n/a	1
723.5110000000	n/a	723511	FrequentFixedSOA	1633	n/a	n/a	1
725.1440000000	n/a	725144	NovelFixedSOA	1633	n/a	n/a	1
726.7780000000	n/a	726778	FrequentFixedSOA	1633	n/a	n/a	1
728.4110000000	n/a	728411	FrequentFixedSOA	1633	n/a	n/a	1
730.0440000000	n/a	730044	FrequentFixedSOA	1633	n/a	n/a	1
731.6780000000	n/a	731678	GoFixedSOA	326	n/a	n/a	1
733.3110000000	n/a	733311	FrequentFixedSOA	1633	n/a	n/a	1
734.9440000000	n/a	734944	FrequentFixedSOA	1633	n/a	n/a	1
736.5780000000	n/a	736578	FrequentFixedSOA	1633	n/a	n/a	1
738.2110000000	n/a	738211	GoFixedSOA	331	n/a	n/a	1
739.8440000000	n/a	739844	FrequentFixedSOA	1633	n/a	n/a	1
741.4780000000	n/a	741478	FrequentFixedSOA	1633	n/a	n/a	1
743.1110000000	n/a	743111	NovelFixedSOA	1633	n/a	n/a	1
744.7440000000	n/a	744744	FrequentFixedSOA	1633	n/a	n/a	1
746.3780000000	n/a	746378	GoFixedSOA	373	n/a	n/a	1
748.0110000000	n/a	748011	FrequentFixedSOA	1633	n/a	n/a	1
749.6440000000	n/a	749644	FrequentFixedSOA	1633	n/a	n/a	1
751.2780000000	n/a	751278	FrequentFixedSOA	1633	n/a	n/a	1
752.9110000000	n/a	752911	FrequentFixedSOA	1633	n/a	n/a	1
754.5440000000	n/a	754544	FrequentFixedSOA	1633	n/a	n/a	1
756.1780000000	n/a	756178	FrequentFixedSOA	1633	n/a	n/a	1
757.8110000000	n/a	757811	NovelFixedSOA	1633	n/a	n/a	1
759.4440000000	n/a	759444	FrequentFixedSOA	1633	n/a	n/a	1
761.0780000000	n/a	761078	FrequentFixedSOA	1633	n/a	n/a	1
762.7110000000	n/a	762711	FrequentFixedSOA	1633	n/a	n/a	1
764.3440000000	n/a	764344	GoFixedSOA	342	n/a	n/a	1
765.9780000000	n/a	765978	FrequentFixedSOA	1633	n/a	n/a	1
767.6110000000	n/a	767611	FrequentFixedSOA	1633	n/a	n/a	1
769.2440000000	n/a	769244	FrequentFixedSOA	1633	n/a	n/a	1
770.8780000000	n/a	770878	FrequentFixedSOA	1633	n/a	n/a	1
772.5110000000	n/a	772511	NovelFixedSOA	1633	n/a	n/a	1
774.1440000000	n/a	774144	FrequentFixedSOA	1633	n/a	n/a	1
775.7780000000	n/a	775778	FrequentFixedSOA	1633	n/a	n/a	1
777.4110000000	n/a	777411	NovelFixedSOA	1633	n/a	n/a	1
779.0440000000	n/a	779044	FrequentFixedSOA	1633	n/a	n/a	1
780.6780000000	n/a	780678	NovelFixedSOA	1633	n/a	n/a	1
782.3110000000	n/a	782311	FrequentFixedSOA	1633	n/a	n/a	1
783.9440000000	n/a	783944	FrequentFixedSOA	1633	n/a	n/a	1
785.5780000000	n/a	785578	FrequentFixedSOA	1633	n/a	n/a	1
787.2110000000	n/a	787211	FrequentFixedSOA	1633	n/a	n/a	1
788.8440000000	n/a	788844	FrequentFixedSOA	1633	n/a	n/a	1
790.4780000000	n/a	790478	FrequentFixedSOA	1633	n/a	n/a	1
792.1110000000	n/a	792111	FrequentFixedSOA	1633	n/a	n/a	1
793.7440000000	n/a	793744	GoFixedSOA	353	n/a	n/a	1
795.3780000000	n/a	795378	FrequentFixedSOA	1633	n/a	n/a	1
797.0110000000	n/a	797011	GoFixedSOA	375	n/a	n/a	1
798.6440000000	n/a	798644	FrequentFixedSOA	1633	n/a	n/a	1
800.2780000000	n/a	800278	FrequentFixedSOA	1633	n/a	n/a	1
801.9110000000	n/a	801911	NovelFixedSOA	1633	n/a	n/a	1
803.5440000000	n/a	803544	FrequentFixedSOA	1633	n/a	n/a	1
805.1780000000	n/a	805178	GoVariableSOA	318	n/a	n/a	1
806.9110000000	n/a	806911	FrequentVariableSOA	1700	n/a	n/a	1
808.6110000000	n/a	808611	FrequentVariableSOA	1583	n/a	n/a	1
810.1940000000	n/a	810194	FrequentVariableSOA	1583	n/a	n/a	1
811.7780000000	n/a	811778	GoVariableSOA	1500	n/a	n/a	0
813.2780000000	n/a	813278	FrequentVariableSOA	1783	n/a	n/a	1
815.0610000000	n/a	815061	FrequentVariableSOA	1716	n/a	n/a	1
816.7780000000	n/a	816778	FrequentVariableSOA	1766	n/a	n/a	1
818.5440000000	n/a	818544	FrequentVariableSOA	1783	n/a	n/a	1
820.3280000000	n/a	820328	GoVariableSOA	328	n/a	n/a	1
822.0610000000	n/a	822061	FrequentVariableSOA	1733	n/a	n/a	1
823.7940000000	n/a	823794	FrequentVariableSOA	1716	n/a	n/a	1
825.5110000000	n/a	825511	NovelVariableSOA	1750	n/a	n/a	1
827.2610000000	n/a	827261	FrequentVariableSOA	1716	n/a	n/a	1
828.9780000000	n/a	828978	FrequentVariableSOA	1600	n/a	n/a	1
830.5780000000	n/a	830578	GoVariableSOA	1616	n/a	n/a	0
832.1940000000	n/a	832194	FrequentVariableSOA	1650	n/a	n/a	1
833.8440000000	n/a	833844	FrequentVariableSOA	1750	n/a	n/a	1
835.5940000000	n/a	835594	FrequentVariableSOA	1733	n/a	n/a	1
837.3280000000	n/a	837328	NovelVariableSOA	1716	n/a	n/a	1
839.0440000000	n/a	839044	FrequentVariableSOA	1566	n/a	n/a	1
840.6110000000	n/a	840611	NovelVariableSOA	1566	n/a	n/a	1
842.1780000000	n/a	842178	FrequentVariableSOA	1500	n/a	n/a	1
843.6780000000	n/a	843678	FrequentVariableSOA	1766	n/a	n/a	1
845.4440000000	n/a	845444	FrequentVariableSOA	1633	n/a	n/a	1
847.0780000000	n/a	847078	GoVariableSOA	388	n/a	n/a	1
848.5940000000	n/a	848594	FrequentVariableSOA	1733	n/a	n/a	1
850.3280000000	n/a	850328	FrequentVariableSOA	1800	n/a	n/a	1
852.1280000000	n/a	852128	FrequentVariableSOA	1650	n/a	n/a	1
853.7780000000	n/a	853778	GoVariableSOA	447	n/a	n/a	1
855.3940000000	n/a	855394	FrequentVariableSOA	1616	n/a	n/a	1
857.0110000000	n/a	857011	FrequentVariableSOA	1666	n/a	n/a	1
858.6780000000	n/a	858678	NovelVariableSOA	1583	n/a	n/a	1
860.2610000000	n/a	860261	FrequentVariableSOA	1750	n/a	n/a	1
862.0110000000	n/a	862011	GoVariableSOA	316	n/a	n/a	1
863.7610000000	n/a	863761	FrequentVariableSOA	1616	n/a	n/a	1
865.3780000000	n/a	865378	FrequentVariableSOA	1616	n/a	n/a	1
866.9940000000	n/a	866994	FrequentVariableSOA	1650	n/a	n/a	1
868.6440000000	n/a	868644	FrequentVariableSOA	1533	n/a	n/a	1
870.1780000000	n/a	870178	FrequentVariableSOA	1666	n/a	n/a	1
871.8440000000	n/a	871844	FrequentVariableSOA	1566	n/a	n/a	1
873.4110000000	n/a	873411	NovelVariableSOA	1550	n/a	n/a	1
874.9610000000	n/a	874961	FrequentVariableSOA	1566	n/a	n/a	1
876.5280000000	n/a	876528	FrequentVariableSOA	1600	n/a	n/a	1
878.1280000000	n/a	878128	FrequentVariableSOA	1633	n/a	n/a	1
879.7610000000	n/a	879761	GoVariableSOA	392	n/a	n/a	1
881.3110000000	n/a	881311	FrequentVariableSOA	1550	n/a	n/a	1
882.8610000000	n/a	882861	FrequentVariableSOA	1583	n/a	n/a	1
884.4440000000	n/a	884444	FrequentVariableSOA	1516	n/a	n/a	1
885.9610000000	n/a	885961	FrequentVariableSOA	1766	n/a	n/a	1
887.7280000000	n/a	887728	NovelVariableSOA	1583	n/a	n/a	1
889.3110000000	n/a	889311	FrequentVariableSOA	1783	n/a	n/a	1
891.0940000000	n/a	891094	FrequentVariableSOA	1750	n/a	n/a	1
892.8440000000	n/a	892844	NovelVariableSOA	1600	n/a	n/a	1
894.4440000000	n/a	894444	FrequentVariableSOA	1516	n/a	n/a	1
895.9610000000	n/a	895961	NovelVariableSOA	1616	n/a	n/a	1
897.5780000000	n/a	897578	FrequentVariableSOA	1716	n/a	n/a	1
899.2940000000	n/a	899294	FrequentVariableSOA	1766	n/a	n/a	1
901.0610000000	n/a	901061	FrequentVariableSOA	1633	n/a	n/a	1
902.6940000000	n/a	902694	FrequentVariableSOA	1733	n/a	n/a	1
904.4280000000	n/a	904428	FrequentVariableSOA	1550	n/a	n/a	1
905.9780000000	n/a	905978	FrequentVariableSOA	1766	n/a	n/a	1
907.7440000000	n/a	907744	FrequentVariableSOA	1683	n/a	n/a	1
909.4280000000	n/a	909428	GoVariableSOA	376	n/a	n/a	1
911.0110000000	n/a	911011	FrequentVariableSOA	1633	n/a	n/a	1
912.6440000000	n/a	912644	GoVariableSOA	370	n/a	n/a	1
914.1610000000	n/a	914161	FrequentVariableSOA	1500	n/a	n/a	1
915.6610000000	n/a	915661	FrequentVariableSOA	1516	n/a	n/a	1
917.1770000000	n/a	917177	NovelVariableSOA	1616	n/a	n/a	1
918.7940000000	n/a	918794	FrequentVariableSOA	1683	n/a	n/a	1
