onset	duration	sample	trial_type	response_time	stim_file	value	correct
3.4090000000	n/a	3409	ignore	4374	n/a	n/a	1
8.8590000000	n/a	8859	ignore	1000	n/a	n/a	1
10.8590000000	n/a	10859	ignore	1700	n/a	n/a	1
12.5590000000	n/a	12559	ignore	2026	n/a	n/a	1
15.6590000000	n/a	15659	ignore	1000	n/a	n/a	1
17.6590000000	n/a	17659	ignore	1700	n/a	n/a	1
19.3590000000	n/a	19359	ignore	7038	n/a	n/a	1
27.4590000000	n/a	27459	ignore	1000	n/a	n/a	1
29.4590000000	n/a	29459	ignore	1700	n/a	n/a	1
31.1590000000	n/a	31159	ignore	1603	n/a	n/a	1
33.8260000000	n/a	33826	ignore	1000	n/a	n/a	1
35.8260000000	n/a	35826	ignore	1700	n/a	n/a	1
37.5260000000	n/a	37526	ignore	3958	n/a	n/a	1
42.5590000000	n/a	42559	ignore	1000	n/a	n/a	1
44.5590000000	n/a	44559	ignore	1700	n/a	n/a	1
46.2590000000	n/a	46259	ignore	876	n/a	n/a	1
48.2090000000	n/a	48209	ignore	1000	n/a	n/a	1
50.2090000000	n/a	50209	STATUS	1700	n/a	n/a	1
51.9090000000	n/a	51909	ignore	1605	n/a	n/a	1
54.5920000000	n/a	54592	ignore	1000	n/a	n/a	1
56.5920000000	n/a	56592	STATUS	1700	n/a	n/a	1
58.2920000000	n/a	58292	ignore	768	n/a	n/a	1
60.1260000000	n/a	60126	ignore	1000	n/a	n/a	1
62.1260000000	n/a	62126	STATUS	1700	n/a	n/a	1
63.8260000000	n/a	63826	ignore	3366	n/a	n/a	1
67.2590000000	n/a	67259	ignore 	2000	n/a	n/a	1
74.4920000000	n/a	74492	ignore	1000	n/a	n/a	1
76.4920000000	n/a	76492	STATUS	1700	n/a	n/a	1
78.1920000000	n/a	78192	ignore	5206	n/a	n/a	0
84.4760000000	n/a	84476	ignore	1000	n/a	n/a	1
86.4760000000	n/a	86476	STATUS	1700	n/a	n/a	1
88.1760000000	n/a	88176	ignore	1283	n/a	n/a	1
90.5260000000	n/a	90526	ignore	1000	n/a	n/a	1
92.5260000000	n/a	92526	STATUS	1700	n/a	n/a	1
94.2260000000	n/a	94226	ignore	1619	n/a	n/a	0
96.9090000000	n/a	96909	ignore	1000	n/a	n/a	1
98.9090000000	n/a	98909	STATUS	1700	n/a	n/a	1
100.6090000000	n/a	100609	ignore	1594	n/a	n/a	1
103.2760000000	n/a	103276	ignore	1000	n/a	n/a	1
105.2760000000	n/a	105276	STATUS	1700	n/a	n/a	1
106.9760000000	n/a	106976	ignore	1289	n/a	n/a	1
109.3420000000	n/a	109342	ignore	1000	n/a	n/a	1
111.3420000000	n/a	111342	STATUS	1700	n/a	n/a	1
113.0420000000	n/a	113042	ignore	1809	n/a	n/a	0
115.9260000000	n/a	115926	ignore	1000	n/a	n/a	1
117.9260000000	n/a	117926	STATUS	1700	n/a	n/a	1
119.6260000000	n/a	119626	ignore	1035	n/a	n/a	0
121.7260000000	n/a	121726	ignore	1000	n/a	n/a	1
123.7260000000	n/a	123726	ignore	1700	n/a	n/a	1
125.4260000000	n/a	125426	ignore	3986	n/a	n/a	0
129.4760000000	n/a	129476	STATUS	2000	n/a	n/a	1
150.7090000000	n/a	150709	PenaltyB1	2115	n/a	n/a	1
153.8920000000	n/a	153892	NeuCorrB1	1000	n/a	n/a	1
155.8920000000	n/a	155892	ignore	1700	n/a	n/a	1
157.5920000000	n/a	157592	PenaltyB1	2619	n/a	n/a	1
161.2760000000	n/a	161276	NeuCorrB1	1000	n/a	n/a	1
163.2760000000	n/a	163276	ignore	1700	n/a	n/a	1
164.9760000000	n/a	164976	PenaltyB1	2649	n/a	n/a	0
168.6920000000	n/a	168692	PunIncorrB1	1000	n/a	n/a	1
170.6920000000	n/a	170692	ignore	1700	n/a	n/a	1
172.3920000000	n/a	172392	RewardB1	2101	n/a	n/a	1
175.5590000000	n/a	175559	RewardCorrB1	1000	n/a	n/a	1
177.5590000000	n/a	177559	ignore	1700	n/a	n/a	1
179.2590000000	n/a	179259	RewardB1	2418	n/a	n/a	1
182.7420000000	n/a	182742	RewardCorrB1	1000	n/a	n/a	1
184.7420000000	n/a	184742	ignore	1700	n/a	n/a	1
186.4420000000	n/a	186442	PenaltyB1	2334	n/a	n/a	1
189.8420000000	n/a	189842	NeuCorrB1	1000	n/a	n/a	1
191.8420000000	n/a	191842	ignore	1700	n/a	n/a	1
193.5420000000	n/a	193542	PenaltyB1	1616	n/a	n/a	0
196.2260000000	n/a	196226	PunIncorrB1	1000	n/a	n/a	1
198.2260000000	n/a	198226	ignore	1700	n/a	n/a	1
199.9250000000	n/a	199925	PenaltyB1	1034	n/a	n/a	1
202.0250000000	n/a	202025	NeuCorrB1	1000	n/a	n/a	1
204.0260000000	n/a	204026	ignore	1700	n/a	n/a	1
205.7250000000	n/a	205725	PenaltyB1	1859	n/a	n/a	0
208.6590000000	n/a	208659	NeuIncorrB1	1000	n/a	n/a	1
210.6590000000	n/a	210659	ignore	1700	n/a	n/a	1
212.3590000000	n/a	212359	RewardB1	2335	n/a	n/a	0
215.7590000000	n/a	215759	NeuIncorrB1	1000	n/a	n/a	1
217.7590000000	n/a	217759	ignore	1700	n/a	n/a	1
219.4590000000	n/a	219459	PenaltyB1	3075	n/a	n/a	0
223.6090000000	n/a	223609	PunIncorrB1	1000	n/a	n/a	1
225.6090000000	n/a	225609	ignore	1700	n/a	n/a	1
227.3090000000	n/a	227309	RewardB1	2515	n/a	n/a	0
230.8920000000	n/a	230892	RewIncorrB1	1000	n/a	n/a	1
232.8920000000	n/a	232892	ignore	1700	n/a	n/a	1
234.5920000000	n/a	234592	PenaltyB1	3047	n/a	n/a	1
238.7090000000	n/a	238709	NeuCorrB1	1000	n/a	n/a	1
240.7090000000	n/a	240709	ignore	1700	n/a	n/a	1
242.4090000000	n/a	242409	RewardB1	2028	n/a	n/a	0
245.5090000000	n/a	245509	NeuIncorrB1	1000	n/a	n/a	1
247.5090000000	n/a	247509	ignore	1700	n/a	n/a	1
249.2090000000	n/a	249209	PenaltyB1	2041	n/a	n/a	1
252.3250000000	n/a	252325	NeuCorrB1	1000	n/a	n/a	1
254.3250000000	n/a	254325	ignore	1700	n/a	n/a	1
256.0250000000	n/a	256025	PenaltyB1	1754	n/a	n/a	0
258.8420000000	n/a	258842	PunIncorrB1	1000	n/a	n/a	1
260.8420000000	n/a	260842	ignore	1700	n/a	n/a	1
262.5420000000	n/a	262542	RewardB1	1304	n/a	n/a	0
264.9090000000	n/a	264909	RewIncorrB1	1000	n/a	n/a	1
266.9090000000	n/a	266909	ignore	1700	n/a	n/a	1
268.6090000000	n/a	268609	PenaltyB1	636	n/a	n/a	1
270.3090000000	n/a	270309	NeuCorrB1	1000	n/a	n/a	1
272.3090000000	n/a	272309	ignore	1700	n/a	n/a	1
274.0090000000	n/a	274009	RewardB1	2315	n/a	n/a	0
277.3920000000	n/a	277392	NeuIncorrB1	1000	n/a	n/a	1
279.3920000000	n/a	279392	ignore	1700	n/a	n/a	1
281.0920000000	n/a	281092	RewardB1	778	n/a	n/a	0
282.9420000000	n/a	282942	NeuIncorrB1	1000	n/a	n/a	1
284.9420000000	n/a	284942	ignore	1700	n/a	n/a	1
286.6420000000	n/a	286642	RewardB1	1404	n/a	n/a	0
289.1090000000	n/a	289109	RewIncorrB1	1000	n/a	n/a	1
291.1090000000	n/a	291109	ignore	1700	n/a	n/a	1
292.8090000000	n/a	292809	RewardB1	1244	n/a	n/a	0
295.1250000000	n/a	295125	NeuIncorrB1	1000	n/a	n/a	1
297.1250000000	n/a	297125	ignore	1700	n/a	n/a	1
298.8250000000	n/a	298825	RewardB1	1291	n/a	n/a	0
301.1920000000	n/a	301192	NeuIncorrB1	1000	n/a	n/a	1
303.1920000000	n/a	303192	ignore	1700	n/a	n/a	1
304.8920000000	n/a	304892	PenaltyB1	2440	n/a	n/a	0
308.4090000000	n/a	308409	PunIncorrB1	1000	n/a	n/a	1
310.4090000000	n/a	310409	ignore	1700	n/a	n/a	1
312.1090000000	n/a	312109	RewardB1	2292	n/a	n/a	0
315.4750000000	n/a	315475	NeuIncorrB1	1000	n/a	n/a	1
317.4750000000	n/a	317475	ignore	1700	n/a	n/a	1
319.1750000000	n/a	319175	PenaltyB1	2242	n/a	n/a	1
322.4920000000	n/a	322492	PunCorrB1	1000	n/a	n/a	1
324.4920000000	n/a	324492	ignore	1700	n/a	n/a	1
326.1920000000	n/a	326192	RewardB1	1836	n/a	n/a	0
329.0920000000	n/a	329092	NeuIncorrB1	1000	n/a	n/a	1
331.0920000000	n/a	331092	ignore	1700	n/a	n/a	1
332.7920000000	n/a	332792	RewardB1	824	n/a	n/a	0
334.6920000000	n/a	334692	NeuIncorrB1	1000	n/a	n/a	1
336.6920000000	n/a	336692	ignore	1700	n/a	n/a	1
338.3920000000	n/a	338392	RewardB1	1170	n/a	n/a	1
340.6250000000	n/a	340625	RewardCorrB1	1000	n/a	n/a	1
342.6250000000	n/a	342625	ignore	1700	n/a	n/a	1
344.3250000000	n/a	344325	PenaltyB1	999	n/a	n/a	0
346.3920000000	n/a	346392	PunIncorrB1	1000	n/a	n/a	1
348.3920000000	n/a	348392	ignore	1700	n/a	n/a	1
350.0920000000	n/a	350092	RewardB1	1197	n/a	n/a	1
352.3590000000	n/a	352359	NeuCorrB1	1000	n/a	n/a	1
354.3590000000	n/a	354359	ignore	1700	n/a	n/a	1
356.0590000000	n/a	356059	PenaltyB1	1475	n/a	n/a	0
358.6090000000	n/a	358609	PunIncorrB1	1000	n/a	n/a	1
360.6090000000	n/a	360609	STATUS	1700	n/a	n/a	1
362.3090000000	n/a	362309	RewardB1	2065	n/a	n/a	0
365.4420000000	n/a	365442	NeuIncorrB1	1000	n/a	n/a	1
367.4420000000	n/a	367442	STATUS	1700	n/a	n/a	1
369.1420000000	n/a	369142	PenaltyB1	1968	n/a	n/a	0
372.1750000000	n/a	372175	NeuIncorrB1	1000	n/a	n/a	1
374.1750000000	n/a	374175	STATUS	1700	n/a	n/a	1
375.8750000000	n/a	375875	RewardB1	2280	n/a	n/a	1
379.2250000000	n/a	379225	RewardCorrB1	1000	n/a	n/a	1
381.2250000000	n/a	381225	ignore	1700	n/a	n/a	1
382.9250000000	n/a	382925	PenaltyB1	1431	n/a	n/a	0
385.4250000000	n/a	385425	PunIncorrB1	1000	n/a	n/a	1
387.4250000000	n/a	387425	STATUS	1700	n/a	n/a	1
389.1250000000	n/a	389125	PenaltyB1	1252	n/a	n/a	1
391.4420000000	n/a	391442	NeuCorrB1	1000	n/a	n/a	1
393.4420000000	n/a	393442	STATUS	1700	n/a	n/a	1
395.1420000000	n/a	395142	RewardB1	881	n/a	n/a	1
397.0920000000	n/a	397092	RewardCorrB1	1000	n/a	n/a	1
399.0920000000	n/a	399092	ignore	1700	n/a	n/a	1
400.7920000000	n/a	400792	PenaltyB1	950	n/a	n/a	1
402.8090000000	n/a	402809	PunCorrB1	1000	n/a	n/a	1
404.8090000000	n/a	404809	STATUS	1700	n/a	n/a	1
406.5090000000	n/a	406509	RewardB1	859	n/a	n/a	0
408.4420000000	n/a	408442	NeuIncorrB1	1000	n/a	n/a	1
410.4420000000	n/a	410442	STATUS	1700	n/a	n/a	1
415.3090000000	n/a	415309	RewardB2	1902	n/a	n/a	0
418.2750000000	n/a	418275	NeuIncorrB2	1000	n/a	n/a	1
420.2750000000	n/a	420275	STATUS	1700	n/a	n/a	1
421.9750000000	n/a	421975	PenaltyB2	1091	n/a	n/a	1
424.1420000000	n/a	424142	NeuCorrB2	1000	n/a	n/a	1
426.1420000000	n/a	426142	STATUS	1700	n/a	n/a	1
427.8420000000	n/a	427842	RewardB2	1020	n/a	n/a	0
429.9250000000	n/a	429925	NeuIncorrB2	1000	n/a	n/a	1
431.9250000000	n/a	431925	STATUS	1700	n/a	n/a	1
433.6250000000	n/a	433625	RewardB2	2451	n/a	n/a	0
437.1420000000	n/a	437142	RewIncorrB2	1000	n/a	n/a	1
439.1420000000	n/a	439142	ignore	1700	n/a	n/a	1
440.8420000000	n/a	440842	PenaltyB2	1011	n/a	n/a	1
442.9250000000	n/a	442925	NeuCorrB2	1000	n/a	n/a	1
444.9250000000	n/a	444925	ignore	1700	n/a	n/a	1
446.6250000000	n/a	446625	RewardB2	1051	n/a	n/a	1
448.7420000000	n/a	448742	RewardCorrB2	1000	n/a	n/a	1
450.7420000000	n/a	450742	ignore	1700	n/a	n/a	1
452.4420000000	n/a	452442	PenaltyB2	807	n/a	n/a	1
454.3250000000	n/a	454325	NeuCorrB2	1000	n/a	n/a	1
456.3250000000	n/a	456325	ignore	1700	n/a	n/a	1
458.0250000000	n/a	458025	RewardB2	1355	n/a	n/a	1
460.4580000000	n/a	460458	RewardCorrB2	1000	n/a	n/a	1
462.4590000000	n/a	462459	ignore	1700	n/a	n/a	1
464.1580000000	n/a	464158	PenaltyB2	1358	n/a	n/a	1
466.5920000000	n/a	466592	NeuCorrB2	1000	n/a	n/a	1
468.5920000000	n/a	468592	ignore	1700	n/a	n/a	1
470.2920000000	n/a	470292	RewardB2	1077	n/a	n/a	0
472.4420000000	n/a	472442	NeuIncorrB2	1000	n/a	n/a	1
474.4420000000	n/a	474442	ignore	1700	n/a	n/a	1
476.1420000000	n/a	476142	PenaltyB2	2112	n/a	n/a	0
479.3250000000	n/a	479325	NeuIncorrB2	1000	n/a	n/a	1
481.3250000000	n/a	481325	ignore	1700	n/a	n/a	1
483.0250000000	n/a	483025	RewardB2	1004	n/a	n/a	0
485.0920000000	n/a	485092	NeuIncorrB2	1000	n/a	n/a	1
487.0920000000	n/a	487092	ignore	1700	n/a	n/a	1
488.7920000000	n/a	488792	PenaltyB2	1045	n/a	n/a	1
490.9080000000	n/a	490908	NeuCorrB2	1000	n/a	n/a	1
492.9080000000	n/a	492908	ignore	1700	n/a	n/a	1
494.6080000000	n/a	494608	RewardB2	1574	n/a	n/a	0
497.2580000000	n/a	497258	NeuIncorrB2	1000	n/a	n/a	1
499.2580000000	n/a	499258	ignore	1700	n/a	n/a	1
500.9580000000	n/a	500958	PenaltyB2	1192	n/a	n/a	0
503.2250000000	n/a	503225	PunIncorrB2	1000	n/a	n/a	1
505.2250000000	n/a	505225	ignore	1700	n/a	n/a	1
506.9250000000	n/a	506925	RewardB2	933	n/a	n/a	1
508.9250000000	n/a	508925	NeuCorrB2	1000	n/a	n/a	1
510.9250000000	n/a	510925	ignore	1700	n/a	n/a	1
512.6250000000	n/a	512625	PenaltyB2	1148	n/a	n/a	1
514.8420000000	n/a	514842	NeuCorrB2	1000	n/a	n/a	1
516.8420000000	n/a	516842	ignore	1700	n/a	n/a	1
518.5420000000	n/a	518542	RewardB2	1212	n/a	n/a	1
520.8250000000	n/a	520825	RewardCorrB2	1000	n/a	n/a	1
522.8250000000	n/a	522825	ignore	1700	n/a	n/a	1
524.5250000000	n/a	524525	PenaltyB2	1157	n/a	n/a	0
526.7580000000	n/a	526758	PunIncorrB2	1000	n/a	n/a	1
528.7580000000	n/a	528758	ignore	1700	n/a	n/a	1
530.4580000000	n/a	530458	RewardB2	1441	n/a	n/a	0
532.9750000000	n/a	532975	NeuIncorrB2	1000	n/a	n/a	1
534.9750000000	n/a	534975	ignore	1700	n/a	n/a	1
536.6750000000	n/a	536675	PenaltyB2	1195	n/a	n/a	0
538.9420000000	n/a	538942	NeuIncorrB2	1000	n/a	n/a	1
540.9420000000	n/a	540942	ignore	1700	n/a	n/a	1
542.6420000000	n/a	542642	PenaltyB2	568	n/a	n/a	1
544.2750000000	n/a	544275	NeuCorrB2	1000	n/a	n/a	1
546.2750000000	n/a	546275	ignore	1700	n/a	n/a	1
547.9750000000	n/a	547975	PenaltyB2	939	n/a	n/a	1
549.9920000000	n/a	549992	NeuCorrB2	1000	n/a	n/a	1
551.9920000000	n/a	551992	ignore	1700	n/a	n/a	1
553.6920000000	n/a	553692	RewardB2	1710	n/a	n/a	1
556.4750000000	n/a	556475	RewardCorrB2	1000	n/a	n/a	1
558.4750000000	n/a	558475	ignore	1700	n/a	n/a	1
560.1750000000	n/a	560175	RewardB2	758	n/a	n/a	0
562.0080000000	n/a	562008	RewIncorrB2	1000	n/a	n/a	1
564.0080000000	n/a	564008	ignore	1700	n/a	n/a	1
565.7080000000	n/a	565708	RewardB2	1000	n/a	n/a	0
567.7750000000	n/a	567775	NeuIncorrB2	1000	n/a	n/a	1
569.7750000000	n/a	569775	ignore	1700	n/a	n/a	1
571.4750000000	n/a	571475	PenaltyB2	697	n/a	n/a	1
573.2420000000	n/a	573242	NeuCorrB2	1000	n/a	n/a	1
575.2420000000	n/a	575242	ignore	1700	n/a	n/a	1
576.9420000000	n/a	576942	PenaltyB2	1037	n/a	n/a	1
579.0420000000	n/a	579042	NeuCorrB2	1000	n/a	n/a	1
581.0420000000	n/a	581042	ignore	1700	n/a	n/a	1
582.7420000000	n/a	582742	RewardB2	4408	n/a	n/a	1
588.2250000000	n/a	588225	RewardCorrB2	1000	n/a	n/a	1
590.2250000000	n/a	590225	ignore	1700	n/a	n/a	1
591.9250000000	n/a	591925	PenaltyB2	896	n/a	n/a	1
593.8920000000	n/a	593892	NeuCorrB2	1000	n/a	n/a	1
595.8920000000	n/a	595892	ignore	1700	n/a	n/a	1
597.5920000000	n/a	597592	RewardB2	943	n/a	n/a	0
599.6080000000	n/a	599608	RewIncorrB2	1000	n/a	n/a	1
601.6080000000	n/a	601608	ignore	1700	n/a	n/a	1
603.3080000000	n/a	603308	PenaltyB2	1237	n/a	n/a	0
605.6080000000	n/a	605608	PunIncorrB2	1000	n/a	n/a	1
607.6080000000	n/a	607608	ignore	1700	n/a	n/a	1
609.3080000000	n/a	609308	RewardB2	654	n/a	n/a	1
611.0250000000	n/a	611025	RewardCorrB2	1000	n/a	n/a	1
613.0250000000	n/a	613025	ignore	1700	n/a	n/a	1
614.7250000000	n/a	614725	PenaltyB2	702	n/a	n/a	1
616.4920000000	n/a	616492	NeuCorrB2	1000	n/a	n/a	1
618.4920000000	n/a	618492	ignore	1700	n/a	n/a	1
620.1920000000	n/a	620192	PenaltyB2	1152	n/a	n/a	0
622.4080000000	n/a	622408	NeuIncorrB2	1000	n/a	n/a	1
624.4080000000	n/a	624408	ignore	1700	n/a	n/a	1
626.1080000000	n/a	626108	RewardB2	897	n/a	n/a	0
628.0750000000	n/a	628075	NeuIncorrB2	1000	n/a	n/a	1
630.0750000000	n/a	630075	ignore	1700	n/a	n/a	1
631.7750000000	n/a	631775	PenaltyB2	4855	n/a	n/a	1
637.7080000000	n/a	637708	NeuCorrB2	1000	n/a	n/a	1
639.7080000000	n/a	639708	ignore	1700	n/a	n/a	1
641.4080000000	n/a	641408	RewardB2	675	n/a	n/a	1
643.1580000000	n/a	643158	RewardCorrB2	1000	n/a	n/a	1
645.1580000000	n/a	645158	ignore	1700	n/a	n/a	1
646.8580000000	n/a	646858	PenaltyB2	1059	n/a	n/a	0
648.9920000000	n/a	648992	NeuIncorrB2	1000	n/a	n/a	1
650.9920000000	n/a	650992	ignore	1700	n/a	n/a	1
652.6920000000	n/a	652692	RewardB2	1642	n/a	n/a	0
655.4080000000	n/a	655408	NeuIncorrB2	1000	n/a	n/a	1
657.4080000000	n/a	657408	ignore	1700	n/a	n/a	1
661.0080000000	n/a	661008	RewardB3	864	n/a	n/a	0
662.9420000000	n/a	662942	NeuIncorrB3	1000	n/a	n/a	1
664.9420000000	n/a	664942	ignore	1700	n/a	n/a	1
666.6420000000	n/a	666642	PenaltyB3	1332	n/a	n/a	1
669.0410000000	n/a	669041	PunCorrB3	1000	n/a	n/a	1
671.0420000000	n/a	671042	ignore	1700	n/a	n/a	1
672.7410000000	n/a	672741	RewardB3	833	n/a	n/a	1
674.6410000000	n/a	674641	RewardCorrB3	1000	n/a	n/a	1
676.6420000000	n/a	676642	ignore	1700	n/a	n/a	1
678.3410000000	n/a	678341	PenaltyB3	967	n/a	n/a	0
680.3750000000	n/a	680375	PunIncorrB3	1000	n/a	n/a	1
682.3750000000	n/a	682375	ignore	1700	n/a	n/a	1
684.0750000000	n/a	684075	PenaltyB3	1355	n/a	n/a	1
686.5080000000	n/a	686508	NeuCorrB3	1000	n/a	n/a	1
688.5080000000	n/a	688508	ignore	1700	n/a	n/a	1
690.2080000000	n/a	690208	RewardB3	1493	n/a	n/a	0
692.7750000000	n/a	692775	NeuIncorrB3	1000	n/a	n/a	1
694.7750000000	n/a	694775	ignore	1700	n/a	n/a	1
696.4750000000	n/a	696475	PenaltyB3	1323	n/a	n/a	0
698.8750000000	n/a	698875	NeuIncorrB3	1000	n/a	n/a	1
700.8750000000	n/a	700875	ignore	1700	n/a	n/a	1
702.5750000000	n/a	702575	RewardB3	1466	n/a	n/a	1
705.1080000000	n/a	705108	RewardCorrB3	1000	n/a	n/a	1
707.1080000000	n/a	707108	ignore	1700	n/a	n/a	1
708.8080000000	n/a	708808	PenaltyB3	1972	n/a	n/a	0
711.8580000000	n/a	711858	PunIncorrB3	1000	n/a	n/a	1
713.8580000000	n/a	713858	ignore	1700	n/a	n/a	1
715.5580000000	n/a	715558	RewardB3	1301	n/a	n/a	1
717.9250000000	n/a	717925	NeuCorrB3	1000	n/a	n/a	1
719.9250000000	n/a	719925	ignore	1700	n/a	n/a	1
721.6250000000	n/a	721625	PenaltyB3	809	n/a	n/a	1
723.5080000000	n/a	723508	NeuCorrB3	1000	n/a	n/a	1
725.5080000000	n/a	725508	ignore	1700	n/a	n/a	1
727.2080000000	n/a	727208	RewardB3	1863	n/a	n/a	1
730.1410000000	n/a	730141	RewardCorrB3	1000	n/a	n/a	1
732.1410000000	n/a	732141	ignore	1700	n/a	n/a	1
733.8410000000	n/a	733841	RewardB3	1206	n/a	n/a	0
736.1250000000	n/a	736125	NeuIncorrB3	1000	n/a	n/a	1
738.1250000000	n/a	738125	ignore	1700	n/a	n/a	1
739.8250000000	n/a	739825	RewardB3	867	n/a	n/a	1
741.7580000000	n/a	741758	RewardCorrB3	1000	n/a	n/a	1
743.7580000000	n/a	743758	ignore	1700	n/a	n/a	1
745.4580000000	n/a	745458	PenaltyB3	1183	n/a	n/a	0
747.7080000000	n/a	747708	NeuIncorrB3	1000	n/a	n/a	1
749.7080000000	n/a	749708	ignore	1700	n/a	n/a	1
751.4080000000	n/a	751408	RewardB3	986	n/a	n/a	1
753.4580000000	n/a	753458	RewardCorrB3	1000	n/a	n/a	1
755.4580000000	n/a	755458	ignore	1700	n/a	n/a	1
757.1580000000	n/a	757158	PenaltyB3	2979	n/a	n/a	1
761.2080000000	n/a	761208	NeuCorrB3	1000	n/a	n/a	1
763.2080000000	n/a	763208	ignore	1700	n/a	n/a	1
764.9080000000	n/a	764908	RewardB3	1276	n/a	n/a	1
767.2580000000	n/a	767258	RewardCorrB3	1000	n/a	n/a	1
769.2580000000	n/a	769258	STATUS	1700	n/a	n/a	1
770.9580000000	n/a	770958	RewardB3	1702	n/a	n/a	0
773.7250000000	n/a	773725	NeuIncorrB3	1000	n/a	n/a	1
775.7250000000	n/a	775725	STATUS	1700	n/a	n/a	1
777.4250000000	n/a	777425	RewardB3	554	n/a	n/a	1
779.0410000000	n/a	779041	NeuCorrB3	1000	n/a	n/a	1
781.0410000000	n/a	781041	STATUS	1700	n/a	n/a	1
782.7410000000	n/a	782741	RewardB3	1229	n/a	n/a	1
785.0410000000	n/a	785041	RewardCorrB3	1000	n/a	n/a	1
787.0410000000	n/a	787041	STATUS	1700	n/a	n/a	1
788.7410000000	n/a	788741	RewardB3	1729	n/a	n/a	1
791.5410000000	n/a	791541	RewardCorrB3	1000	n/a	n/a	1
793.5410000000	n/a	793541	STATUS	1700	n/a	n/a	1
795.2410000000	n/a	795241	PenaltyB3	2620	n/a	n/a	0
798.9250000000	n/a	798925	PunIncorrB3	1000	n/a	n/a	1
800.9250000000	n/a	800925	STATUS	1700	n/a	n/a	1
802.6250000000	n/a	802625	RewardB3	1308	n/a	n/a	1
805.0080000000	n/a	805008	NeuCorrB3	1000	n/a	n/a	1
807.0080000000	n/a	807008	STATUS	1700	n/a	n/a	1
808.7080000000	n/a	808708	PenaltyB3	2072	n/a	n/a	1
811.8580000000	n/a	811858	NeuCorrB3	1000	n/a	n/a	1
813.8580000000	n/a	813858	STATUS	1700	n/a	n/a	1
815.5580000000	n/a	815558	PenaltyB3	2660	n/a	n/a	0
819.2910000000	n/a	819291	PunIncorrB3	1000	n/a	n/a	1
821.2910000000	n/a	821291	STATUS	1700	n/a	n/a	1
822.9910000000	n/a	822991	RewardB3	2051	n/a	n/a	1
826.1080000000	n/a	826108	RewardCorrB3	1000	n/a	n/a	1
828.1080000000	n/a	828108	STATUS	1700	n/a	n/a	1
829.8080000000	n/a	829808	PenaltyB3	883	n/a	n/a	1
831.7580000000	n/a	831758	NeuCorrB3	1000	n/a	n/a	1
833.7580000000	n/a	833758	STATUS	1700	n/a	n/a	1
835.4580000000	n/a	835458	RewardB3	1147	n/a	n/a	1
837.6750000000	n/a	837675	NeuCorrB3	1000	n/a	n/a	1
839.6750000000	n/a	839675	STATUS	1700	n/a	n/a	1
841.3750000000	n/a	841375	PenaltyB3	2687	n/a	n/a	0
845.1250000000	n/a	845125	PunIncorrB3	1000	n/a	n/a	1
847.1250000000	n/a	847125	STATUS	1700	n/a	n/a	1
848.8250000000	n/a	848825	RewardB3	2104	n/a	n/a	1
851.9910000000	n/a	851991	RewardCorrB3	1000	n/a	n/a	1
853.9910000000	n/a	853991	STATUS	1700	n/a	n/a	1
855.6910000000	n/a	855691	PenaltyB3	1220	n/a	n/a	0
857.9750000000	n/a	857975	NeuIncorrB3	1000	n/a	n/a	1
859.9750000000	n/a	859975	STATUS	1700	n/a	n/a	1
861.6750000000	n/a	861675	PenaltyB3	753	n/a	n/a	1
863.4910000000	n/a	863491	NeuCorrB3	1000	n/a	n/a	1
865.4910000000	n/a	865491	STATUS	1700	n/a	n/a	1
867.1910000000	n/a	867191	PenaltyB3	1091	n/a	n/a	0
869.3580000000	n/a	869358	PunIncorrB3	1000	n/a	n/a	1
871.3580000000	n/a	871358	STATUS	1700	n/a	n/a	1
873.0580000000	n/a	873058	PenaltyB3	504	n/a	n/a	0
874.6250000000	n/a	874625	PunIncorrB3	1000	n/a	n/a	1
876.6250000000	n/a	876625	ignore	1700	n/a	n/a	1
878.3250000000	n/a	878325	RewardB3	1135	n/a	n/a	1
880.5250000000	n/a	880525	RewardCorrB3	1000	n/a	n/a	1
882.5250000000	n/a	882525	STATUS	1700	n/a	n/a	1
884.2250000000	n/a	884225	RewardB3	764	n/a	n/a	0
886.0580000000	n/a	886058	NeuIncorrB3	1000	n/a	n/a	1
888.0580000000	n/a	888058	STATUS	1700	n/a	n/a	1
889.7580000000	n/a	889758	PenaltyB3	623	n/a	n/a	0
891.4580000000	n/a	891458	PunIncorrB3	1000	n/a	n/a	1
893.4580000000	n/a	893458	ignore	1700	n/a	n/a	1
895.1580000000	n/a	895158	PenaltyB3	618	n/a	n/a	0
896.8410000000	n/a	896841	PunIncorrB3	1000	n/a	n/a	1
898.8410000000	n/a	898841	ignore	1700	n/a	n/a	1
900.5410000000	n/a	900541	PenaltyB3	512	n/a	n/a	0
902.1240000000	n/a	902124	PunIncorrB3	1000	n/a	n/a	1
904.1250000000	n/a	904125	ignore	1700	n/a	n/a	1
907.7080000000	n/a	907708	RewardB4	3203	n/a	n/a	1
911.9740000000	n/a	911974	RewardCorrB4	1000	n/a	n/a	1
913.9750000000	n/a	913975	ignore	1700	n/a	n/a	1
915.6740000000	n/a	915674	PenaltyB4	2343	n/a	n/a	1
919.0910000000	n/a	919091	PunCorrB4	1000	n/a	n/a	1
921.0910000000	n/a	921091	ignore	1700	n/a	n/a	1
922.7910000000	n/a	922791	RewardB4	5127	n/a	n/a	0
928.9910000000	n/a	928991	NeuIncorrB4	1000	n/a	n/a	1
930.9910000000	n/a	930991	ignore	1700	n/a	n/a	1
932.6910000000	n/a	932691	PenaltyB4	1276	n/a	n/a	1
935.0410000000	n/a	935041	NeuCorrB4	1000	n/a	n/a	1
937.0410000000	n/a	937041	ignore	1700	n/a	n/a	1
938.7410000000	n/a	938741	RewardB4	1361	n/a	n/a	1
941.1740000000	n/a	941174	RewardCorrB4	1000	n/a	n/a	1
943.1750000000	n/a	943175	ignore	1700	n/a	n/a	1
944.8740000000	n/a	944874	PenaltyB4	2004	n/a	n/a	1
947.9410000000	n/a	947941	PunCorrB4	1000	n/a	n/a	1
949.9410000000	n/a	949941	ignore	1700	n/a	n/a	1
951.6410000000	n/a	951641	PenaltyB4	1068	n/a	n/a	0
953.7740000000	n/a	953774	PunIncorrB4	1000	n/a	n/a	1
955.7740000000	n/a	955774	ignore	1700	n/a	n/a	1
957.4740000000	n/a	957474	RewardB4	2027	n/a	n/a	0
960.5740000000	n/a	960574	NeuIncorrB4	1000	n/a	n/a	1
962.5740000000	n/a	962574	ignore	1700	n/a	n/a	1
964.2740000000	n/a	964274	PenaltyB4	718	n/a	n/a	0
966.0580000000	n/a	966058	PunIncorrB4	1000	n/a	n/a	1
968.0580000000	n/a	968058	ignore	1700	n/a	n/a	1
969.7580000000	n/a	969758	RewardB4	1791	n/a	n/a	1
972.6240000000	n/a	972624	NeuCorrB4	1000	n/a	n/a	1
974.6240000000	n/a	974624	ignore	1700	n/a	n/a	1
976.3240000000	n/a	976324	PenaltyB4	2049	n/a	n/a	1
979.4410000000	n/a	979441	NeuCorrB4	1000	n/a	n/a	1
981.4410000000	n/a	981441	ignore	1700	n/a	n/a	1
983.1410000000	n/a	983141	RewardB4	1445	n/a	n/a	1
985.6580000000	n/a	985658	RewardCorrB4	1000	n/a	n/a	1
987.6580000000	n/a	987658	ignore	1700	n/a	n/a	1
989.3580000000	n/a	989358	PenaltyB4	1267	n/a	n/a	0
991.6910000000	n/a	991691	PunIncorrB4	1000	n/a	n/a	1
993.6910000000	n/a	993691	ignore	1700	n/a	n/a	1
995.3910000000	n/a	995391	PenaltyB4	785	n/a	n/a	1
997.2410000000	n/a	997241	NeuCorrB4	1000	n/a	n/a	1
999.2410000000	n/a	999241	ignore	1700	n/a	n/a	1
1000.9410000000	n/a	1000941	RewardB4	744	n/a	n/a	1
1002.7580000000	n/a	1002758	RewardCorrB4	1000	n/a	n/a	1
1004.7580000000	n/a	1004758	ignore	1700	n/a	n/a	1
1006.4580000000	n/a	1006458	RewardB4	699	n/a	n/a	1
1008.2240000000	n/a	1008224	NeuCorrB4	1000	n/a	n/a	1
1010.2240000000	n/a	1010224	ignore	1700	n/a	n/a	1
1011.9240000000	n/a	1011924	RewardB4	2337	n/a	n/a	1
1015.3240000000	n/a	1015324	RewardCorrB4	1000	n/a	n/a	1
1017.3240000000	n/a	1017324	ignore	1700	n/a	n/a	1
1019.0240000000	n/a	1019024	PenaltyB4	4682	n/a	n/a	0
1024.7740000000	n/a	1024774	PunIncorrB4	1000	n/a	n/a	1
1026.7740000000	n/a	1026774	ignore	1700	n/a	n/a	1
1028.4740000000	n/a	1028474	PenaltyB4	1613	n/a	n/a	0
1031.1580000000	n/a	1031158	PunIncorrB4	1000	n/a	n/a	1
1033.1580000000	n/a	1033158	ignore	1700	n/a	n/a	1
1034.8580000000	n/a	1034858	PenaltyB4	1148	n/a	n/a	1
1037.0740000000	n/a	1037074	PunCorrB4	1000	n/a	n/a	1
1039.0740000000	n/a	1039074	ignore	1700	n/a	n/a	1
1040.7740000000	n/a	1040774	RewardB4	4816	n/a	n/a	1
1046.6580000000	n/a	1046658	RewardCorrB4	1000	n/a	n/a	1
1048.6580000000	n/a	1048658	ignore	1700	n/a	n/a	1
1050.3580000000	n/a	1050358	PenaltyB4	2520	n/a	n/a	0
1053.9410000000	n/a	1053941	PunIncorrB4	1000	n/a	n/a	1
1055.9410000000	n/a	1055941	ignore	1700	n/a	n/a	1
1057.6410000000	n/a	1057641	RewardB4	1070	n/a	n/a	1
1059.7740000000	n/a	1059774	RewardCorrB4	1000	n/a	n/a	1
1061.7740000000	n/a	1061774	ignore	1700	n/a	n/a	1
1063.4740000000	n/a	1063474	PenaltyB4	853	n/a	n/a	0
1065.3910000000	n/a	1065391	PunIncorrB4	1000	n/a	n/a	1
1067.3910000000	n/a	1067391	ignore	1700	n/a	n/a	1
1069.0910000000	n/a	1069091	RewardB4	943	n/a	n/a	1
1071.1080000000	n/a	1071108	NeuCorrB4	1000	n/a	n/a	1
1073.1080000000	n/a	1073108	ignore	1700	n/a	n/a	1
1074.8080000000	n/a	1074808	PenaltyB4	1062	n/a	n/a	1
1076.9410000000	n/a	1076941	NeuCorrB4	1000	n/a	n/a	1
1078.9410000000	n/a	1078941	ignore	1700	n/a	n/a	1
1080.6410000000	n/a	1080641	RewardB4	891	n/a	n/a	0
1082.6080000000	n/a	1082608	NeuIncorrB4	1000	n/a	n/a	1
1084.6080000000	n/a	1084608	ignore	1700	n/a	n/a	1
1086.3080000000	n/a	1086308	PenaltyB4	504	n/a	n/a	1
1087.8740000000	n/a	1087874	NeuCorrB4	1000	n/a	n/a	1
1089.8740000000	n/a	1089874	ignore	1700	n/a	n/a	1
1091.5740000000	n/a	1091574	RewardB4	1769	n/a	n/a	1
1094.4080000000	n/a	1094408	RewardCorrB4	1000	n/a	n/a	1
1096.4080000000	n/a	1096408	ignore	1700	n/a	n/a	1
1098.1080000000	n/a	1098108	PenaltyB4	682	n/a	n/a	1
1099.8580000000	n/a	1099858	PunCorrB4	1000	n/a	n/a	1
1101.8580000000	n/a	1101858	ignore	1700	n/a	n/a	1
1103.5580000000	n/a	1103558	RewardB4	1082	n/a	n/a	1
1105.7080000000	n/a	1105708	RewardCorrB4	1000	n/a	n/a	1
1107.7080000000	n/a	1107708	ignore	1700	n/a	n/a	1
1109.4080000000	n/a	1109408	PenaltyB4	864	n/a	n/a	0
1111.3410000000	n/a	1111341	PunIncorrB4	1000	n/a	n/a	1
1113.3410000000	n/a	1113341	ignore	1700	n/a	n/a	1
1115.0410000000	n/a	1115041	RewardB4	1635	n/a	n/a	1
1117.7410000000	n/a	1117741	RewardCorrB4	1000	n/a	n/a	1
1119.7410000000	n/a	1119741	ignore	1700	n/a	n/a	1
1121.4410000000	n/a	1121441	PenaltyB4	3704	n/a	n/a	0
1126.2080000000	n/a	1126208	PunIncorrB4	1000	n/a	n/a	1
1128.2080000000	n/a	1128208	ignore	1700	n/a	n/a	1
1129.9080000000	n/a	1129908	RewardB4	3015	n/a	n/a	1
1133.9910000000	n/a	1133991	RewardCorrB4	1000	n/a	n/a	1
1135.9910000000	n/a	1135991	ignore	1700	n/a	n/a	1
1137.6910000000	n/a	1137691	PenaltyB4	1212	n/a	n/a	0
1139.9740000000	n/a	1139974	PunIncorrB4	1000	n/a	n/a	1
1141.9740000000	n/a	1141974	ignore	1700	n/a	n/a	1
1143.6740000000	n/a	1143674	RewardB4	2127	n/a	n/a	1
1146.8740000000	n/a	1146874	NeuCorrB4	1000	n/a	n/a	1
1148.8740000000	n/a	1148874	ignore	1700	n/a	n/a	1
1150.5740000000	n/a	1150574	RewardB4	1184	n/a	n/a	0
1152.8240000000	n/a	1152824	NeuIncorrB4	1000	n/a	n/a	1
1154.8240000000	n/a	1154824	ignore	1700	n/a	n/a	1
1156.5240000000	n/a	1156524	PenaltyB4	996	n/a	n/a	0
1158.5910000000	n/a	1158591	PunIncorrB4	1000	n/a	n/a	1
1160.5910000000	n/a	1160591	ignore	1700	n/a	n/a	1
1162.2910000000	n/a	1162291	RewardB4	1178	n/a	n/a	1
1164.5410000000	n/a	1164541	RewardCorrB4	1000	n/a	n/a	1
1166.5410000000	n/a	1166541	ignore	1700	n/a	n/a	1
1177.4240000000	n/a	1177424	ignore	1700	n/a	n/a	1
