onset	duration	sample	trial_type	response_time	stim_file	value	correct
2.8840000000	n/a	2884	ignore	2598	n/a	n/a	1
6.5510000000	n/a	6551	ignore	1000	n/a	n/a	1
8.5510000000	n/a	8551	ignore	1700	n/a	n/a	1
10.2510000000	n/a	10251	ignore	1009	n/a	n/a	1
12.3340000000	n/a	12334	ignore	1000	n/a	n/a	1
14.3340000000	n/a	14334	ignore	1700	n/a	n/a	1
16.0340000000	n/a	16034	ignore	1461	n/a	n/a	1
18.5670000000	n/a	18567	ignore	1000	n/a	n/a	1
20.5670000000	n/a	20567	ignore	1700	n/a	n/a	1
22.2670000000	n/a	22267	ignore	724	n/a	n/a	1
24.0670000000	n/a	24067	ignore	1000	n/a	n/a	1
26.0670000000	n/a	26067	ignore	1700	n/a	n/a	1
27.7670000000	n/a	27767	ignore	643	n/a	n/a	1
29.4840000000	n/a	29484	ignore	1000	n/a	n/a	1
31.4840000000	n/a	31484	ignore	1700	n/a	n/a	1
33.1840000000	n/a	33184	ignore	3346	n/a	n/a	1
37.6010000000	n/a	37601	ignore	1000	n/a	n/a	1
39.6010000000	n/a	39601	STATUS	1700	n/a	n/a	1
41.3010000000	n/a	41301	ignore	728	n/a	n/a	1
43.1000000000	n/a	43100	ignore	1000	n/a	n/a	1
45.1010000000	n/a	45101	STATUS	1700	n/a	n/a	1
46.8000000000	n/a	46800	ignore	1723	n/a	n/a	1
49.6000000000	n/a	49600	ignore	1000	n/a	n/a	1
51.6010000000	n/a	51601	STATUS	1700	n/a	n/a	1
53.3000000000	n/a	53300	ignore	6447	n/a	n/a	1
59.8170000000	n/a	59817	ignore 	2000	n/a	n/a	1
67.5170000000	n/a	67517	ignore	1000	n/a	n/a	1
69.5170000000	n/a	69517	STATUS	1700	n/a	n/a	1
71.2170000000	n/a	71217	ignore	569	n/a	n/a	1
72.8500000000	n/a	72850	ignore	1000	n/a	n/a	1
74.8510000000	n/a	74851	STATUS	1700	n/a	n/a	1
76.5500000000	n/a	76550	ignore	564	n/a	n/a	1
78.1840000000	n/a	78184	ignore	1000	n/a	n/a	1
80.1840000000	n/a	80184	STATUS	1700	n/a	n/a	1
81.8840000000	n/a	81884	ignore	849	n/a	n/a	1
83.8000000000	n/a	83800	ignore	1000	n/a	n/a	1
85.8000000000	n/a	85800	ignore	1700	n/a	n/a	1
87.5000000000	n/a	87500	ignore	740	n/a	n/a	0
89.3170000000	n/a	89317	ignore	1000	n/a	n/a	1
91.3170000000	n/a	91317	ignore	1700	n/a	n/a	1
93.0170000000	n/a	93017	ignore	386	n/a	n/a	1
94.4670000000	n/a	94467	ignore	1000	n/a	n/a	1
96.4670000000	n/a	96467	ignore	1700	n/a	n/a	1
98.1670000000	n/a	98167	ignore	544	n/a	n/a	1
99.7840000000	n/a	99784	ignore	1000	n/a	n/a	1
101.7840000000	n/a	101784	ignore	1700	n/a	n/a	1
103.4840000000	n/a	103484	ignore	486	n/a	n/a	1
105.0340000000	n/a	105034	ignore	1000	n/a	n/a	1
107.0340000000	n/a	107034	ignore	1700	n/a	n/a	1
108.7340000000	n/a	108734	ignore	2311	n/a	n/a	1
111.1170000000	n/a	111117	ignore 	2000	n/a	n/a	1
130.2840000000	n/a	130284	PenaltyB1	1438	n/a	n/a	1
132.7840000000	n/a	132784	NeuCorrB1	1000	n/a	n/a	1
134.7840000000	n/a	134784	ignore	1700	n/a	n/a	1
136.4840000000	n/a	136484	PenaltyB1	1163	n/a	n/a	0
138.7170000000	n/a	138717	PunIncorrB1	1000	n/a	n/a	1
140.7170000000	n/a	140717	ignore	1700	n/a	n/a	1
142.4170000000	n/a	142417	PenaltyB1	565	n/a	n/a	0
144.0500000000	n/a	144050	PunIncorrB1	1000	n/a	n/a	1
146.0500000000	n/a	146050	STATUS	1700	n/a	n/a	1
147.7500000000	n/a	147750	RewardB1	1752	n/a	n/a	1
150.5670000000	n/a	150567	RewardCorrB1	1000	n/a	n/a	1
152.5670000000	n/a	152567	ignore	1700	n/a	n/a	1
154.2670000000	n/a	154267	RewardB1	1334	n/a	n/a	1
156.6670000000	n/a	156667	RewardCorrB1	1000	n/a	n/a	1
158.6670000000	n/a	158667	ignore	1700	n/a	n/a	1
160.3670000000	n/a	160367	PenaltyB1	1131	n/a	n/a	1
162.5670000000	n/a	162567	NeuCorrB1	1000	n/a	n/a	1
164.5670000000	n/a	164567	ignore	1700	n/a	n/a	1
166.2670000000	n/a	166267	PenaltyB1	1486	n/a	n/a	1
168.8170000000	n/a	168817	NeuCorrB1	1000	n/a	n/a	1
170.8170000000	n/a	170817	ignore	1700	n/a	n/a	1
172.5170000000	n/a	172517	PenaltyB1	873	n/a	n/a	1
174.4670000000	n/a	174467	NeuCorrB1	1000	n/a	n/a	1
176.4670000000	n/a	176467	ignore	1700	n/a	n/a	1
178.1670000000	n/a	178167	PenaltyB1	853	n/a	n/a	1
180.0840000000	n/a	180084	PunCorrB1	1000	n/a	n/a	1
182.0840000000	n/a	182084	ignore	1700	n/a	n/a	1
183.7840000000	n/a	183784	RewardB1	936	n/a	n/a	0
185.7840000000	n/a	185784	NeuIncorrB1	1000	n/a	n/a	1
187.7840000000	n/a	187784	ignore	1700	n/a	n/a	1
189.4840000000	n/a	189484	PenaltyB1	1137	n/a	n/a	1
191.6840000000	n/a	191684	NeuCorrB1	1000	n/a	n/a	1
193.6840000000	n/a	193684	ignore	1700	n/a	n/a	1
195.3840000000	n/a	195384	RewardB1	1080	n/a	n/a	1
197.5340000000	n/a	197534	NeuCorrB1	1000	n/a	n/a	1
199.5340000000	n/a	199534	ignore	1700	n/a	n/a	1
201.2340000000	n/a	201234	PenaltyB1	1547	n/a	n/a	0
203.8500000000	n/a	203850	PunIncorrB1	1000	n/a	n/a	1
205.8500000000	n/a	205850	STATUS	1700	n/a	n/a	1
207.5500000000	n/a	207550	RewardB1	822	n/a	n/a	1
209.4500000000	n/a	209450	RewardCorrB1	1000	n/a	n/a	1
211.4500000000	n/a	211450	ignore	1700	n/a	n/a	1
213.1500000000	n/a	213150	PenaltyB1	547	n/a	n/a	1
214.7670000000	n/a	214767	NeuCorrB1	1000	n/a	n/a	1
216.7670000000	n/a	216767	ignore	1700	n/a	n/a	1
218.4670000000	n/a	218467	PenaltyB1	992	n/a	n/a	1
220.5340000000	n/a	220534	NeuCorrB1	1000	n/a	n/a	1
222.5340000000	n/a	222534	ignore	1700	n/a	n/a	1
224.2340000000	n/a	224234	RewardB1	686	n/a	n/a	1
225.9840000000	n/a	225984	NeuCorrB1	1000	n/a	n/a	1
227.9840000000	n/a	227984	ignore	1700	n/a	n/a	1
229.6830000000	n/a	229683	PenaltyB1	1470	n/a	n/a	1
232.2170000000	n/a	232217	NeuCorrB1	1000	n/a	n/a	1
234.2170000000	n/a	234217	ignore	1700	n/a	n/a	1
235.9170000000	n/a	235917	RewardB1	571	n/a	n/a	1
237.5500000000	n/a	237550	RewardCorrB1	1000	n/a	n/a	1
239.5500000000	n/a	239550	ignore	1700	n/a	n/a	1
241.2500000000	n/a	241250	RewardB1	637	n/a	n/a	1
242.9500000000	n/a	242950	RewardCorrB1	1000	n/a	n/a	1
244.9500000000	n/a	244950	ignore	1700	n/a	n/a	1
246.6500000000	n/a	246650	RewardB1	1627	n/a	n/a	0
249.3500000000	n/a	249350	RewIncorrB1	1000	n/a	n/a	1
251.3500000000	n/a	251350	ignore	1700	n/a	n/a	1
253.0500000000	n/a	253050	RewardB1	525	n/a	n/a	0
254.6500000000	n/a	254650	NeuIncorrB1	1000	n/a	n/a	1
256.6500000000	n/a	256650	ignore	1700	n/a	n/a	1
258.3500000000	n/a	258350	RewardB1	533	n/a	n/a	1
259.9500000000	n/a	259950	RewardCorrB1	1000	n/a	n/a	1
261.9500000000	n/a	261950	ignore	1700	n/a	n/a	1
263.6500000000	n/a	263650	PenaltyB1	652	n/a	n/a	1
265.3670000000	n/a	265367	NeuCorrB1	1000	n/a	n/a	1
267.3670000000	n/a	267367	ignore	1700	n/a	n/a	1
269.0670000000	n/a	269067	RewardB1	535	n/a	n/a	0
270.6670000000	n/a	270667	NeuIncorrB1	1000	n/a	n/a	1
272.6670000000	n/a	272667	ignore	1700	n/a	n/a	1
274.3670000000	n/a	274367	PenaltyB1	1800	n/a	n/a	1
277.2330000000	n/a	277233	PunCorrB1	1000	n/a	n/a	1
279.2330000000	n/a	279233	ignore	1700	n/a	n/a	1
280.9330000000	n/a	280933	RewardB1	635	n/a	n/a	0
282.6330000000	n/a	282633	NeuIncorrB1	1000	n/a	n/a	1
284.6330000000	n/a	284633	ignore	1700	n/a	n/a	1
286.3330000000	n/a	286333	RewardB1	478	n/a	n/a	1
287.8830000000	n/a	287883	RewardCorrB1	1000	n/a	n/a	1
289.8830000000	n/a	289883	ignore	1700	n/a	n/a	1
291.5830000000	n/a	291583	RewardB1	583	n/a	n/a	0
293.2330000000	n/a	293233	NeuIncorrB1	1000	n/a	n/a	1
295.2330000000	n/a	295233	ignore	1700	n/a	n/a	1
296.9330000000	n/a	296933	PenaltyB1	368	n/a	n/a	0
298.3670000000	n/a	298367	PunIncorrB1	1000	n/a	n/a	1
300.3670000000	n/a	300367	ignore	1700	n/a	n/a	1
302.0670000000	n/a	302067	RewardB1	726	n/a	n/a	0
303.8670000000	n/a	303867	RewIncorrB1	1000	n/a	n/a	1
305.8670000000	n/a	305867	ignore	1700	n/a	n/a	1
307.5670000000	n/a	307567	PenaltyB1	1782	n/a	n/a	1
310.4170000000	n/a	310417	NeuCorrB1	1000	n/a	n/a	1
312.4170000000	n/a	312417	ignore	1700	n/a	n/a	1
314.1170000000	n/a	314117	RewardB1	733	n/a	n/a	1
315.9170000000	n/a	315917	RewardCorrB1	1000	n/a	n/a	1
317.9170000000	n/a	317917	ignore	1700	n/a	n/a	1
319.6170000000	n/a	319617	PenaltyB1	1259	n/a	n/a	0
321.9500000000	n/a	321950	NeuIncorrB1	1000	n/a	n/a	1
323.9500000000	n/a	323950	ignore	1700	n/a	n/a	1
325.6500000000	n/a	325650	RewardB1	559	n/a	n/a	0
327.2830000000	n/a	327283	NeuIncorrB1	1000	n/a	n/a	1
329.2830000000	n/a	329283	ignore	1700	n/a	n/a	1
330.9830000000	n/a	330983	PenaltyB1	467	n/a	n/a	0
332.5170000000	n/a	332517	PunIncorrB1	1000	n/a	n/a	1
334.5170000000	n/a	334517	ignore	1700	n/a	n/a	1
336.2170000000	n/a	336217	PenaltyB1	1626	n/a	n/a	1
338.9170000000	n/a	338917	NeuCorrB1	1000	n/a	n/a	1
340.9170000000	n/a	340917	ignore	1700	n/a	n/a	1
342.6170000000	n/a	342617	RewardB1	493	n/a	n/a	0
344.1830000000	n/a	344183	NeuIncorrB1	1000	n/a	n/a	1
346.1830000000	n/a	346183	ignore	1700	n/a	n/a	1
347.8830000000	n/a	347883	PenaltyB1	1376	n/a	n/a	1
350.3330000000	n/a	350333	PunCorrB1	1000	n/a	n/a	1
352.3330000000	n/a	352333	ignore	1700	n/a	n/a	1
354.0330000000	n/a	354033	RewardB1	449	n/a	n/a	1
355.5500000000	n/a	355550	RewardCorrB1	1000	n/a	n/a	1
357.5500000000	n/a	357550	ignore	1700	n/a	n/a	1
366.0000000000	n/a	366000	RewardB2	1037	n/a	n/a	1
368.1000000000	n/a	368100	RewardCorrB2	1000	n/a	n/a	1
370.1000000000	n/a	370100	ignore	1700	n/a	n/a	1
371.8000000000	n/a	371800	PenaltyB2	2572	n/a	n/a	0
375.4500000000	n/a	375450	PunIncorrB2	1000	n/a	n/a	1
377.4500000000	n/a	377450	ignore	1700	n/a	n/a	1
379.1500000000	n/a	379150	RewardB2	494	n/a	n/a	1
380.7170000000	n/a	380717	RewardCorrB2	1000	n/a	n/a	1
382.7170000000	n/a	382717	ignore	1700	n/a	n/a	1
384.4170000000	n/a	384417	RewardB2	555	n/a	n/a	0
386.0500000000	n/a	386050	RewIncorrB2	1000	n/a	n/a	1
388.0500000000	n/a	388050	ignore	1700	n/a	n/a	1
389.7500000000	n/a	389750	PenaltyB2	1311	n/a	n/a	0
392.1330000000	n/a	392133	PunIncorrB2	1000	n/a	n/a	1
394.1330000000	n/a	394133	ignore	1700	n/a	n/a	1
395.8330000000	n/a	395833	RewardB2	612	n/a	n/a	0
397.5170000000	n/a	397517	NeuIncorrB2	1000	n/a	n/a	1
399.5170000000	n/a	399517	ignore	1700	n/a	n/a	1
401.2170000000	n/a	401217	PenaltyB2	557	n/a	n/a	0
402.8500000000	n/a	402850	PunIncorrB2	1000	n/a	n/a	1
404.8500000000	n/a	404850	ignore	1700	n/a	n/a	1
406.5500000000	n/a	406550	RewardB2	487	n/a	n/a	0
408.1000000000	n/a	408100	NeuIncorrB2	1000	n/a	n/a	1
410.1000000000	n/a	410100	ignore	1700	n/a	n/a	1
411.8000000000	n/a	411800	PenaltyB2	1488	n/a	n/a	1
414.3660000000	n/a	414366	NeuCorrB2	1000	n/a	n/a	1
416.3670000000	n/a	416367	ignore	1700	n/a	n/a	1
418.0660000000	n/a	418066	RewardB2	490	n/a	n/a	1
419.6330000000	n/a	419633	RewardCorrB2	1000	n/a	n/a	1
421.6330000000	n/a	421633	ignore	1700	n/a	n/a	1
423.3330000000	n/a	423333	PenaltyB2	3602	n/a	n/a	1
428.0000000000	n/a	428000	PunCorrB2	1000	n/a	n/a	1
430.0000000000	n/a	430000	ignore	1700	n/a	n/a	1
431.7000000000	n/a	431700	RewardB2	398	n/a	n/a	1
433.1660000000	n/a	433166	RewardCorrB2	1000	n/a	n/a	1
435.1670000000	n/a	435167	ignore	1700	n/a	n/a	1
436.8660000000	n/a	436866	PenaltyB2	1359	n/a	n/a	0
439.3000000000	n/a	439300	PunIncorrB2	1000	n/a	n/a	1
441.3000000000	n/a	441300	ignore	1700	n/a	n/a	1
443.0000000000	n/a	443000	RewardB2	2058	n/a	n/a	0
446.1330000000	n/a	446133	NeuIncorrB2	1000	n/a	n/a	1
448.1330000000	n/a	448133	ignore	1700	n/a	n/a	1
449.8330000000	n/a	449833	PenaltyB2	525	n/a	n/a	1
451.4330000000	n/a	451433	NeuCorrB2	1000	n/a	n/a	1
453.4330000000	n/a	453433	ignore	1700	n/a	n/a	1
455.1330000000	n/a	455133	RewardB2	590	n/a	n/a	0
456.8000000000	n/a	456800	RewIncorrB2	1000	n/a	n/a	1
458.8000000000	n/a	458800	ignore	1700	n/a	n/a	1
460.5000000000	n/a	460500	PenaltyB2	1903	n/a	n/a	1
463.4660000000	n/a	463466	NeuCorrB2	1000	n/a	n/a	1
465.4660000000	n/a	465466	ignore	1700	n/a	n/a	1
467.1660000000	n/a	467166	RewardB2	559	n/a	n/a	0
468.8000000000	n/a	468800	NeuIncorrB2	1000	n/a	n/a	1
470.8000000000	n/a	470800	ignore	1700	n/a	n/a	1
472.5000000000	n/a	472500	PenaltyB2	661	n/a	n/a	0
474.2330000000	n/a	474233	PunIncorrB2	1000	n/a	n/a	1
476.2330000000	n/a	476233	ignore	1700	n/a	n/a	1
477.9330000000	n/a	477933	RewardB2	552	n/a	n/a	1
479.5500000000	n/a	479550	RewardCorrB2	1000	n/a	n/a	1
481.5500000000	n/a	481550	ignore	1700	n/a	n/a	1
483.2500000000	n/a	483250	PenaltyB2	1100	n/a	n/a	1
485.4160000000	n/a	485416	PunCorrB2	1000	n/a	n/a	1
487.4160000000	n/a	487416	ignore	1700	n/a	n/a	1
489.1160000000	n/a	489116	PenaltyB2	1987	n/a	n/a	0
492.1660000000	n/a	492166	PunIncorrB2	1000	n/a	n/a	1
494.1660000000	n/a	494166	ignore	1700	n/a	n/a	1
495.8660000000	n/a	495866	PenaltyB2	833	n/a	n/a	0
497.7660000000	n/a	497766	PunIncorrB2	1000	n/a	n/a	1
499.7660000000	n/a	499766	ignore	1700	n/a	n/a	1
501.4660000000	n/a	501466	RewardB2	474	n/a	n/a	0
503.0160000000	n/a	503016	NeuIncorrB2	1000	n/a	n/a	1
505.0160000000	n/a	505016	ignore	1700	n/a	n/a	1
506.7160000000	n/a	506716	RewardB2	419	n/a	n/a	1
508.2000000000	n/a	508200	NeuCorrB2	1000	n/a	n/a	1
510.2000000000	n/a	510200	ignore	1700	n/a	n/a	1
511.9000000000	n/a	511900	RewardB2	574	n/a	n/a	1
513.5500000000	n/a	513550	RewardCorrB2	1000	n/a	n/a	1
515.5500000000	n/a	515550	ignore	1700	n/a	n/a	1
517.2500000000	n/a	517250	PenaltyB2	1310	n/a	n/a	0
519.6330000000	n/a	519633	PunIncorrB2	1000	n/a	n/a	1
521.6330000000	n/a	521633	ignore	1700	n/a	n/a	1
523.3330000000	n/a	523333	PenaltyB2	848	n/a	n/a	1
525.2500000000	n/a	525250	NeuCorrB2	1000	n/a	n/a	1
527.2500000000	n/a	527250	ignore	1700	n/a	n/a	1
528.9500000000	n/a	528950	RewardB2	557	n/a	n/a	0
530.5830000000	n/a	530583	NeuIncorrB2	1000	n/a	n/a	1
532.5830000000	n/a	532583	ignore	1700	n/a	n/a	1
534.2830000000	n/a	534283	PenaltyB2	2200	n/a	n/a	1
537.5500000000	n/a	537550	NeuCorrB2	1000	n/a	n/a	1
539.5500000000	n/a	539550	ignore	1700	n/a	n/a	1
541.2500000000	n/a	541250	RewardB2	464	n/a	n/a	1
542.7830000000	n/a	542783	NeuCorrB2	1000	n/a	n/a	1
544.7830000000	n/a	544783	ignore	1700	n/a	n/a	1
546.4830000000	n/a	546483	PenaltyB2	1013	n/a	n/a	0
548.5660000000	n/a	548566	PunIncorrB2	1000	n/a	n/a	1
550.5660000000	n/a	550566	ignore	1700	n/a	n/a	1
552.2660000000	n/a	552266	RewardB2	506	n/a	n/a	0
553.8500000000	n/a	553850	NeuIncorrB2	1000	n/a	n/a	1
555.8500000000	n/a	555850	ignore	1700	n/a	n/a	1
557.5500000000	n/a	557550	PenaltyB2	693	n/a	n/a	0
559.3160000000	n/a	559316	PunIncorrB2	1000	n/a	n/a	1
561.3160000000	n/a	561316	ignore	1700	n/a	n/a	1
563.0160000000	n/a	563016	PenaltyB2	543	n/a	n/a	0
564.6330000000	n/a	564633	NeuIncorrB2	1000	n/a	n/a	1
566.6330000000	n/a	566633	ignore	1700	n/a	n/a	1
568.3330000000	n/a	568333	RewardB2	352	n/a	n/a	1
569.7500000000	n/a	569750	RewardCorrB2	1000	n/a	n/a	1
571.7500000000	n/a	571750	ignore	1700	n/a	n/a	1
573.4500000000	n/a	573450	PenaltyB2	1645	n/a	n/a	1
576.1660000000	n/a	576166	NeuCorrB2	1000	n/a	n/a	1
578.1660000000	n/a	578166	ignore	1700	n/a	n/a	1
579.8660000000	n/a	579866	RewardB2	473	n/a	n/a	0
581.4160000000	n/a	581416	NeuIncorrB2	1000	n/a	n/a	1
583.4160000000	n/a	583416	ignore	1700	n/a	n/a	1
585.1160000000	n/a	585116	PenaltyB2	1723	n/a	n/a	1
587.9160000000	n/a	587916	PunCorrB2	1000	n/a	n/a	1
589.9160000000	n/a	589916	ignore	1700	n/a	n/a	1
591.6160000000	n/a	591616	RewardB2	522	n/a	n/a	1
593.2160000000	n/a	593216	RewardCorrB2	1000	n/a	n/a	1
595.2160000000	n/a	595216	ignore	1700	n/a	n/a	1
632.9660000000	n/a	632966	RewardB3	661	n/a	n/a	1
634.6990000000	n/a	634699	RewardCorrB3	1000	n/a	n/a	1
636.6990000000	n/a	636699	ignore	1700	n/a	n/a	1
638.3990000000	n/a	638399	PenaltyB3	1767	n/a	n/a	0
641.2330000000	n/a	641233	NeuIncorrB3	1000	n/a	n/a	1
643.2330000000	n/a	643233	ignore	1700	n/a	n/a	1
644.9330000000	n/a	644933	RewardB3	595	n/a	n/a	0
646.5990000000	n/a	646599	NeuIncorrB3	1000	n/a	n/a	1
648.5990000000	n/a	648599	ignore	1700	n/a	n/a	1
650.2990000000	n/a	650299	PenaltyB3	1033	n/a	n/a	0
652.3990000000	n/a	652399	PunIncorrB3	1000	n/a	n/a	1
654.3990000000	n/a	654399	ignore	1700	n/a	n/a	1
656.0990000000	n/a	656099	PenaltyB3	1445	n/a	n/a	1
658.6160000000	n/a	658616	NeuCorrB3	1000	n/a	n/a	1
660.6160000000	n/a	660616	ignore	1700	n/a	n/a	1
662.3160000000	n/a	662316	RewardB3	624	n/a	n/a	0
664.0160000000	n/a	664016	NeuIncorrB3	1000	n/a	n/a	1
666.0160000000	n/a	666016	ignore	1700	n/a	n/a	1
667.7160000000	n/a	667716	PenaltyB3	2394	n/a	n/a	0
671.1830000000	n/a	671183	NeuIncorrB3	1000	n/a	n/a	1
673.1830000000	n/a	673183	ignore	1700	n/a	n/a	1
674.8830000000	n/a	674883	RewardB3	465	n/a	n/a	1
676.4160000000	n/a	676416	RewardCorrB3	1000	n/a	n/a	1
678.4160000000	n/a	678416	ignore	1700	n/a	n/a	1
680.1160000000	n/a	680116	PenaltyB3	1925	n/a	n/a	1
683.1160000000	n/a	683116	NeuCorrB3	1000	n/a	n/a	1
685.1160000000	n/a	685116	ignore	1700	n/a	n/a	1
686.8160000000	n/a	686816	RewardB3	1455	n/a	n/a	0
689.3490000000	n/a	689349	RewIncorrB3	1000	n/a	n/a	1
691.3490000000	n/a	691349	ignore	1700	n/a	n/a	1
693.0490000000	n/a	693049	PenaltyB3	1922	n/a	n/a	1
696.0490000000	n/a	696049	NeuCorrB3	1000	n/a	n/a	1
698.0490000000	n/a	698049	ignore	1700	n/a	n/a	1
699.7490000000	n/a	699749	RewardB3	621	n/a	n/a	0
701.4330000000	n/a	701433	NeuIncorrB3	1000	n/a	n/a	1
703.4330000000	n/a	703433	ignore	1700	n/a	n/a	1
705.1330000000	n/a	705133	RewardB3	608	n/a	n/a	1
706.8160000000	n/a	706816	RewardCorrB3	1000	n/a	n/a	1
708.8160000000	n/a	708816	ignore	1700	n/a	n/a	1
710.5160000000	n/a	710516	RewardB3	603	n/a	n/a	0
712.1830000000	n/a	712183	NeuIncorrB3	1000	n/a	n/a	1
714.1830000000	n/a	714183	ignore	1700	n/a	n/a	1
715.8830000000	n/a	715883	PenaltyB3	2491	n/a	n/a	1
719.4490000000	n/a	719449	PunCorrB3	1000	n/a	n/a	1
721.4490000000	n/a	721449	ignore	1700	n/a	n/a	1
723.1490000000	n/a	723149	RewardB3	480	n/a	n/a	0
724.6990000000	n/a	724699	NeuIncorrB3	1000	n/a	n/a	1
726.6990000000	n/a	726699	ignore	1700	n/a	n/a	1
728.3990000000	n/a	728399	PenaltyB3	2513	n/a	n/a	0
731.9830000000	n/a	731983	PunIncorrB3	1000	n/a	n/a	1
733.9830000000	n/a	733983	ignore	1700	n/a	n/a	1
735.6830000000	n/a	735683	RewardB3	1393	n/a	n/a	1
738.1490000000	n/a	738149	RewardCorrB3	1000	n/a	n/a	1
740.1490000000	n/a	740149	ignore	1700	n/a	n/a	1
741.8490000000	n/a	741849	RewardB3	586	n/a	n/a	0
743.4990000000	n/a	743499	NeuIncorrB3	1000	n/a	n/a	1
745.4990000000	n/a	745499	ignore	1700	n/a	n/a	1
747.1990000000	n/a	747199	RewardB3	1190	n/a	n/a	0
749.4660000000	n/a	749466	RewIncorrB3	1000	n/a	n/a	1
751.4660000000	n/a	751466	ignore	1700	n/a	n/a	1
753.1660000000	n/a	753166	RewardB3	552	n/a	n/a	1
754.7830000000	n/a	754783	RewardCorrB3	1000	n/a	n/a	1
756.7830000000	n/a	756783	ignore	1700	n/a	n/a	1
758.4830000000	n/a	758483	RewardB3	1315	n/a	n/a	1
760.8660000000	n/a	760866	RewardCorrB3	1000	n/a	n/a	1
762.8660000000	n/a	762866	ignore	1700	n/a	n/a	1
764.5660000000	n/a	764566	PenaltyB3	3068	n/a	n/a	1
768.6990000000	n/a	768699	NeuCorrB3	1000	n/a	n/a	1
770.6990000000	n/a	770699	ignore	1700	n/a	n/a	1
772.3990000000	n/a	772399	RewardB3	516	n/a	n/a	1
773.9830000000	n/a	773983	NeuCorrB3	1000	n/a	n/a	1
775.9830000000	n/a	775983	ignore	1700	n/a	n/a	1
777.6830000000	n/a	777683	PenaltyB3	1086	n/a	n/a	0
779.8330000000	n/a	779833	PunIncorrB3	1000	n/a	n/a	1
781.8330000000	n/a	781833	ignore	1700	n/a	n/a	1
783.5320000000	n/a	783532	PenaltyB3	1290	n/a	n/a	0
785.8990000000	n/a	785899	PunIncorrB3	1000	n/a	n/a	1
787.8990000000	n/a	787899	ignore	1700	n/a	n/a	1
789.5990000000	n/a	789599	RewardB3	435	n/a	n/a	1
791.0990000000	n/a	791099	RewardCorrB3	1000	n/a	n/a	1
793.0990000000	n/a	793099	ignore	1700	n/a	n/a	1
794.7990000000	n/a	794799	PenaltyB3	483	n/a	n/a	1
796.3490000000	n/a	796349	NeuCorrB3	1000	n/a	n/a	1
798.3490000000	n/a	798349	ignore	1700	n/a	n/a	1
800.0490000000	n/a	800049	RewardB3	1185	n/a	n/a	1
802.2990000000	n/a	802299	NeuCorrB3	1000	n/a	n/a	1
804.2990000000	n/a	804299	ignore	1700	n/a	n/a	1
805.9990000000	n/a	805999	PenaltyB3	1492	n/a	n/a	1
808.5660000000	n/a	808566	NeuCorrB3	1000	n/a	n/a	1
810.5660000000	n/a	810566	ignore	1700	n/a	n/a	1
812.2660000000	n/a	812266	RewardB3	636	n/a	n/a	0
813.9660000000	n/a	813966	NeuIncorrB3	1000	n/a	n/a	1
815.9660000000	n/a	815966	ignore	1700	n/a	n/a	1
817.6660000000	n/a	817666	PenaltyB3	598	n/a	n/a	1
819.3320000000	n/a	819332	PunCorrB3	1000	n/a	n/a	1
821.3320000000	n/a	821332	ignore	1700	n/a	n/a	1
823.0320000000	n/a	823032	PenaltyB3	1304	n/a	n/a	0
825.3990000000	n/a	825399	PunIncorrB3	1000	n/a	n/a	1
827.3990000000	n/a	827399	ignore	1700	n/a	n/a	1
829.0990000000	n/a	829099	PenaltyB3	840	n/a	n/a	0
831.0160000000	n/a	831016	PunIncorrB3	1000	n/a	n/a	1
833.0160000000	n/a	833016	ignore	1700	n/a	n/a	1
834.7160000000	n/a	834716	PenaltyB3	1091	n/a	n/a	0
836.8820000000	n/a	836882	PunIncorrB3	1000	n/a	n/a	1
838.8820000000	n/a	838882	ignore	1700	n/a	n/a	1
840.5820000000	n/a	840582	RewardB3	596	n/a	n/a	0
842.2490000000	n/a	842249	NeuIncorrB3	1000	n/a	n/a	1
844.2490000000	n/a	844249	ignore	1700	n/a	n/a	1
845.9490000000	n/a	845949	RewardB3	513	n/a	n/a	1
847.5320000000	n/a	847532	RewardCorrB3	1000	n/a	n/a	1
849.5320000000	n/a	849532	ignore	1700	n/a	n/a	1
851.2320000000	n/a	851232	PenaltyB3	2933	n/a	n/a	0
855.2320000000	n/a	855232	PunIncorrB3	1000	n/a	n/a	1
857.2320000000	n/a	857232	ignore	1700	n/a	n/a	1
858.9320000000	n/a	858932	PenaltyB3	1225	n/a	n/a	1
861.2320000000	n/a	861232	NeuCorrB3	1000	n/a	n/a	1
863.2320000000	n/a	863232	ignore	1700	n/a	n/a	1
864.9320000000	n/a	864932	PenaltyB3	1687	n/a	n/a	1
867.6820000000	n/a	867682	NeuCorrB3	1000	n/a	n/a	1
869.6820000000	n/a	869682	ignore	1700	n/a	n/a	1
876.7490000000	n/a	876749	RewardB4	800	n/a	n/a	1
878.6160000000	n/a	878616	RewardCorrB4	1000	n/a	n/a	1
880.6160000000	n/a	880616	ignore	1700	n/a	n/a	1
882.3160000000	n/a	882316	PenaltyB4	1487	n/a	n/a	1
884.8660000000	n/a	884866	PunCorrB4	1000	n/a	n/a	1
886.8660000000	n/a	886866	ignore	1700	n/a	n/a	1
888.5660000000	n/a	888566	RewardB4	1274	n/a	n/a	0
890.9160000000	n/a	890916	NeuIncorrB4	1000	n/a	n/a	1
892.9160000000	n/a	892916	ignore	1700	n/a	n/a	1
894.6160000000	n/a	894616	PenaltyB4	551	n/a	n/a	0
896.2320000000	n/a	896232	PunIncorrB4	1000	n/a	n/a	1
898.2320000000	n/a	898232	ignore	1700	n/a	n/a	1
899.9320000000	n/a	899932	RewardB4	441	n/a	n/a	1
901.4490000000	n/a	901449	RewardCorrB4	1000	n/a	n/a	1
903.4490000000	n/a	903449	ignore	1700	n/a	n/a	1
905.1490000000	n/a	905149	PenaltyB4	1286	n/a	n/a	0
907.4990000000	n/a	907499	NeuIncorrB4	1000	n/a	n/a	1
909.4990000000	n/a	909499	ignore	1700	n/a	n/a	1
911.1990000000	n/a	911199	PenaltyB4	1924	n/a	n/a	1
914.1990000000	n/a	914199	NeuCorrB4	1000	n/a	n/a	1
916.1990000000	n/a	916199	ignore	1700	n/a	n/a	1
917.8990000000	n/a	917899	RewardB4	634	n/a	n/a	0
919.5990000000	n/a	919599	NeuIncorrB4	1000	n/a	n/a	1
921.5990000000	n/a	921599	ignore	1700	n/a	n/a	1
923.2990000000	n/a	923299	PenaltyB4	945	n/a	n/a	0
925.3160000000	n/a	925316	PunIncorrB4	1000	n/a	n/a	1
927.3160000000	n/a	927316	ignore	1700	n/a	n/a	1
929.0160000000	n/a	929016	RewardB4	639	n/a	n/a	1
930.7320000000	n/a	930732	NeuCorrB4	1000	n/a	n/a	1
932.7320000000	n/a	932732	ignore	1700	n/a	n/a	1
934.4320000000	n/a	934432	PenaltyB4	3598	n/a	n/a	1
939.0990000000	n/a	939099	NeuCorrB4	1000	n/a	n/a	1
941.0990000000	n/a	941099	ignore	1700	n/a	n/a	1
942.7990000000	n/a	942799	RewardB4	640	n/a	n/a	0
944.5160000000	n/a	944516	NeuIncorrB4	1000	n/a	n/a	1
946.5160000000	n/a	946516	ignore	1700	n/a	n/a	1
948.2160000000	n/a	948216	PenaltyB4	1416	n/a	n/a	1
950.6990000000	n/a	950699	NeuCorrB4	1000	n/a	n/a	1
952.6990000000	n/a	952699	ignore	1700	n/a	n/a	1
954.3990000000	n/a	954399	PenaltyB4	1175	n/a	n/a	0
956.6490000000	n/a	956649	PunIncorrB4	1000	n/a	n/a	1
958.6490000000	n/a	958649	STATUS	1700	n/a	n/a	1
960.3490000000	n/a	960349	RewardB4	564	n/a	n/a	1
961.9820000000	n/a	961982	RewardCorrB4	1000	n/a	n/a	1
963.9820000000	n/a	963982	ignore	1700	n/a	n/a	1
965.6820000000	n/a	965682	RewardB4	665	n/a	n/a	1
967.4160000000	n/a	967416	NeuCorrB4	1000	n/a	n/a	1
969.4160000000	n/a	969416	ignore	1700	n/a	n/a	1
971.1150000000	n/a	971115	RewardB4	633	n/a	n/a	0
972.8150000000	n/a	972815	NeuIncorrB4	1000	n/a	n/a	1
974.8160000000	n/a	974816	ignore	1700	n/a	n/a	1
976.5150000000	n/a	976515	PenaltyB4	1162	n/a	n/a	1
978.7490000000	n/a	978749	NeuCorrB4	1000	n/a	n/a	1
980.7490000000	n/a	980749	ignore	1700	n/a	n/a	1
982.4490000000	n/a	982449	PenaltyB4	1431	n/a	n/a	1
984.9490000000	n/a	984949	NeuCorrB4	1000	n/a	n/a	1
986.9490000000	n/a	986949	ignore	1700	n/a	n/a	1
988.6490000000	n/a	988649	PenaltyB4	1864	n/a	n/a	1
991.5820000000	n/a	991582	PunCorrB4	1000	n/a	n/a	1
993.5820000000	n/a	993582	STATUS	1700	n/a	n/a	1
995.2820000000	n/a	995282	RewardB4	472	n/a	n/a	1
996.8320000000	n/a	996832	RewardCorrB4	1000	n/a	n/a	1
998.8320000000	n/a	998832	ignore	1700	n/a	n/a	1
1000.5320000000	n/a	1000532	PenaltyB4	2355	n/a	n/a	0
1003.9650000000	n/a	1003965	PunIncorrB4	1000	n/a	n/a	1
1005.9650000000	n/a	1005965	STATUS	1700	n/a	n/a	1
1007.6650000000	n/a	1007665	RewardB4	490	n/a	n/a	0
1009.2320000000	n/a	1009232	NeuIncorrB4	1000	n/a	n/a	1
1011.2320000000	n/a	1011232	STATUS	1700	n/a	n/a	1
1012.9320000000	n/a	1012932	PenaltyB4	856	n/a	n/a	1
1014.8650000000	n/a	1014865	NeuCorrB4	1000	n/a	n/a	1
1016.8650000000	n/a	1016865	STATUS	1700	n/a	n/a	1
1018.5650000000	n/a	1018565	RewardB4	532	n/a	n/a	0
1020.1650000000	n/a	1020165	RewIncorrB4	1000	n/a	n/a	1
1022.1650000000	n/a	1022165	ignore	1700	n/a	n/a	1
1023.8650000000	n/a	1023865	PenaltyB4	1611	n/a	n/a	1
1026.5490000000	n/a	1026549	NeuCorrB4	1000	n/a	n/a	1
1028.5490000000	n/a	1028549	ignore	1700	n/a	n/a	1
1030.2490000000	n/a	1030249	RewardB4	697	n/a	n/a	0
1032.0150000000	n/a	1032015	NeuIncorrB4	1000	n/a	n/a	1
1034.0150000000	n/a	1034015	ignore	1700	n/a	n/a	1
1035.7150000000	n/a	1035715	PenaltyB4	766	n/a	n/a	1
1037.5490000000	n/a	1037549	NeuCorrB4	1000	n/a	n/a	1
1039.5490000000	n/a	1039549	ignore	1700	n/a	n/a	1
1041.2490000000	n/a	1041249	RewardB4	497	n/a	n/a	1
1042.8150000000	n/a	1042815	RewardCorrB4	1000	n/a	n/a	1
1044.8150000000	n/a	1044815	ignore	1700	n/a	n/a	1
1046.5150000000	n/a	1046515	PenaltyB4	573	n/a	n/a	1
1048.1650000000	n/a	1048165	PunCorrB4	1000	n/a	n/a	1
1050.1650000000	n/a	1050165	ignore	1700	n/a	n/a	1
1051.8650000000	n/a	1051865	RewardB4	337	n/a	n/a	1
1053.2650000000	n/a	1053265	RewardCorrB4	1000	n/a	n/a	1
1055.2650000000	n/a	1055265	ignore	1700	n/a	n/a	1
1056.9650000000	n/a	1056965	PenaltyB4	504	n/a	n/a	1
1058.5320000000	n/a	1058532	NeuCorrB4	1000	n/a	n/a	1
1060.5320000000	n/a	1060532	ignore	1700	n/a	n/a	1
1062.2320000000	n/a	1062232	RewardB4	532	n/a	n/a	0
1063.8320000000	n/a	1063832	NeuIncorrB4	1000	n/a	n/a	1
1065.8320000000	n/a	1065832	ignore	1700	n/a	n/a	1
1067.5320000000	n/a	1067532	PenaltyB4	1496	n/a	n/a	1
1070.0990000000	n/a	1070099	NeuCorrB4	1000	n/a	n/a	1
1072.0990000000	n/a	1072099	ignore	1700	n/a	n/a	1
1073.7990000000	n/a	1073799	RewardB4	542	n/a	n/a	0
1075.4150000000	n/a	1075415	NeuIncorrB4	1000	n/a	n/a	1
1077.4150000000	n/a	1077415	ignore	1700	n/a	n/a	1
1079.1150000000	n/a	1079115	PenaltyB4	1176	n/a	n/a	1
1081.3650000000	n/a	1081365	NeuCorrB4	1000	n/a	n/a	1
1083.3650000000	n/a	1083365	ignore	1700	n/a	n/a	1
1085.0650000000	n/a	1085065	RewardB4	601	n/a	n/a	0
1086.7320000000	n/a	1086732	RewIncorrB4	1000	n/a	n/a	1
1088.7320000000	n/a	1088732	ignore	1700	n/a	n/a	1
1090.4320000000	n/a	1090432	RewardB4	552	n/a	n/a	1
1092.0490000000	n/a	1092049	RewardCorrB4	1000	n/a	n/a	1
1094.0490000000	n/a	1094049	ignore	1700	n/a	n/a	1
1095.7490000000	n/a	1095749	PenaltyB4	917	n/a	n/a	0
1097.7320000000	n/a	1097732	PunIncorrB4	1000	n/a	n/a	1
1099.7320000000	n/a	1099732	ignore	1700	n/a	n/a	1
1101.4320000000	n/a	1101432	RewardB4	508	n/a	n/a	1
1103.0150000000	n/a	1103015	RewardCorrB4	1000	n/a	n/a	1
1105.0150000000	n/a	1105015	ignore	1700	n/a	n/a	1
1109.2990000000	n/a	1109299	ignore	1700	n/a	n/a	1
