onset	duration	sample	trial_type	response_time	stim_file	value	correct
3.3500000000	n/a	3350	FrequentFixedSOA	1633	n/a	n/a	1
4.9830000000	n/a	4983	FrequentFixedSOA	1633	n/a	n/a	1
6.6170000000	n/a	6617	FrequentFixedSOA	1633	n/a	n/a	1
8.2500000000	n/a	8250	FrequentFixedSOA	1633	n/a	n/a	1
9.8830000000	n/a	9883	FrequentFixedSOA	1633	n/a	n/a	1
11.5170000000	n/a	11517	FrequentFixedSOA	1633	n/a	n/a	1
13.1500000000	n/a	13150	FrequentFixedSOA	1633	n/a	n/a	1
14.7830000000	n/a	14783	FrequentFixedSOA	1633	n/a	n/a	1
16.4170000000	n/a	16417	FrequentFixedSOA	1633	n/a	n/a	1
18.0500000000	n/a	18050	FrequentFixedSOA	1633	n/a	n/a	1
19.6830000000	n/a	19683	NovelFixedSOA	1633	n/a	n/a	1
21.3170000000	n/a	21317	FrequentFixedSOA	1633	n/a	n/a	1
22.9500000000	n/a	22950	GoFixedSOA	372	n/a	n/a	1
24.5830000000	n/a	24583	FrequentFixedSOA	1633	n/a	n/a	1
26.2170000000	n/a	26217	FrequentFixedSOA	1633	n/a	n/a	1
27.8500000000	n/a	27850	FrequentFixedSOA	1633	n/a	n/a	1
29.4830000000	n/a	29483	GoFixedSOA	350	n/a	n/a	1
31.1170000000	n/a	31117	FrequentFixedSOA	1633	n/a	n/a	1
32.7500000000	n/a	32750	FrequentFixedSOA	1633	n/a	n/a	1
34.3830000000	n/a	34383	FrequentFixedSOA	1633	n/a	n/a	1
36.0160000000	n/a	36016	NovelFixedSOA	1633	n/a	n/a	1
37.6500000000	n/a	37650	FrequentFixedSOA	1633	n/a	n/a	1
39.2830000000	n/a	39283	FrequentFixedSOA	1633	n/a	n/a	1
40.9160000000	n/a	40916	FrequentFixedSOA	1633	n/a	n/a	1
42.5500000000	n/a	42550	GoFixedSOA	338	n/a	n/a	1
44.1830000000	n/a	44183	FrequentFixedSOA	1633	n/a	n/a	1
45.8160000000	n/a	45816	NovelFixedSOA	1633	n/a	n/a	1
47.4500000000	n/a	47450	FrequentFixedSOA	1633	n/a	n/a	1
49.0830000000	n/a	49083	FrequentFixedSOA	1633	n/a	n/a	1
50.7160000000	n/a	50716	FrequentFixedSOA	1633	n/a	n/a	1
52.3500000000	n/a	52350	GoFixedSOA	295	n/a	n/a	1
53.9830000000	n/a	53983	FrequentFixedSOA	1633	n/a	n/a	1
55.6160000000	n/a	55616	GoFixedSOA	415	n/a	n/a	1
57.2500000000	n/a	57250	FrequentFixedSOA	1633	n/a	n/a	1
58.8830000000	n/a	58883	FrequentFixedSOA	1633	n/a	n/a	1
60.5160000000	n/a	60516	GoFixedSOA	420	n/a	n/a	1
62.1500000000	n/a	62150	FrequentFixedSOA	1633	n/a	n/a	1
63.7830000000	n/a	63783	FrequentFixedSOA	1633	n/a	n/a	1
65.4160000000	n/a	65416	FrequentFixedSOA	1633	n/a	n/a	1
67.0500000000	n/a	67050	FrequentFixedSOA	1633	n/a	n/a	1
68.6830000000	n/a	68683	NovelFixedSOA	1633	n/a	n/a	1
70.3160000000	n/a	70316	FrequentFixedSOA	1633	n/a	n/a	1
71.9500000000	n/a	71950	NovelFixedSOA	1633	n/a	n/a	1
73.5830000000	n/a	73583	FrequentFixedSOA	1633	n/a	n/a	1
75.2160000000	n/a	75216	FrequentFixedSOA	1633	n/a	n/a	1
76.8500000000	n/a	76850	GoFixedSOA	291	n/a	n/a	1
78.4830000000	n/a	78483	FrequentFixedSOA	1633	n/a	n/a	1
80.1160000000	n/a	80116	FrequentFixedSOA	1633	n/a	n/a	1
81.7500000000	n/a	81750	FrequentFixedSOA	1633	n/a	n/a	1
83.3830000000	n/a	83383	FrequentFixedSOA	1633	n/a	n/a	1
85.0160000000	n/a	85016	NovelFixedSOA	1633	n/a	n/a	1
86.6500000000	n/a	86650	FrequentFixedSOA	1633	n/a	n/a	1
88.2830000000	n/a	88283	FrequentFixedSOA	1633	n/a	n/a	1
89.9160000000	n/a	89916	FrequentFixedSOA	1633	n/a	n/a	1
91.5500000000	n/a	91550	FrequentFixedSOA	1633	n/a	n/a	1
93.1830000000	n/a	93183	GoFixedSOA	297	n/a	n/a	1
94.8160000000	n/a	94816	FrequentFixedSOA	1633	n/a	n/a	1
96.4500000000	n/a	96450	FrequentFixedSOA	1633	n/a	n/a	1
98.0830000000	n/a	98083	NovelFixedSOA	1633	n/a	n/a	1
99.7160000000	n/a	99716	FrequentFixedSOA	1633	n/a	n/a	1
101.3500000000	n/a	101350	FrequentFixedSOA	1633	n/a	n/a	1
102.9830000000	n/a	102983	GoFixedSOA	378	n/a	n/a	1
104.6160000000	n/a	104616	FrequentFixedSOA	1633	n/a	n/a	1
106.2500000000	n/a	106250	FrequentFixedSOA	1633	n/a	n/a	1
107.8830000000	n/a	107883	FrequentFixedSOA	1633	n/a	n/a	1
109.5160000000	n/a	109516	FrequentFixedSOA	1633	n/a	n/a	1
111.1500000000	n/a	111150	NovelFixedSOA	1633	n/a	n/a	1
112.7830000000	n/a	112783	FrequentFixedSOA	1633	n/a	n/a	1
114.4160000000	n/a	114416	FrequentFixedSOA	1633	n/a	n/a	1
116.0500000000	n/a	116050	GoFixedSOA	324	n/a	n/a	1
117.6830000000	n/a	117683	FrequentVariableSOA	1733	n/a	n/a	1
119.4160000000	n/a	119416	FrequentVariableSOA	1550	n/a	n/a	1
120.9660000000	n/a	120966	FrequentVariableSOA	1766	n/a	n/a	1
122.7330000000	n/a	122733	FrequentVariableSOA	1700	n/a	n/a	1
124.4330000000	n/a	124433	FrequentVariableSOA	1800	n/a	n/a	1
126.2330000000	n/a	126233	FrequentVariableSOA	1600	n/a	n/a	1
127.8330000000	n/a	127833	FrequentVariableSOA	1566	n/a	n/a	1
129.4000000000	n/a	129400	FrequentVariableSOA	1766	n/a	n/a	1
131.1660000000	n/a	131166	FrequentVariableSOA	1650	n/a	n/a	1
132.8160000000	n/a	132816	FrequentVariableSOA	1616	n/a	n/a	1
134.4330000000	n/a	134433	NovelVariableSOA	288	n/a	n/a	0
135.9330000000	n/a	135933	FrequentVariableSOA	1550	n/a	n/a	1
137.4830000000	n/a	137483	GoVariableSOA	478	n/a	n/a	1
139.2660000000	n/a	139266	FrequentVariableSOA	1500	n/a	n/a	1
140.7660000000	n/a	140766	FrequentVariableSOA	1533	n/a	n/a	1
142.3000000000	n/a	142300	FrequentVariableSOA	1733	n/a	n/a	1
144.0330000000	n/a	144033	GoVariableSOA	399	n/a	n/a	1
145.8160000000	n/a	145816	FrequentVariableSOA	1533	n/a	n/a	1
147.3500000000	n/a	147350	FrequentVariableSOA	1733	n/a	n/a	1
149.0830000000	n/a	149083	FrequentVariableSOA	1583	n/a	n/a	1
150.6660000000	n/a	150666	NovelVariableSOA	1616	n/a	n/a	1
152.2830000000	n/a	152283	FrequentVariableSOA	1733	n/a	n/a	1
154.0160000000	n/a	154016	FrequentVariableSOA	1533	n/a	n/a	1
155.5500000000	n/a	155550	FrequentVariableSOA	1600	n/a	n/a	1
157.1500000000	n/a	157150	GoVariableSOA	323	n/a	n/a	1
158.7160000000	n/a	158716	FrequentVariableSOA	1516	n/a	n/a	1
160.2330000000	n/a	160233	NovelVariableSOA	1600	n/a	n/a	1
161.8330000000	n/a	161833	FrequentVariableSOA	1750	n/a	n/a	1
163.5830000000	n/a	163583	FrequentVariableSOA	1733	n/a	n/a	1
165.3160000000	n/a	165316	FrequentVariableSOA	1616	n/a	n/a	1
166.9330000000	n/a	166933	GoVariableSOA	322	n/a	n/a	1
168.5000000000	n/a	168500	FrequentVariableSOA	1766	n/a	n/a	1
170.2660000000	n/a	170266	GoVariableSOA	335	n/a	n/a	1
171.8000000000	n/a	171800	FrequentVariableSOA	1600	n/a	n/a	1
173.4000000000	n/a	173400	FrequentVariableSOA	1500	n/a	n/a	1
174.9000000000	n/a	174900	GoVariableSOA	430	n/a	n/a	1
176.5500000000	n/a	176550	FrequentVariableSOA	1683	n/a	n/a	1
178.2330000000	n/a	178233	FrequentVariableSOA	1783	n/a	n/a	1
180.0160000000	n/a	180016	FrequentVariableSOA	1600	n/a	n/a	1
181.6160000000	n/a	181616	FrequentVariableSOA	1650	n/a	n/a	1
183.2660000000	n/a	183266	NovelVariableSOA	1700	n/a	n/a	1
184.9660000000	n/a	184966	FrequentVariableSOA	1533	n/a	n/a	1
186.5000000000	n/a	186500	NovelVariableSOA	1516	n/a	n/a	1
188.0160000000	n/a	188016	FrequentVariableSOA	1583	n/a	n/a	1
189.6000000000	n/a	189600	FrequentVariableSOA	1600	n/a	n/a	1
191.2000000000	n/a	191200	GoVariableSOA	394	n/a	n/a	1
192.8000000000	n/a	192800	FrequentVariableSOA	1683	n/a	n/a	1
194.4830000000	n/a	194483	FrequentVariableSOA	1700	n/a	n/a	1
196.1830000000	n/a	196183	FrequentVariableSOA	1750	n/a	n/a	1
197.9330000000	n/a	197933	FrequentVariableSOA	1750	n/a	n/a	1
199.6830000000	n/a	199683	NovelVariableSOA	1666	n/a	n/a	1
201.3500000000	n/a	201350	FrequentVariableSOA	1500	n/a	n/a	1
202.8500000000	n/a	202850	FrequentVariableSOA	1750	n/a	n/a	1
204.6000000000	n/a	204600	FrequentVariableSOA	1616	n/a	n/a	1
206.2160000000	n/a	206216	FrequentVariableSOA	1733	n/a	n/a	1
207.9500000000	n/a	207950	GoVariableSOA	326	n/a	n/a	1
209.4830000000	n/a	209483	FrequentVariableSOA	1650	n/a	n/a	1
211.1330000000	n/a	211133	FrequentVariableSOA	1716	n/a	n/a	1
212.8500000000	n/a	212850	NovelVariableSOA	1566	n/a	n/a	1
214.4160000000	n/a	214416	FrequentVariableSOA	1616	n/a	n/a	1
216.0330000000	n/a	216033	FrequentVariableSOA	1750	n/a	n/a	1
217.7830000000	n/a	217783	GoVariableSOA	397	n/a	n/a	1
219.5160000000	n/a	219516	FrequentVariableSOA	1716	n/a	n/a	1
221.2330000000	n/a	221233	FrequentVariableSOA	1583	n/a	n/a	1
222.8160000000	n/a	222816	FrequentVariableSOA	1550	n/a	n/a	1
224.3660000000	n/a	224366	FrequentVariableSOA	1716	n/a	n/a	1
226.0830000000	n/a	226083	NovelVariableSOA	1716	n/a	n/a	1
227.7990000000	n/a	227799	FrequentVariableSOA	1716	n/a	n/a	1
229.5160000000	n/a	229516	FrequentVariableSOA	1566	n/a	n/a	1
231.0830000000	n/a	231083	GoVariableSOA	416	n/a	n/a	1
232.7330000000	n/a	232733	FrequentFixedSOA	1633	n/a	n/a	1
234.3660000000	n/a	234366	FrequentFixedSOA	1633	n/a	n/a	1
235.9990000000	n/a	235999	FrequentFixedSOA	1633	n/a	n/a	1
237.6330000000	n/a	237633	GoFixedSOA	429	n/a	n/a	1
239.2660000000	n/a	239266	FrequentFixedSOA	1633	n/a	n/a	1
240.8990000000	n/a	240899	FrequentFixedSOA	1633	n/a	n/a	1
242.5330000000	n/a	242533	FrequentFixedSOA	1633	n/a	n/a	1
244.1660000000	n/a	244166	GoFixedSOA	383	n/a	n/a	1
245.7990000000	n/a	245799	FrequentFixedSOA	1633	n/a	n/a	1
247.4330000000	n/a	247433	FrequentFixedSOA	1633	n/a	n/a	1
249.0660000000	n/a	249066	FrequentFixedSOA	1633	n/a	n/a	1
250.6990000000	n/a	250699	NovelFixedSOA	1633	n/a	n/a	1
252.3330000000	n/a	252333	FrequentFixedSOA	1633	n/a	n/a	1
253.9660000000	n/a	253966	NovelFixedSOA	1633	n/a	n/a	1
255.5990000000	n/a	255599	FrequentFixedSOA	1633	n/a	n/a	1
257.2330000000	n/a	257233	FrequentFixedSOA	1633	n/a	n/a	1
258.8660000000	n/a	258866	NovelFixedSOA	1633	n/a	n/a	1
260.4990000000	n/a	260499	FrequentFixedSOA	1633	n/a	n/a	1
262.1330000000	n/a	262133	FrequentFixedSOA	1633	n/a	n/a	1
263.7660000000	n/a	263766	FrequentFixedSOA	1633	n/a	n/a	1
265.3990000000	n/a	265399	FrequentFixedSOA	1633	n/a	n/a	1
267.0330000000	n/a	267033	FrequentFixedSOA	1633	n/a	n/a	1
268.6660000000	n/a	268666	NovelFixedSOA	1633	n/a	n/a	1
270.2990000000	n/a	270299	FrequentFixedSOA	1633	n/a	n/a	1
271.9330000000	n/a	271933	FrequentFixedSOA	1633	n/a	n/a	1
273.5660000000	n/a	273566	FrequentFixedSOA	1633	n/a	n/a	1
275.1990000000	n/a	275199	FrequentFixedSOA	1633	n/a	n/a	1
276.8330000000	n/a	276833	FrequentFixedSOA	1633	n/a	n/a	1
278.4660000000	n/a	278466	GoFixedSOA	416	n/a	n/a	1
280.0990000000	n/a	280099	FrequentFixedSOA	1633	n/a	n/a	1
281.7330000000	n/a	281733	FrequentFixedSOA	1633	n/a	n/a	1
283.3660000000	n/a	283366	GoFixedSOA	340	n/a	n/a	1
284.9990000000	n/a	284999	FrequentFixedSOA	1633	n/a	n/a	1
286.6330000000	n/a	286633	NovelFixedSOA	1633	n/a	n/a	1
288.2660000000	n/a	288266	FrequentFixedSOA	1633	n/a	n/a	1
289.8990000000	n/a	289899	GoFixedSOA	1633	n/a	n/a	0
291.5330000000	n/a	291533	FrequentFixedSOA	1633	n/a	n/a	1
293.1660000000	n/a	293166	GoFixedSOA	1633	n/a	n/a	0
294.7990000000	n/a	294799	FrequentFixedSOA	1633	n/a	n/a	1
296.4330000000	n/a	296433	FrequentFixedSOA	1633	n/a	n/a	1
298.0660000000	n/a	298066	FrequentFixedSOA	1633	n/a	n/a	1
299.6990000000	n/a	299699	FrequentFixedSOA	1633	n/a	n/a	1
301.3330000000	n/a	301333	GoFixedSOA	372	n/a	n/a	1
302.9660000000	n/a	302966	FrequentFixedSOA	1633	n/a	n/a	1
304.5990000000	n/a	304599	FrequentFixedSOA	1633	n/a	n/a	1
306.2330000000	n/a	306233	FrequentFixedSOA	1633	n/a	n/a	1
307.8660000000	n/a	307866	NovelFixedSOA	1633	n/a	n/a	1
309.4990000000	n/a	309499	FrequentFixedSOA	1633	n/a	n/a	1
311.1330000000	n/a	311133	FrequentFixedSOA	1633	n/a	n/a	1
312.7660000000	n/a	312766	FrequentFixedSOA	1633	n/a	n/a	1
314.3990000000	n/a	314399	FrequentFixedSOA	1633	n/a	n/a	1
316.0330000000	n/a	316033	NovelFixedSOA	1633	n/a	n/a	1
317.6660000000	n/a	317666	FrequentFixedSOA	1633	n/a	n/a	1
319.2990000000	n/a	319299	FrequentFixedSOA	1633	n/a	n/a	1
320.9330000000	n/a	320933	FrequentFixedSOA	1633	n/a	n/a	1
322.5660000000	n/a	322566	FrequentFixedSOA	1633	n/a	n/a	1
324.1990000000	n/a	324199	NovelFixedSOA	1633	n/a	n/a	1
325.8330000000	n/a	325833	FrequentFixedSOA	1633	n/a	n/a	1
327.4660000000	n/a	327466	FrequentFixedSOA	1633	n/a	n/a	1
329.0990000000	n/a	329099	GoFixedSOA	421	n/a	n/a	1
330.7330000000	n/a	330733	FrequentFixedSOA	1633	n/a	n/a	1
332.3660000000	n/a	332366	FrequentFixedSOA	1633	n/a	n/a	1
333.9990000000	n/a	333999	FrequentFixedSOA	1633	n/a	n/a	1
335.6330000000	n/a	335633	FrequentFixedSOA	1633	n/a	n/a	1
337.2660000000	n/a	337266	NovelFixedSOA	1633	n/a	n/a	1
338.8990000000	n/a	338899	FrequentFixedSOA	1633	n/a	n/a	1
340.5330000000	n/a	340533	FrequentFixedSOA	1633	n/a	n/a	1
342.1660000000	n/a	342166	FrequentFixedSOA	1633	n/a	n/a	1
343.7990000000	n/a	343799	FrequentFixedSOA	1633	n/a	n/a	1
345.4330000000	n/a	345433	FrequentFixedSOA	1633	n/a	n/a	1
347.0660000000	n/a	347066	FrequentVariableSOA	1533	n/a	n/a	1
348.5990000000	n/a	348599	FrequentVariableSOA	1533	n/a	n/a	1
350.1330000000	n/a	350133	FrequentVariableSOA	1583	n/a	n/a	1
351.7160000000	n/a	351716	GoVariableSOA	439	n/a	n/a	1
353.3830000000	n/a	353383	FrequentVariableSOA	1700	n/a	n/a	1
355.0830000000	n/a	355083	FrequentVariableSOA	1500	n/a	n/a	1
356.5830000000	n/a	356583	FrequentVariableSOA	1766	n/a	n/a	1
358.3490000000	n/a	358349	GoVariableSOA	489	n/a	n/a	1
360.0990000000	n/a	360099	FrequentVariableSOA	1633	n/a	n/a	1
361.7330000000	n/a	361733	FrequentVariableSOA	1733	n/a	n/a	1
363.4660000000	n/a	363466	FrequentVariableSOA	1600	n/a	n/a	1
365.0660000000	n/a	365066	NovelVariableSOA	1700	n/a	n/a	1
366.7660000000	n/a	366766	FrequentVariableSOA	1633	n/a	n/a	1
368.3990000000	n/a	368399	NovelVariableSOA	1533	n/a	n/a	1
369.9330000000	n/a	369933	FrequentVariableSOA	1633	n/a	n/a	1
371.5660000000	n/a	371566	FrequentVariableSOA	1533	n/a	n/a	1
373.0990000000	n/a	373099	NovelVariableSOA	1683	n/a	n/a	1
374.7830000000	n/a	374783	FrequentVariableSOA	1783	n/a	n/a	1
376.5660000000	n/a	376566	FrequentVariableSOA	1550	n/a	n/a	1
378.1160000000	n/a	378116	FrequentVariableSOA	1700	n/a	n/a	1
379.8160000000	n/a	379816	FrequentVariableSOA	1516	n/a	n/a	1
381.3330000000	n/a	381333	FrequentVariableSOA	1783	n/a	n/a	1
383.1160000000	n/a	383116	NovelVariableSOA	1516	n/a	n/a	1
384.6330000000	n/a	384633	FrequentVariableSOA	1750	n/a	n/a	1
386.3830000000	n/a	386383	FrequentVariableSOA	1566	n/a	n/a	1
387.9490000000	n/a	387949	FrequentVariableSOA	1616	n/a	n/a	1
389.5660000000	n/a	389566	FrequentVariableSOA	1650	n/a	n/a	1
391.2160000000	n/a	391216	FrequentVariableSOA	1700	n/a	n/a	1
392.9160000000	n/a	392916	GoVariableSOA	446	n/a	n/a	1
394.5330000000	n/a	394533	FrequentVariableSOA	1550	n/a	n/a	1
396.0830000000	n/a	396083	FrequentVariableSOA	1666	n/a	n/a	1
397.7490000000	n/a	397749	GoVariableSOA	436	n/a	n/a	1
399.2660000000	n/a	399266	FrequentVariableSOA	1683	n/a	n/a	1
400.9490000000	n/a	400949	NovelVariableSOA	1716	n/a	n/a	1
402.6660000000	n/a	402666	FrequentVariableSOA	1616	n/a	n/a	1
404.2830000000	n/a	404283	GoVariableSOA	481	n/a	n/a	1
405.9990000000	n/a	405999	FrequentVariableSOA	1583	n/a	n/a	1
407.5830000000	n/a	407583	GoVariableSOA	413	n/a	n/a	1
409.1490000000	n/a	409149	FrequentVariableSOA	1633	n/a	n/a	1
410.7830000000	n/a	410783	FrequentVariableSOA	1633	n/a	n/a	1
412.4160000000	n/a	412416	FrequentVariableSOA	1583	n/a	n/a	1
413.9990000000	n/a	413999	FrequentVariableSOA	1600	n/a	n/a	1
415.5990000000	n/a	415599	GoVariableSOA	1550	n/a	n/a	0
417.1490000000	n/a	417149	FrequentVariableSOA	1650	n/a	n/a	1
418.7990000000	n/a	418799	FrequentVariableSOA	1550	n/a	n/a	1
420.3490000000	n/a	420349	FrequentVariableSOA	1683	n/a	n/a	1
422.0320000000	n/a	422032	NovelVariableSOA	1600	n/a	n/a	1
423.6320000000	n/a	423632	FrequentVariableSOA	1733	n/a	n/a	1
425.3660000000	n/a	425366	FrequentVariableSOA	1566	n/a	n/a	1
426.9320000000	n/a	426932	FrequentVariableSOA	1583	n/a	n/a	1
428.5160000000	n/a	428516	FrequentVariableSOA	1516	n/a	n/a	1
430.0320000000	n/a	430032	NovelVariableSOA	1800	n/a	n/a	1
431.8320000000	n/a	431832	FrequentVariableSOA	1550	n/a	n/a	1
433.3820000000	n/a	433382	FrequentVariableSOA	1516	n/a	n/a	1
434.8990000000	n/a	434899	FrequentVariableSOA	1566	n/a	n/a	1
436.4660000000	n/a	436466	FrequentVariableSOA	1733	n/a	n/a	1
438.1990000000	n/a	438199	NovelVariableSOA	1650	n/a	n/a	1
439.8490000000	n/a	439849	FrequentVariableSOA	1600	n/a	n/a	1
441.4490000000	n/a	441449	FrequentVariableSOA	1516	n/a	n/a	1
442.9660000000	n/a	442966	GoVariableSOA	323	n/a	n/a	1
444.6320000000	n/a	444632	FrequentVariableSOA	1533	n/a	n/a	1
446.1660000000	n/a	446166	FrequentVariableSOA	1800	n/a	n/a	1
447.9660000000	n/a	447966	FrequentVariableSOA	1533	n/a	n/a	1
449.4990000000	n/a	449499	FrequentVariableSOA	1583	n/a	n/a	1
451.0820000000	n/a	451082	NovelVariableSOA	1783	n/a	n/a	1
452.8660000000	n/a	452866	FrequentVariableSOA	1583	n/a	n/a	1
454.4490000000	n/a	454449	FrequentVariableSOA	1633	n/a	n/a	1
456.0820000000	n/a	456082	FrequentVariableSOA	1700	n/a	n/a	1
457.7820000000	n/a	457782	FrequentVariableSOA	1783	n/a	n/a	1
459.5660000000	n/a	459566	FrequentVariableSOA	1533	n/a	n/a	1
461.0990000000	n/a	461099	GoFixedSOA	373	n/a	n/a	1
462.7320000000	n/a	462732	FrequentFixedSOA	1633	n/a	n/a	1
464.3660000000	n/a	464366	FrequentFixedSOA	1633	n/a	n/a	1
465.9990000000	n/a	465999	FrequentFixedSOA	1633	n/a	n/a	1
467.6320000000	n/a	467632	FrequentFixedSOA	1633	n/a	n/a	1
469.2660000000	n/a	469266	FrequentFixedSOA	1633	n/a	n/a	1
470.8990000000	n/a	470899	FrequentFixedSOA	1633	n/a	n/a	1
472.5320000000	n/a	472532	NovelFixedSOA	1633	n/a	n/a	1
474.1660000000	n/a	474166	FrequentFixedSOA	1633	n/a	n/a	1
475.7990000000	n/a	475799	FrequentFixedSOA	1633	n/a	n/a	1
477.4320000000	n/a	477432	FrequentFixedSOA	1633	n/a	n/a	1
479.0660000000	n/a	479066	NovelFixedSOA	1633	n/a	n/a	1
480.6990000000	n/a	480699	FrequentFixedSOA	1633	n/a	n/a	1
482.3320000000	n/a	482332	GoFixedSOA	380	n/a	n/a	1
483.9660000000	n/a	483966	FrequentFixedSOA	1633	n/a	n/a	1
485.5990000000	n/a	485599	FrequentFixedSOA	1633	n/a	n/a	1
487.2320000000	n/a	487232	GoFixedSOA	394	n/a	n/a	1
488.8660000000	n/a	488866	FrequentFixedSOA	1633	n/a	n/a	1
490.4990000000	n/a	490499	NovelFixedSOA	1633	n/a	n/a	1
492.1320000000	n/a	492132	FrequentFixedSOA	1633	n/a	n/a	1
493.7660000000	n/a	493766	FrequentFixedSOA	1633	n/a	n/a	1
495.3990000000	n/a	495399	FrequentFixedSOA	1633	n/a	n/a	1
497.0320000000	n/a	497032	FrequentFixedSOA	1633	n/a	n/a	1
498.6660000000	n/a	498666	FrequentFixedSOA	1633	n/a	n/a	1
500.2990000000	n/a	500299	GoFixedSOA	457	n/a	n/a	1
501.9320000000	n/a	501932	FrequentFixedSOA	1633	n/a	n/a	1
503.5660000000	n/a	503566	FrequentFixedSOA	1633	n/a	n/a	1
505.1990000000	n/a	505199	NovelFixedSOA	1633	n/a	n/a	1
506.8320000000	n/a	506832	FrequentFixedSOA	1633	n/a	n/a	1
508.4660000000	n/a	508466	FrequentFixedSOA	1633	n/a	n/a	1
510.0990000000	n/a	510099	FrequentFixedSOA	1633	n/a	n/a	1
511.7320000000	n/a	511732	FrequentFixedSOA	1633	n/a	n/a	1
513.3660000000	n/a	513366	FrequentFixedSOA	1633	n/a	n/a	1
514.9990000000	n/a	514999	NovelFixedSOA	1633	n/a	n/a	1
516.6320000000	n/a	516632	FrequentFixedSOA	1633	n/a	n/a	1
518.2660000000	n/a	518266	FrequentFixedSOA	1633	n/a	n/a	1
519.8990000000	n/a	519899	FrequentFixedSOA	1633	n/a	n/a	1
521.5320000000	n/a	521532	FrequentFixedSOA	1633	n/a	n/a	1
523.1660000000	n/a	523166	GoFixedSOA	383	n/a	n/a	1
524.7990000000	n/a	524799	FrequentFixedSOA	1633	n/a	n/a	1
526.4320000000	n/a	526432	FrequentFixedSOA	1633	n/a	n/a	1
528.0660000000	n/a	528066	NovelFixedSOA	1633	n/a	n/a	1
529.6990000000	n/a	529699	FrequentFixedSOA	1633	n/a	n/a	1
531.3320000000	n/a	531332	FrequentFixedSOA	1633	n/a	n/a	1
532.9660000000	n/a	532966	NovelFixedSOA	1633	n/a	n/a	1
534.5990000000	n/a	534599	FrequentFixedSOA	1633	n/a	n/a	1
536.2320000000	n/a	536232	FrequentFixedSOA	1633	n/a	n/a	1
537.8660000000	n/a	537866	FrequentFixedSOA	1633	n/a	n/a	1
539.4990000000	n/a	539499	FrequentFixedSOA	1633	n/a	n/a	1
541.1320000000	n/a	541132	FrequentFixedSOA	1633	n/a	n/a	1
542.7660000000	n/a	542766	GoFixedSOA	394	n/a	n/a	1
544.3990000000	n/a	544399	FrequentFixedSOA	1633	n/a	n/a	1
546.0320000000	n/a	546032	FrequentFixedSOA	1633	n/a	n/a	1
547.6660000000	n/a	547666	FrequentFixedSOA	1633	n/a	n/a	1
549.2990000000	n/a	549299	FrequentFixedSOA	1633	n/a	n/a	1
550.9320000000	n/a	550932	FrequentFixedSOA	1633	n/a	n/a	1
552.5660000000	n/a	552566	NovelFixedSOA	1633	n/a	n/a	1
554.1990000000	n/a	554199	FrequentFixedSOA	1633	n/a	n/a	1
555.8320000000	n/a	555832	GoFixedSOA	422	n/a	n/a	1
557.4660000000	n/a	557466	FrequentFixedSOA	1633	n/a	n/a	1
559.0990000000	n/a	559099	FrequentFixedSOA	1633	n/a	n/a	1
560.7320000000	n/a	560732	FrequentFixedSOA	1633	n/a	n/a	1
562.3660000000	n/a	562366	FrequentFixedSOA	1633	n/a	n/a	1
563.9990000000	n/a	563999	FrequentFixedSOA	1633	n/a	n/a	1
565.6320000000	n/a	565632	FrequentFixedSOA	1633	n/a	n/a	1
567.2660000000	n/a	567266	FrequentFixedSOA	1633	n/a	n/a	1
568.8990000000	n/a	568899	FrequentFixedSOA	1633	n/a	n/a	1
570.5320000000	n/a	570532	NovelFixedSOA	1633	n/a	n/a	1
572.1660000000	n/a	572166	FrequentFixedSOA	1633	n/a	n/a	1
573.7990000000	n/a	573799	FrequentFixedSOA	1633	n/a	n/a	1
575.4320000000	n/a	575432	GoVariableSOA	384	n/a	n/a	1
577.0820000000	n/a	577082	FrequentVariableSOA	1666	n/a	n/a	1
578.7490000000	n/a	578749	FrequentVariableSOA	1766	n/a	n/a	1
580.5160000000	n/a	580516	FrequentVariableSOA	1600	n/a	n/a	1
582.1160000000	n/a	582116	FrequentVariableSOA	1650	n/a	n/a	1
583.7660000000	n/a	583766	FrequentVariableSOA	1583	n/a	n/a	1
585.3490000000	n/a	585349	FrequentVariableSOA	1783	n/a	n/a	1
587.1320000000	n/a	587132	NovelVariableSOA	1766	n/a	n/a	1
588.8990000000	n/a	588899	FrequentVariableSOA	1600	n/a	n/a	1
590.4990000000	n/a	590499	FrequentVariableSOA	1516	n/a	n/a	1
592.0160000000	n/a	592016	FrequentVariableSOA	1566	n/a	n/a	1
593.5820000000	n/a	593582	NovelVariableSOA	1650	n/a	n/a	1
595.2320000000	n/a	595232	FrequentVariableSOA	1533	n/a	n/a	1
596.7660000000	n/a	596766	GoVariableSOA	459	n/a	n/a	1
598.5160000000	n/a	598516	FrequentVariableSOA	1566	n/a	n/a	1
600.0820000000	n/a	600082	FrequentVariableSOA	1683	n/a	n/a	1
601.7660000000	n/a	601766	GoVariableSOA	415	n/a	n/a	1
603.4990000000	n/a	603499	FrequentVariableSOA	1600	n/a	n/a	1
605.0990000000	n/a	605099	NovelVariableSOA	1583	n/a	n/a	1
606.6820000000	n/a	606682	FrequentVariableSOA	1533	n/a	n/a	1
608.2160000000	n/a	608216	FrequentVariableSOA	1550	n/a	n/a	1
609.7660000000	n/a	609766	FrequentVariableSOA	1783	n/a	n/a	1
611.5490000000	n/a	611549	FrequentVariableSOA	1600	n/a	n/a	1
613.1490000000	n/a	613149	FrequentVariableSOA	1783	n/a	n/a	1
614.9320000000	n/a	614932	GoVariableSOA	449	n/a	n/a	1
616.4820000000	n/a	616482	FrequentVariableSOA	1650	n/a	n/a	1
618.1320000000	n/a	618132	FrequentVariableSOA	1550	n/a	n/a	1
619.6820000000	n/a	619682	NovelVariableSOA	1700	n/a	n/a	1
621.3820000000	n/a	621382	FrequentVariableSOA	1533	n/a	n/a	1
622.9150000000	n/a	622915	FrequentVariableSOA	1700	n/a	n/a	1
624.6150000000	n/a	624615	FrequentVariableSOA	1566	n/a	n/a	1
626.1820000000	n/a	626182	FrequentVariableSOA	1600	n/a	n/a	1
627.7820000000	n/a	627782	FrequentVariableSOA	1650	n/a	n/a	1
629.4320000000	n/a	629432	NovelVariableSOA	1633	n/a	n/a	1
631.0650000000	n/a	631065	FrequentVariableSOA	1783	n/a	n/a	1
632.8490000000	n/a	632849	FrequentVariableSOA	1750	n/a	n/a	1
634.5990000000	n/a	634599	FrequentVariableSOA	1700	n/a	n/a	1
636.2990000000	n/a	636299	FrequentVariableSOA	1550	n/a	n/a	1
637.8490000000	n/a	637849	GoVariableSOA	478	n/a	n/a	1
639.5320000000	n/a	639532	FrequentVariableSOA	1766	n/a	n/a	1
641.2990000000	n/a	641299	FrequentVariableSOA	1550	n/a	n/a	1
642.8490000000	n/a	642849	NovelVariableSOA	1500	n/a	n/a	1
644.3490000000	n/a	644349	FrequentVariableSOA	1550	n/a	n/a	1
645.8990000000	n/a	645899	FrequentVariableSOA	1783	n/a	n/a	1
647.6820000000	n/a	647682	NovelVariableSOA	1716	n/a	n/a	1
649.3990000000	n/a	649399	FrequentVariableSOA	1650	n/a	n/a	1
651.0490000000	n/a	651049	FrequentVariableSOA	1683	n/a	n/a	1
652.7320000000	n/a	652732	FrequentVariableSOA	1783	n/a	n/a	1
654.5150000000	n/a	654515	FrequentVariableSOA	1766	n/a	n/a	1
656.2820000000	n/a	656282	FrequentVariableSOA	1533	n/a	n/a	1
657.8150000000	n/a	657815	GoVariableSOA	493	n/a	n/a	1
659.4150000000	n/a	659415	FrequentVariableSOA	1683	n/a	n/a	1
661.0990000000	n/a	661099	FrequentVariableSOA	1566	n/a	n/a	1
662.6650000000	n/a	662665	FrequentVariableSOA	1683	n/a	n/a	1
664.3490000000	n/a	664349	FrequentVariableSOA	1566	n/a	n/a	1
665.9150000000	n/a	665915	FrequentVariableSOA	1500	n/a	n/a	1
667.4150000000	n/a	667415	NovelVariableSOA	1766	n/a	n/a	1
669.1820000000	n/a	669182	FrequentVariableSOA	1766	n/a	n/a	1
670.9490000000	n/a	670949	GoVariableSOA	426	n/a	n/a	1
672.5990000000	n/a	672599	FrequentVariableSOA	1700	n/a	n/a	1
674.2990000000	n/a	674299	FrequentVariableSOA	1583	n/a	n/a	1
675.8820000000	n/a	675882	FrequentVariableSOA	1516	n/a	n/a	1
677.3990000000	n/a	677399	FrequentVariableSOA	1533	n/a	n/a	1
678.9320000000	n/a	678932	FrequentVariableSOA	1766	n/a	n/a	1
680.6990000000	n/a	680699	FrequentVariableSOA	1650	n/a	n/a	1
682.3490000000	n/a	682349	FrequentVariableSOA	1750	n/a	n/a	1
684.0990000000	n/a	684099	FrequentVariableSOA	1600	n/a	n/a	1
685.6990000000	n/a	685699	NovelVariableSOA	1666	n/a	n/a	1
687.3650000000	n/a	687365	FrequentVariableSOA	1583	n/a	n/a	1
688.9490000000	n/a	688949	FrequentVariableSOA	1633	n/a	n/a	1
690.5820000000	n/a	690582	GoFixedSOA	1633	n/a	n/a	0
692.2150000000	n/a	692215	FrequentFixedSOA	1633	n/a	n/a	1
693.8490000000	n/a	693849	FrequentFixedSOA	1633	n/a	n/a	1
695.4820000000	n/a	695482	FrequentFixedSOA	1633	n/a	n/a	1
697.1150000000	n/a	697115	GoFixedSOA	374	n/a	n/a	1
698.7490000000	n/a	698749	FrequentFixedSOA	1633	n/a	n/a	1
700.3820000000	n/a	700382	FrequentFixedSOA	1633	n/a	n/a	1
702.0150000000	n/a	702015	FrequentFixedSOA	1633	n/a	n/a	1
703.6490000000	n/a	703649	FrequentFixedSOA	1633	n/a	n/a	1
705.2820000000	n/a	705282	GoFixedSOA	409	n/a	n/a	1
706.9150000000	n/a	706915	FrequentFixedSOA	1633	n/a	n/a	1
708.5490000000	n/a	708549	FrequentFixedSOA	1633	n/a	n/a	1
710.1820000000	n/a	710182	NovelFixedSOA	1633	n/a	n/a	1
711.8150000000	n/a	711815	FrequentFixedSOA	1633	n/a	n/a	1
713.4490000000	n/a	713449	FrequentFixedSOA	1633	n/a	n/a	1
715.0820000000	n/a	715082	GoFixedSOA	326	n/a	n/a	1
716.7150000000	n/a	716715	FrequentFixedSOA	1633	n/a	n/a	1
718.3490000000	n/a	718349	FrequentFixedSOA	1633	n/a	n/a	1
719.9820000000	n/a	719982	FrequentFixedSOA	1633	n/a	n/a	1
721.6150000000	n/a	721615	NovelFixedSOA	1633	n/a	n/a	1
723.2490000000	n/a	723249	FrequentFixedSOA	1633	n/a	n/a	1
724.8820000000	n/a	724882	NovelFixedSOA	1633	n/a	n/a	1
726.5150000000	n/a	726515	FrequentFixedSOA	1633	n/a	n/a	1
728.1490000000	n/a	728149	FrequentFixedSOA	1633	n/a	n/a	1
729.7820000000	n/a	729782	FrequentFixedSOA	1633	n/a	n/a	1
731.4150000000	n/a	731415	GoFixedSOA	532	n/a	n/a	1
733.0490000000	n/a	733049	FrequentFixedSOA	1633	n/a	n/a	1
734.6820000000	n/a	734682	FrequentFixedSOA	1633	n/a	n/a	1
736.3150000000	n/a	736315	FrequentFixedSOA	1633	n/a	n/a	1
737.9490000000	n/a	737949	GoFixedSOA	395	n/a	n/a	1
739.5820000000	n/a	739582	FrequentFixedSOA	1633	n/a	n/a	1
741.2150000000	n/a	741215	FrequentFixedSOA	1633	n/a	n/a	1
742.8490000000	n/a	742849	NovelFixedSOA	1633	n/a	n/a	1
744.4820000000	n/a	744482	FrequentFixedSOA	1633	n/a	n/a	1
746.1150000000	n/a	746115	GoFixedSOA	335	n/a	n/a	1
747.7490000000	n/a	747749	FrequentFixedSOA	1633	n/a	n/a	1
749.3820000000	n/a	749382	FrequentFixedSOA	1633	n/a	n/a	1
751.0150000000	n/a	751015	FrequentFixedSOA	1633	n/a	n/a	1
752.6490000000	n/a	752649	FrequentFixedSOA	1633	n/a	n/a	1
754.2820000000	n/a	754282	FrequentFixedSOA	1633	n/a	n/a	1
755.9150000000	n/a	755915	FrequentFixedSOA	1633	n/a	n/a	1
757.5490000000	n/a	757549	NovelFixedSOA	1633	n/a	n/a	1
759.1820000000	n/a	759182	FrequentFixedSOA	1633	n/a	n/a	1
760.8150000000	n/a	760815	FrequentFixedSOA	1633	n/a	n/a	1
762.4490000000	n/a	762449	FrequentFixedSOA	1633	n/a	n/a	1
764.0820000000	n/a	764082	GoFixedSOA	346	n/a	n/a	1
765.7150000000	n/a	765715	FrequentFixedSOA	1633	n/a	n/a	1
767.3490000000	n/a	767349	FrequentFixedSOA	1633	n/a	n/a	1
768.9820000000	n/a	768982	FrequentFixedSOA	1633	n/a	n/a	1
770.6150000000	n/a	770615	FrequentFixedSOA	1633	n/a	n/a	1
772.2490000000	n/a	772249	NovelFixedSOA	1633	n/a	n/a	1
773.8820000000	n/a	773882	FrequentFixedSOA	1633	n/a	n/a	1
775.5150000000	n/a	775515	FrequentFixedSOA	1633	n/a	n/a	1
777.1490000000	n/a	777149	NovelFixedSOA	1633	n/a	n/a	1
778.7820000000	n/a	778782	FrequentFixedSOA	1633	n/a	n/a	1
780.4150000000	n/a	780415	NovelFixedSOA	1633	n/a	n/a	1
782.0490000000	n/a	782049	FrequentFixedSOA	1633	n/a	n/a	1
783.6820000000	n/a	783682	FrequentFixedSOA	1633	n/a	n/a	1
785.3150000000	n/a	785315	FrequentFixedSOA	1633	n/a	n/a	1
786.9490000000	n/a	786949	FrequentFixedSOA	1633	n/a	n/a	1
788.5820000000	n/a	788582	FrequentFixedSOA	1633	n/a	n/a	1
790.2150000000	n/a	790215	FrequentFixedSOA	1633	n/a	n/a	1
791.8490000000	n/a	791849	FrequentFixedSOA	1633	n/a	n/a	1
793.4820000000	n/a	793482	GoFixedSOA	471	n/a	n/a	1
795.1150000000	n/a	795115	FrequentFixedSOA	1633	n/a	n/a	1
796.7490000000	n/a	796749	GoFixedSOA	415	n/a	n/a	1
798.3820000000	n/a	798382	FrequentFixedSOA	1633	n/a	n/a	1
800.0150000000	n/a	800015	FrequentFixedSOA	1633	n/a	n/a	1
801.6490000000	n/a	801649	NovelFixedSOA	1633	n/a	n/a	1
803.2820000000	n/a	803282	FrequentFixedSOA	1633	n/a	n/a	1
804.9150000000	n/a	804915	GoVariableSOA	448	n/a	n/a	1
806.5650000000	n/a	806565	FrequentVariableSOA	1766	n/a	n/a	1
808.3320000000	n/a	808332	FrequentVariableSOA	1600	n/a	n/a	1
809.9320000000	n/a	809932	FrequentVariableSOA	1683	n/a	n/a	1
811.6150000000	n/a	811615	GoVariableSOA	378	n/a	n/a	1
813.3820000000	n/a	813382	FrequentVariableSOA	1750	n/a	n/a	1
815.1320000000	n/a	815132	FrequentVariableSOA	1633	n/a	n/a	1
816.7650000000	n/a	816765	FrequentVariableSOA	1633	n/a	n/a	1
818.3980000000	n/a	818398	FrequentVariableSOA	1533	n/a	n/a	1
819.9320000000	n/a	819932	GoVariableSOA	453	n/a	n/a	1
821.6650000000	n/a	821665	FrequentVariableSOA	1716	n/a	n/a	1
823.3820000000	n/a	823382	FrequentVariableSOA	1566	n/a	n/a	1
824.9480000000	n/a	824948	NovelVariableSOA	1633	n/a	n/a	1
826.5820000000	n/a	826582	FrequentVariableSOA	1716	n/a	n/a	1
828.2980000000	n/a	828298	FrequentVariableSOA	1516	n/a	n/a	1
829.8150000000	n/a	829815	GoVariableSOA	442	n/a	n/a	1
831.4320000000	n/a	831432	FrequentVariableSOA	1583	n/a	n/a	1
833.0150000000	n/a	833015	FrequentVariableSOA	1716	n/a	n/a	1
834.7320000000	n/a	834732	FrequentVariableSOA	1800	n/a	n/a	1
836.5320000000	n/a	836532	NovelVariableSOA	1500	n/a	n/a	1
838.0320000000	n/a	838032	FrequentVariableSOA	1550	n/a	n/a	1
839.5820000000	n/a	839582	NovelVariableSOA	1783	n/a	n/a	1
841.3650000000	n/a	841365	FrequentVariableSOA	1566	n/a	n/a	1
842.9320000000	n/a	842932	FrequentVariableSOA	1633	n/a	n/a	1
844.5650000000	n/a	844565	FrequentVariableSOA	1583	n/a	n/a	1
846.1480000000	n/a	846148	GoVariableSOA	450	n/a	n/a	1
847.7150000000	n/a	847715	FrequentVariableSOA	1650	n/a	n/a	1
849.3650000000	n/a	849365	FrequentVariableSOA	1583	n/a	n/a	1
850.9480000000	n/a	850948	FrequentVariableSOA	1766	n/a	n/a	1
852.7150000000	n/a	852715	GoVariableSOA	358	n/a	n/a	1
854.3320000000	n/a	854332	FrequentVariableSOA	1600	n/a	n/a	1
855.9320000000	n/a	855932	FrequentVariableSOA	1683	n/a	n/a	1
857.6150000000	n/a	857615	NovelVariableSOA	1633	n/a	n/a	1
859.2480000000	n/a	859248	FrequentVariableSOA	1633	n/a	n/a	1
860.8820000000	n/a	860882	GoVariableSOA	366	n/a	n/a	1
862.3980000000	n/a	862398	FrequentVariableSOA	1600	n/a	n/a	1
863.9980000000	n/a	863998	FrequentVariableSOA	1783	n/a	n/a	1
865.7820000000	n/a	865782	FrequentVariableSOA	1583	n/a	n/a	1
867.3650000000	n/a	867365	FrequentVariableSOA	1550	n/a	n/a	1
868.9150000000	n/a	868915	FrequentVariableSOA	1600	n/a	n/a	1
870.5150000000	n/a	870515	FrequentVariableSOA	1533	n/a	n/a	1
872.0480000000	n/a	872048	NovelVariableSOA	1583	n/a	n/a	1
873.6320000000	n/a	873632	FrequentVariableSOA	1500	n/a	n/a	1
875.1320000000	n/a	875132	FrequentVariableSOA	1633	n/a	n/a	1
876.7650000000	n/a	876765	FrequentVariableSOA	1650	n/a	n/a	1
878.4150000000	n/a	878415	GoVariableSOA	380	n/a	n/a	1
879.9650000000	n/a	879965	FrequentVariableSOA	1733	n/a	n/a	1
881.6980000000	n/a	881698	FrequentVariableSOA	1583	n/a	n/a	1
883.2820000000	n/a	883282	FrequentVariableSOA	1700	n/a	n/a	1
884.9820000000	n/a	884982	FrequentVariableSOA	1766	n/a	n/a	1
886.7480000000	n/a	886748	NovelVariableSOA	1566	n/a	n/a	1
888.3150000000	n/a	888315	FrequentVariableSOA	1583	n/a	n/a	1
889.8980000000	n/a	889898	FrequentVariableSOA	1583	n/a	n/a	1
891.4820000000	n/a	891482	NovelVariableSOA	1516	n/a	n/a	1
892.9980000000	n/a	892998	FrequentVariableSOA	1633	n/a	n/a	1
894.6320000000	n/a	894632	NovelVariableSOA	1633	n/a	n/a	1
896.2650000000	n/a	896265	FrequentVariableSOA	1733	n/a	n/a	1
897.9980000000	n/a	897998	FrequentVariableSOA	1566	n/a	n/a	1
899.5650000000	n/a	899565	FrequentVariableSOA	1566	n/a	n/a	1
901.1320000000	n/a	901132	FrequentVariableSOA	1750	n/a	n/a	1
902.8820000000	n/a	902882	FrequentVariableSOA	1616	n/a	n/a	1
904.4980000000	n/a	904498	FrequentVariableSOA	1500	n/a	n/a	1
905.9980000000	n/a	905998	FrequentVariableSOA	1783	n/a	n/a	1
907.7820000000	n/a	907782	GoVariableSOA	440	n/a	n/a	1
909.3820000000	n/a	909382	FrequentVariableSOA	1766	n/a	n/a	1
911.1480000000	n/a	911148	GoVariableSOA	357	n/a	n/a	1
912.8650000000	n/a	912865	FrequentVariableSOA	1600	n/a	n/a	1
914.4650000000	n/a	914465	FrequentVariableSOA	1583	n/a	n/a	1
916.0480000000	n/a	916048	NovelVariableSOA	1550	n/a	n/a	1
917.5980000000	n/a	917598	FrequentVariableSOA	1600	n/a	n/a	1
