onset	duration	sample	trial_type	response_time	stim_file	value	correct
3.2830000000	n/a	3283	FrequentFixedSOA	1633	n/a	n/a	1
4.9160000000	n/a	4916	FrequentFixedSOA	1633	n/a	n/a	1
6.5500000000	n/a	6550	FrequentFixedSOA	1633	n/a	n/a	1
8.1830000000	n/a	8183	FrequentFixedSOA	1633	n/a	n/a	1
9.8160000000	n/a	9816	FrequentFixedSOA	1633	n/a	n/a	1
11.4500000000	n/a	11450	FrequentFixedSOA	1633	n/a	n/a	1
13.0830000000	n/a	13083	FrequentFixedSOA	1633	n/a	n/a	1
14.7160000000	n/a	14716	FrequentFixedSOA	1633	n/a	n/a	1
16.3500000000	n/a	16350	FrequentFixedSOA	1633	n/a	n/a	1
17.9830000000	n/a	17983	FrequentFixedSOA	1633	n/a	n/a	1
19.6160000000	n/a	19616	NovelFixedSOA	1633	n/a	n/a	1
21.2500000000	n/a	21250	FrequentFixedSOA	1633	n/a	n/a	1
22.8830000000	n/a	22883	GoFixedSOA	357	n/a	n/a	1
24.5160000000	n/a	24516	FrequentFixedSOA	1633	n/a	n/a	1
26.1500000000	n/a	26150	FrequentFixedSOA	1633	n/a	n/a	1
27.7830000000	n/a	27783	FrequentFixedSOA	1633	n/a	n/a	1
29.4160000000	n/a	29416	GoFixedSOA	319	n/a	n/a	1
31.0500000000	n/a	31050	FrequentFixedSOA	1633	n/a	n/a	1
32.6830000000	n/a	32683	FrequentFixedSOA	1633	n/a	n/a	1
34.3160000000	n/a	34316	FrequentFixedSOA	1633	n/a	n/a	1
35.9500000000	n/a	35950	NovelFixedSOA	1633	n/a	n/a	1
37.5830000000	n/a	37583	FrequentFixedSOA	1633	n/a	n/a	1
39.2160000000	n/a	39216	FrequentFixedSOA	1633	n/a	n/a	1
40.8500000000	n/a	40850	FrequentFixedSOA	1633	n/a	n/a	1
42.4830000000	n/a	42483	GoFixedSOA	254	n/a	n/a	1
44.1160000000	n/a	44116	FrequentFixedSOA	1633	n/a	n/a	1
45.7500000000	n/a	45750	NovelFixedSOA	1633	n/a	n/a	1
47.3830000000	n/a	47383	FrequentFixedSOA	1633	n/a	n/a	1
49.0160000000	n/a	49016	FrequentFixedSOA	1633	n/a	n/a	1
50.6500000000	n/a	50650	FrequentFixedSOA	1633	n/a	n/a	1
52.2830000000	n/a	52283	GoFixedSOA	323	n/a	n/a	1
53.9160000000	n/a	53916	FrequentFixedSOA	1633	n/a	n/a	1
55.5500000000	n/a	55550	GoFixedSOA	356	n/a	n/a	1
57.1830000000	n/a	57183	FrequentFixedSOA	1633	n/a	n/a	1
58.8160000000	n/a	58816	FrequentFixedSOA	1633	n/a	n/a	1
60.4500000000	n/a	60450	GoFixedSOA	265	n/a	n/a	1
62.0830000000	n/a	62083	FrequentFixedSOA	1633	n/a	n/a	1
63.7160000000	n/a	63716	FrequentFixedSOA	1633	n/a	n/a	1
65.3500000000	n/a	65350	FrequentFixedSOA	1633	n/a	n/a	1
66.9830000000	n/a	66983	FrequentFixedSOA	1633	n/a	n/a	1
68.6160000000	n/a	68616	NovelFixedSOA	1633	n/a	n/a	1
70.2500000000	n/a	70250	FrequentFixedSOA	1633	n/a	n/a	1
71.8830000000	n/a	71883	NovelFixedSOA	1633	n/a	n/a	1
73.5160000000	n/a	73516	FrequentFixedSOA	1633	n/a	n/a	1
75.1500000000	n/a	75150	FrequentFixedSOA	1633	n/a	n/a	1
76.7830000000	n/a	76783	GoFixedSOA	291	n/a	n/a	1
78.4160000000	n/a	78416	FrequentFixedSOA	1633	n/a	n/a	1
80.0500000000	n/a	80050	FrequentFixedSOA	1633	n/a	n/a	1
81.6830000000	n/a	81683	FrequentFixedSOA	1633	n/a	n/a	1
83.3160000000	n/a	83316	FrequentFixedSOA	1633	n/a	n/a	1
84.9500000000	n/a	84950	NovelFixedSOA	1633	n/a	n/a	1
86.5830000000	n/a	86583	FrequentFixedSOA	1633	n/a	n/a	1
88.2160000000	n/a	88216	FrequentFixedSOA	1633	n/a	n/a	1
89.8500000000	n/a	89850	FrequentFixedSOA	1633	n/a	n/a	1
91.4830000000	n/a	91483	FrequentFixedSOA	1633	n/a	n/a	1
93.1160000000	n/a	93116	GoFixedSOA	232	n/a	n/a	1
94.7500000000	n/a	94750	FrequentFixedSOA	1633	n/a	n/a	1
96.3830000000	n/a	96383	FrequentFixedSOA	1633	n/a	n/a	1
98.0160000000	n/a	98016	NovelFixedSOA	1633	n/a	n/a	1
99.6500000000	n/a	99650	FrequentFixedSOA	1633	n/a	n/a	1
101.2830000000	n/a	101283	FrequentFixedSOA	1633	n/a	n/a	1
102.9160000000	n/a	102916	GoFixedSOA	272	n/a	n/a	1
104.5500000000	n/a	104550	FrequentFixedSOA	1633	n/a	n/a	1
106.1830000000	n/a	106183	FrequentFixedSOA	1633	n/a	n/a	1
107.8160000000	n/a	107816	FrequentFixedSOA	1633	n/a	n/a	1
109.4500000000	n/a	109450	FrequentFixedSOA	1633	n/a	n/a	1
111.0830000000	n/a	111083	NovelFixedSOA	1633	n/a	n/a	1
112.7160000000	n/a	112716	FrequentFixedSOA	1633	n/a	n/a	1
114.3500000000	n/a	114350	FrequentFixedSOA	1633	n/a	n/a	1
115.9830000000	n/a	115983	GoFixedSOA	228	n/a	n/a	1
117.6160000000	n/a	117616	FrequentVariableSOA	1783	n/a	n/a	1
119.4000000000	n/a	119400	FrequentVariableSOA	1683	n/a	n/a	1
121.0830000000	n/a	121083	FrequentVariableSOA	1633	n/a	n/a	1
122.7160000000	n/a	122716	FrequentVariableSOA	1516	n/a	n/a	1
124.2330000000	n/a	124233	FrequentVariableSOA	1700	n/a	n/a	1
125.9330000000	n/a	125933	FrequentVariableSOA	1733	n/a	n/a	1
127.6660000000	n/a	127666	FrequentVariableSOA	1616	n/a	n/a	1
129.2830000000	n/a	129283	FrequentVariableSOA	1783	n/a	n/a	1
131.0660000000	n/a	131066	FrequentVariableSOA	1566	n/a	n/a	1
132.6330000000	n/a	132633	FrequentVariableSOA	1533	n/a	n/a	1
134.1660000000	n/a	134166	NovelVariableSOA	268	n/a	n/a	0
135.8330000000	n/a	135833	FrequentVariableSOA	1716	n/a	n/a	1
137.5500000000	n/a	137550	GoVariableSOA	453	n/a	n/a	1
139.1830000000	n/a	139183	FrequentVariableSOA	1650	n/a	n/a	1
140.8330000000	n/a	140833	FrequentVariableSOA	1583	n/a	n/a	1
142.4160000000	n/a	142416	FrequentVariableSOA	1716	n/a	n/a	1
144.1330000000	n/a	144133	GoVariableSOA	349	n/a	n/a	1
145.8500000000	n/a	145850	FrequentVariableSOA	1783	n/a	n/a	1
147.6330000000	n/a	147633	FrequentVariableSOA	1683	n/a	n/a	1
149.3160000000	n/a	149316	FrequentVariableSOA	1550	n/a	n/a	1
150.8660000000	n/a	150866	NovelVariableSOA	1616	n/a	n/a	1
152.4830000000	n/a	152483	FrequentVariableSOA	1683	n/a	n/a	1
154.1660000000	n/a	154166	FrequentVariableSOA	1700	n/a	n/a	1
155.8660000000	n/a	155866	FrequentVariableSOA	1783	n/a	n/a	1
157.6500000000	n/a	157650	GoVariableSOA	273	n/a	n/a	1
159.2160000000	n/a	159216	FrequentVariableSOA	1650	n/a	n/a	1
160.8660000000	n/a	160866	NovelVariableSOA	1683	n/a	n/a	1
162.5500000000	n/a	162550	FrequentVariableSOA	1750	n/a	n/a	1
164.3000000000	n/a	164300	FrequentVariableSOA	1533	n/a	n/a	1
165.8330000000	n/a	165833	FrequentVariableSOA	1783	n/a	n/a	1
167.6160000000	n/a	167616	GoVariableSOA	296	n/a	n/a	1
169.3160000000	n/a	169316	FrequentVariableSOA	1650	n/a	n/a	1
170.9660000000	n/a	170966	GoVariableSOA	678	n/a	n/a	1
172.6830000000	n/a	172683	FrequentVariableSOA	1566	n/a	n/a	1
174.2490000000	n/a	174249	FrequentVariableSOA	1583	n/a	n/a	1
175.8330000000	n/a	175833	GoVariableSOA	317	n/a	n/a	1
177.4830000000	n/a	177483	FrequentVariableSOA	1583	n/a	n/a	1
179.0660000000	n/a	179066	FrequentVariableSOA	1683	n/a	n/a	1
180.7490000000	n/a	180749	FrequentVariableSOA	1700	n/a	n/a	1
182.4490000000	n/a	182449	FrequentVariableSOA	1533	n/a	n/a	1
183.9830000000	n/a	183983	NovelVariableSOA	1733	n/a	n/a	1
185.7160000000	n/a	185716	FrequentVariableSOA	1716	n/a	n/a	1
187.4330000000	n/a	187433	NovelVariableSOA	1650	n/a	n/a	1
189.0830000000	n/a	189083	FrequentVariableSOA	1566	n/a	n/a	1
190.6490000000	n/a	190649	FrequentVariableSOA	1533	n/a	n/a	1
192.1830000000	n/a	192183	GoVariableSOA	307	n/a	n/a	1
193.7160000000	n/a	193716	FrequentVariableSOA	1516	n/a	n/a	1
195.2330000000	n/a	195233	FrequentVariableSOA	1533	n/a	n/a	1
196.7660000000	n/a	196766	FrequentVariableSOA	1783	n/a	n/a	1
198.5490000000	n/a	198549	FrequentVariableSOA	1683	n/a	n/a	1
200.2330000000	n/a	200233	NovelVariableSOA	1600	n/a	n/a	1
201.8330000000	n/a	201833	FrequentVariableSOA	1766	n/a	n/a	1
203.5990000000	n/a	203599	FrequentVariableSOA	1583	n/a	n/a	1
205.1830000000	n/a	205183	FrequentVariableSOA	1683	n/a	n/a	1
206.8660000000	n/a	206866	FrequentVariableSOA	1633	n/a	n/a	1
208.4990000000	n/a	208499	GoVariableSOA	366	n/a	n/a	1
210.0990000000	n/a	210099	FrequentVariableSOA	1700	n/a	n/a	1
211.7990000000	n/a	211799	FrequentVariableSOA	1550	n/a	n/a	1
213.3490000000	n/a	213349	NovelVariableSOA	1766	n/a	n/a	1
215.1160000000	n/a	215116	FrequentVariableSOA	1550	n/a	n/a	1
216.6660000000	n/a	216666	FrequentVariableSOA	1783	n/a	n/a	1
218.4490000000	n/a	218449	GoVariableSOA	355	n/a	n/a	1
219.9660000000	n/a	219966	FrequentVariableSOA	1500	n/a	n/a	1
221.4660000000	n/a	221466	FrequentVariableSOA	1566	n/a	n/a	1
223.0330000000	n/a	223033	FrequentVariableSOA	1783	n/a	n/a	1
224.8160000000	n/a	224816	FrequentVariableSOA	1616	n/a	n/a	1
226.4330000000	n/a	226433	NovelVariableSOA	1616	n/a	n/a	1
228.0490000000	n/a	228049	FrequentVariableSOA	1733	n/a	n/a	1
229.7830000000	n/a	229783	FrequentVariableSOA	1733	n/a	n/a	1
231.5160000000	n/a	231516	GoVariableSOA	318	n/a	n/a	1
233.2490000000	n/a	233249	FrequentFixedSOA	1633	n/a	n/a	1
234.8830000000	n/a	234883	FrequentFixedSOA	1633	n/a	n/a	1
236.5160000000	n/a	236516	FrequentFixedSOA	1633	n/a	n/a	1
238.1490000000	n/a	238149	GoFixedSOA	350	n/a	n/a	1
239.7830000000	n/a	239783	FrequentFixedSOA	1633	n/a	n/a	1
241.4160000000	n/a	241416	FrequentFixedSOA	1633	n/a	n/a	1
243.0490000000	n/a	243049	FrequentFixedSOA	1633	n/a	n/a	1
244.6830000000	n/a	244683	GoFixedSOA	379	n/a	n/a	1
246.3160000000	n/a	246316	FrequentFixedSOA	1633	n/a	n/a	1
247.9490000000	n/a	247949	FrequentFixedSOA	1633	n/a	n/a	1
249.5830000000	n/a	249583	FrequentFixedSOA	1633	n/a	n/a	1
251.2160000000	n/a	251216	NovelFixedSOA	1633	n/a	n/a	1
252.8490000000	n/a	252849	FrequentFixedSOA	1633	n/a	n/a	1
254.4830000000	n/a	254483	NovelFixedSOA	1633	n/a	n/a	1
256.1160000000	n/a	256116	FrequentFixedSOA	1633	n/a	n/a	1
257.7490000000	n/a	257749	FrequentFixedSOA	1633	n/a	n/a	1
259.3830000000	n/a	259383	NovelFixedSOA	1633	n/a	n/a	1
261.0160000000	n/a	261016	FrequentFixedSOA	1633	n/a	n/a	1
262.6490000000	n/a	262649	FrequentFixedSOA	1633	n/a	n/a	1
264.2830000000	n/a	264283	FrequentFixedSOA	1633	n/a	n/a	1
265.9160000000	n/a	265916	FrequentFixedSOA	1633	n/a	n/a	1
267.5490000000	n/a	267549	FrequentFixedSOA	1633	n/a	n/a	1
269.1830000000	n/a	269183	NovelFixedSOA	1633	n/a	n/a	1
270.8160000000	n/a	270816	FrequentFixedSOA	1633	n/a	n/a	1
272.4490000000	n/a	272449	FrequentFixedSOA	1633	n/a	n/a	1
274.0830000000	n/a	274083	FrequentFixedSOA	1633	n/a	n/a	1
275.7160000000	n/a	275716	FrequentFixedSOA	1633	n/a	n/a	1
277.3490000000	n/a	277349	FrequentFixedSOA	1633	n/a	n/a	1
278.9830000000	n/a	278983	GoFixedSOA	477	n/a	n/a	1
280.6160000000	n/a	280616	FrequentFixedSOA	1633	n/a	n/a	1
282.2490000000	n/a	282249	FrequentFixedSOA	1633	n/a	n/a	1
283.8830000000	n/a	283883	GoFixedSOA	460	n/a	n/a	1
285.5160000000	n/a	285516	FrequentFixedSOA	1633	n/a	n/a	1
287.1490000000	n/a	287149	NovelFixedSOA	1633	n/a	n/a	1
288.7830000000	n/a	288783	FrequentFixedSOA	1633	n/a	n/a	1
290.4160000000	n/a	290416	GoFixedSOA	1633	n/a	n/a	0
292.0490000000	n/a	292049	FrequentFixedSOA	1633	n/a	n/a	1
293.6830000000	n/a	293683	GoFixedSOA	338	n/a	n/a	1
295.3160000000	n/a	295316	FrequentFixedSOA	1633	n/a	n/a	1
296.9490000000	n/a	296949	FrequentFixedSOA	1633	n/a	n/a	1
298.5830000000	n/a	298583	FrequentFixedSOA	1633	n/a	n/a	1
300.2160000000	n/a	300216	FrequentFixedSOA	1633	n/a	n/a	1
301.8490000000	n/a	301849	GoFixedSOA	358	n/a	n/a	1
303.4830000000	n/a	303483	FrequentFixedSOA	1633	n/a	n/a	1
305.1160000000	n/a	305116	FrequentFixedSOA	1633	n/a	n/a	1
306.7490000000	n/a	306749	FrequentFixedSOA	1633	n/a	n/a	1
308.3830000000	n/a	308383	NovelFixedSOA	1633	n/a	n/a	1
310.0160000000	n/a	310016	FrequentFixedSOA	1633	n/a	n/a	1
311.6490000000	n/a	311649	FrequentFixedSOA	1633	n/a	n/a	1
313.2830000000	n/a	313283	FrequentFixedSOA	1633	n/a	n/a	1
314.9160000000	n/a	314916	FrequentFixedSOA	1633	n/a	n/a	1
316.5490000000	n/a	316549	NovelFixedSOA	490	n/a	n/a	0
318.1830000000	n/a	318183	FrequentFixedSOA	1633	n/a	n/a	1
319.8160000000	n/a	319816	FrequentFixedSOA	1633	n/a	n/a	1
321.4490000000	n/a	321449	FrequentFixedSOA	1633	n/a	n/a	1
323.0830000000	n/a	323083	FrequentFixedSOA	1633	n/a	n/a	1
324.7160000000	n/a	324716	NovelFixedSOA	1633	n/a	n/a	1
326.3490000000	n/a	326349	FrequentFixedSOA	1633	n/a	n/a	1
327.9830000000	n/a	327983	FrequentFixedSOA	1633	n/a	n/a	1
329.6160000000	n/a	329616	GoFixedSOA	1633	n/a	n/a	0
331.2490000000	n/a	331249	FrequentFixedSOA	1633	n/a	n/a	1
332.8830000000	n/a	332883	FrequentFixedSOA	1633	n/a	n/a	1
334.5160000000	n/a	334516	FrequentFixedSOA	1633	n/a	n/a	1
336.1490000000	n/a	336149	FrequentFixedSOA	1633	n/a	n/a	1
337.7830000000	n/a	337783	NovelFixedSOA	1633	n/a	n/a	1
339.4160000000	n/a	339416	FrequentFixedSOA	1633	n/a	n/a	1
341.0490000000	n/a	341049	FrequentFixedSOA	1633	n/a	n/a	1
342.6830000000	n/a	342683	FrequentFixedSOA	1633	n/a	n/a	1
344.3160000000	n/a	344316	FrequentFixedSOA	1633	n/a	n/a	1
345.9490000000	n/a	345949	FrequentFixedSOA	1633	n/a	n/a	1
347.5830000000	n/a	347583	FrequentVariableSOA	1766	n/a	n/a	1
349.3490000000	n/a	349349	FrequentVariableSOA	1683	n/a	n/a	1
351.0330000000	n/a	351033	FrequentVariableSOA	1800	n/a	n/a	1
352.8330000000	n/a	352833	GoVariableSOA	352	n/a	n/a	1
354.6160000000	n/a	354616	FrequentVariableSOA	1566	n/a	n/a	1
356.1830000000	n/a	356183	FrequentVariableSOA	1633	n/a	n/a	1
357.8160000000	n/a	357816	FrequentVariableSOA	1583	n/a	n/a	1
359.3990000000	n/a	359399	GoVariableSOA	340	n/a	n/a	1
360.9490000000	n/a	360949	FrequentVariableSOA	1633	n/a	n/a	1
362.5830000000	n/a	362583	FrequentVariableSOA	1583	n/a	n/a	1
364.1660000000	n/a	364166	FrequentVariableSOA	1750	n/a	n/a	1
365.9160000000	n/a	365916	NovelVariableSOA	1550	n/a	n/a	1
367.4660000000	n/a	367466	FrequentVariableSOA	1716	n/a	n/a	1
369.1830000000	n/a	369183	NovelVariableSOA	1583	n/a	n/a	1
370.7660000000	n/a	370766	FrequentVariableSOA	1500	n/a	n/a	1
372.2660000000	n/a	372266	FrequentVariableSOA	1566	n/a	n/a	1
373.8330000000	n/a	373833	NovelVariableSOA	1533	n/a	n/a	1
375.3660000000	n/a	375366	FrequentVariableSOA	1583	n/a	n/a	1
376.9490000000	n/a	376949	FrequentVariableSOA	1750	n/a	n/a	1
378.6990000000	n/a	378699	FrequentVariableSOA	1666	n/a	n/a	1
380.3660000000	n/a	380366	FrequentVariableSOA	1500	n/a	n/a	1
381.8660000000	n/a	381866	FrequentVariableSOA	1550	n/a	n/a	1
383.4160000000	n/a	383416	NovelVariableSOA	1533	n/a	n/a	1
384.9490000000	n/a	384949	FrequentVariableSOA	1600	n/a	n/a	1
386.5490000000	n/a	386549	FrequentVariableSOA	1550	n/a	n/a	1
388.0990000000	n/a	388099	FrequentVariableSOA	1583	n/a	n/a	1
389.6820000000	n/a	389682	FrequentVariableSOA	1683	n/a	n/a	1
391.3660000000	n/a	391366	FrequentVariableSOA	1516	n/a	n/a	1
392.8820000000	n/a	392882	GoVariableSOA	312	n/a	n/a	1
394.6660000000	n/a	394666	FrequentVariableSOA	1616	n/a	n/a	1
396.2820000000	n/a	396282	FrequentVariableSOA	1750	n/a	n/a	1
398.0320000000	n/a	398032	GoVariableSOA	462	n/a	n/a	1
399.6990000000	n/a	399699	FrequentVariableSOA	1650	n/a	n/a	1
401.3490000000	n/a	401349	NovelVariableSOA	1566	n/a	n/a	1
402.9160000000	n/a	402916	FrequentVariableSOA	1733	n/a	n/a	1
404.6490000000	n/a	404649	GoVariableSOA	408	n/a	n/a	1
406.3160000000	n/a	406316	FrequentVariableSOA	1683	n/a	n/a	1
407.9990000000	n/a	407999	GoVariableSOA	351	n/a	n/a	1
409.5820000000	n/a	409582	FrequentVariableSOA	1666	n/a	n/a	1
411.2490000000	n/a	411249	FrequentVariableSOA	1583	n/a	n/a	1
412.8320000000	n/a	412832	FrequentVariableSOA	1666	n/a	n/a	1
414.4990000000	n/a	414499	FrequentVariableSOA	1533	n/a	n/a	1
416.0320000000	n/a	416032	GoVariableSOA	352	n/a	n/a	1
417.5660000000	n/a	417566	FrequentVariableSOA	1666	n/a	n/a	1
419.2320000000	n/a	419232	FrequentVariableSOA	1616	n/a	n/a	1
420.8490000000	n/a	420849	FrequentVariableSOA	1783	n/a	n/a	1
422.6320000000	n/a	422632	NovelVariableSOA	1566	n/a	n/a	1
424.1990000000	n/a	424199	FrequentVariableSOA	1716	n/a	n/a	1
425.9160000000	n/a	425916	FrequentVariableSOA	1733	n/a	n/a	1
427.6490000000	n/a	427649	FrequentVariableSOA	1766	n/a	n/a	1
429.4160000000	n/a	429416	FrequentVariableSOA	1716	n/a	n/a	1
431.1320000000	n/a	431132	NovelVariableSOA	1500	n/a	n/a	1
432.6320000000	n/a	432632	FrequentVariableSOA	1683	n/a	n/a	1
434.3160000000	n/a	434316	FrequentVariableSOA	1566	n/a	n/a	1
435.8820000000	n/a	435882	FrequentVariableSOA	1666	n/a	n/a	1
437.5490000000	n/a	437549	FrequentVariableSOA	1566	n/a	n/a	1
439.1160000000	n/a	439116	NovelVariableSOA	1600	n/a	n/a	1
440.7160000000	n/a	440716	FrequentVariableSOA	1600	n/a	n/a	1
442.3160000000	n/a	442316	FrequentVariableSOA	1566	n/a	n/a	1
443.8820000000	n/a	443882	GoVariableSOA	335	n/a	n/a	1
445.3990000000	n/a	445399	FrequentVariableSOA	1750	n/a	n/a	1
447.1490000000	n/a	447149	FrequentVariableSOA	1783	n/a	n/a	1
448.9320000000	n/a	448932	FrequentVariableSOA	1516	n/a	n/a	1
450.4490000000	n/a	450449	FrequentVariableSOA	1650	n/a	n/a	1
452.0990000000	n/a	452099	NovelVariableSOA	1550	n/a	n/a	1
453.6490000000	n/a	453649	FrequentVariableSOA	1600	n/a	n/a	1
455.2490000000	n/a	455249	FrequentVariableSOA	1583	n/a	n/a	1
456.8320000000	n/a	456832	FrequentVariableSOA	1566	n/a	n/a	1
458.3990000000	n/a	458399	FrequentVariableSOA	1783	n/a	n/a	1
460.1820000000	n/a	460182	FrequentVariableSOA	1700	n/a	n/a	1
461.8820000000	n/a	461882	GoFixedSOA	373	n/a	n/a	1
463.5160000000	n/a	463516	FrequentFixedSOA	1633	n/a	n/a	1
465.1490000000	n/a	465149	FrequentFixedSOA	1633	n/a	n/a	1
466.7820000000	n/a	466782	FrequentFixedSOA	1633	n/a	n/a	1
468.4160000000	n/a	468416	FrequentFixedSOA	1633	n/a	n/a	1
470.0490000000	n/a	470049	FrequentFixedSOA	1633	n/a	n/a	1
471.6820000000	n/a	471682	FrequentFixedSOA	1633	n/a	n/a	1
473.3160000000	n/a	473316	NovelFixedSOA	1633	n/a	n/a	1
474.9490000000	n/a	474949	FrequentFixedSOA	1633	n/a	n/a	1
476.5820000000	n/a	476582	FrequentFixedSOA	1633	n/a	n/a	1
478.2160000000	n/a	478216	FrequentFixedSOA	1633	n/a	n/a	1
479.8490000000	n/a	479849	NovelFixedSOA	1633	n/a	n/a	1
481.4820000000	n/a	481482	FrequentFixedSOA	1633	n/a	n/a	1
483.1160000000	n/a	483116	GoFixedSOA	380	n/a	n/a	1
484.7490000000	n/a	484749	FrequentFixedSOA	1633	n/a	n/a	1
486.3820000000	n/a	486382	FrequentFixedSOA	1633	n/a	n/a	1
488.0160000000	n/a	488016	GoFixedSOA	459	n/a	n/a	1
489.6490000000	n/a	489649	FrequentFixedSOA	1633	n/a	n/a	1
491.2820000000	n/a	491282	NovelFixedSOA	1633	n/a	n/a	1
492.9160000000	n/a	492916	FrequentFixedSOA	1633	n/a	n/a	1
494.5490000000	n/a	494549	FrequentFixedSOA	1633	n/a	n/a	1
496.1820000000	n/a	496182	FrequentFixedSOA	1633	n/a	n/a	1
497.8160000000	n/a	497816	FrequentFixedSOA	1633	n/a	n/a	1
499.4490000000	n/a	499449	FrequentFixedSOA	1633	n/a	n/a	1
501.0820000000	n/a	501082	GoFixedSOA	433	n/a	n/a	1
502.7160000000	n/a	502716	FrequentFixedSOA	1633	n/a	n/a	1
504.3490000000	n/a	504349	FrequentFixedSOA	1633	n/a	n/a	1
505.9820000000	n/a	505982	NovelFixedSOA	1633	n/a	n/a	1
507.6160000000	n/a	507616	FrequentFixedSOA	1633	n/a	n/a	1
509.2490000000	n/a	509249	FrequentFixedSOA	1633	n/a	n/a	1
510.8820000000	n/a	510882	FrequentFixedSOA	1633	n/a	n/a	1
512.5160000000	n/a	512516	FrequentFixedSOA	1633	n/a	n/a	1
514.1490000000	n/a	514149	FrequentFixedSOA	1633	n/a	n/a	1
515.7820000000	n/a	515782	NovelFixedSOA	1633	n/a	n/a	1
517.4160000000	n/a	517416	FrequentFixedSOA	1633	n/a	n/a	1
519.0490000000	n/a	519049	FrequentFixedSOA	1633	n/a	n/a	1
520.6820000000	n/a	520682	FrequentFixedSOA	1633	n/a	n/a	1
522.3160000000	n/a	522316	FrequentFixedSOA	1633	n/a	n/a	1
523.9490000000	n/a	523949	GoFixedSOA	297	n/a	n/a	1
525.5820000000	n/a	525582	FrequentFixedSOA	1633	n/a	n/a	1
527.2160000000	n/a	527216	FrequentFixedSOA	1633	n/a	n/a	1
528.8490000000	n/a	528849	NovelFixedSOA	1633	n/a	n/a	1
530.4820000000	n/a	530482	FrequentFixedSOA	1633	n/a	n/a	1
532.1160000000	n/a	532116	FrequentFixedSOA	1633	n/a	n/a	1
533.7490000000	n/a	533749	NovelFixedSOA	1633	n/a	n/a	1
535.3820000000	n/a	535382	FrequentFixedSOA	1633	n/a	n/a	1
537.0160000000	n/a	537016	FrequentFixedSOA	1633	n/a	n/a	1
538.6490000000	n/a	538649	FrequentFixedSOA	1633	n/a	n/a	1
540.2820000000	n/a	540282	FrequentFixedSOA	1633	n/a	n/a	1
541.9160000000	n/a	541916	FrequentFixedSOA	1633	n/a	n/a	1
543.5490000000	n/a	543549	GoFixedSOA	362	n/a	n/a	1
545.1820000000	n/a	545182	FrequentFixedSOA	1633	n/a	n/a	1
546.8160000000	n/a	546816	FrequentFixedSOA	1633	n/a	n/a	1
548.4490000000	n/a	548449	FrequentFixedSOA	1633	n/a	n/a	1
550.0820000000	n/a	550082	FrequentFixedSOA	1633	n/a	n/a	1
551.7160000000	n/a	551716	FrequentFixedSOA	1633	n/a	n/a	1
553.3490000000	n/a	553349	NovelFixedSOA	1633	n/a	n/a	1
554.9820000000	n/a	554982	FrequentFixedSOA	1633	n/a	n/a	1
556.6160000000	n/a	556616	GoFixedSOA	375	n/a	n/a	1
558.2490000000	n/a	558249	FrequentFixedSOA	1633	n/a	n/a	1
559.8820000000	n/a	559882	FrequentFixedSOA	1633	n/a	n/a	1
561.5160000000	n/a	561516	FrequentFixedSOA	1633	n/a	n/a	1
563.1490000000	n/a	563149	FrequentFixedSOA	1633	n/a	n/a	1
564.7820000000	n/a	564782	FrequentFixedSOA	1633	n/a	n/a	1
566.4160000000	n/a	566416	FrequentFixedSOA	1633	n/a	n/a	1
568.0490000000	n/a	568049	FrequentFixedSOA	1633	n/a	n/a	1
569.6820000000	n/a	569682	FrequentFixedSOA	1633	n/a	n/a	1
571.3160000000	n/a	571316	NovelFixedSOA	1633	n/a	n/a	1
572.9490000000	n/a	572949	FrequentFixedSOA	1633	n/a	n/a	1
574.5820000000	n/a	574582	FrequentFixedSOA	1633	n/a	n/a	1
576.2160000000	n/a	576216	GoVariableSOA	288	n/a	n/a	1
577.8160000000	n/a	577816	FrequentVariableSOA	1650	n/a	n/a	1
579.4660000000	n/a	579466	FrequentVariableSOA	1733	n/a	n/a	1
581.1990000000	n/a	581199	FrequentVariableSOA	1766	n/a	n/a	1
582.9660000000	n/a	582966	FrequentVariableSOA	1500	n/a	n/a	1
584.4660000000	n/a	584466	FrequentVariableSOA	1650	n/a	n/a	1
586.1160000000	n/a	586116	FrequentVariableSOA	1633	n/a	n/a	1
587.7490000000	n/a	587749	NovelVariableSOA	1616	n/a	n/a	1
589.3660000000	n/a	589366	FrequentVariableSOA	1633	n/a	n/a	1
590.9990000000	n/a	590999	FrequentVariableSOA	1783	n/a	n/a	1
592.7820000000	n/a	592782	FrequentVariableSOA	1666	n/a	n/a	1
594.4490000000	n/a	594449	NovelVariableSOA	1716	n/a	n/a	1
596.1660000000	n/a	596166	FrequentVariableSOA	1733	n/a	n/a	1
597.8990000000	n/a	597899	GoVariableSOA	315	n/a	n/a	1
599.5320000000	n/a	599532	FrequentVariableSOA	1783	n/a	n/a	1
601.3160000000	n/a	601316	FrequentVariableSOA	1750	n/a	n/a	1
603.0660000000	n/a	603066	GoVariableSOA	451	n/a	n/a	1
604.6160000000	n/a	604616	FrequentVariableSOA	1583	n/a	n/a	1
606.1990000000	n/a	606199	NovelVariableSOA	1766	n/a	n/a	1
607.9650000000	n/a	607965	FrequentVariableSOA	1650	n/a	n/a	1
609.6150000000	n/a	609615	FrequentVariableSOA	1716	n/a	n/a	1
611.3320000000	n/a	611332	FrequentVariableSOA	1783	n/a	n/a	1
613.1150000000	n/a	613115	FrequentVariableSOA	1716	n/a	n/a	1
614.8320000000	n/a	614832	FrequentVariableSOA	1783	n/a	n/a	1
616.6150000000	n/a	616615	GoVariableSOA	234	n/a	n/a	1
618.3650000000	n/a	618365	FrequentVariableSOA	1616	n/a	n/a	1
619.9820000000	n/a	619982	FrequentVariableSOA	1683	n/a	n/a	1
621.6650000000	n/a	621665	NovelVariableSOA	1750	n/a	n/a	1
623.4150000000	n/a	623415	FrequentVariableSOA	1566	n/a	n/a	1
624.9820000000	n/a	624982	FrequentVariableSOA	1600	n/a	n/a	1
626.5820000000	n/a	626582	FrequentVariableSOA	1633	n/a	n/a	1
628.2150000000	n/a	628215	FrequentVariableSOA	1666	n/a	n/a	1
629.8820000000	n/a	629882	FrequentVariableSOA	1783	n/a	n/a	1
631.6650000000	n/a	631665	NovelVariableSOA	1516	n/a	n/a	1
633.1820000000	n/a	633182	FrequentVariableSOA	1650	n/a	n/a	1
634.8320000000	n/a	634832	FrequentVariableSOA	1666	n/a	n/a	1
636.4990000000	n/a	636499	FrequentVariableSOA	1533	n/a	n/a	1
638.0320000000	n/a	638032	FrequentVariableSOA	1600	n/a	n/a	1
639.6320000000	n/a	639632	GoVariableSOA	355	n/a	n/a	1
641.3990000000	n/a	641399	FrequentVariableSOA	1583	n/a	n/a	1
642.9820000000	n/a	642982	FrequentVariableSOA	1516	n/a	n/a	1
644.4990000000	n/a	644499	NovelVariableSOA	1733	n/a	n/a	1
646.2320000000	n/a	646232	FrequentVariableSOA	1750	n/a	n/a	1
647.9820000000	n/a	647982	FrequentVariableSOA	1766	n/a	n/a	1
649.7490000000	n/a	649749	NovelVariableSOA	1716	n/a	n/a	1
651.4650000000	n/a	651465	FrequentVariableSOA	1700	n/a	n/a	1
653.1650000000	n/a	653165	FrequentVariableSOA	1783	n/a	n/a	1
654.9490000000	n/a	654949	FrequentVariableSOA	1633	n/a	n/a	1
656.5820000000	n/a	656582	FrequentVariableSOA	1716	n/a	n/a	1
658.2990000000	n/a	658299	FrequentVariableSOA	1616	n/a	n/a	1
659.9150000000	n/a	659915	GoVariableSOA	393	n/a	n/a	1
661.5320000000	n/a	661532	FrequentVariableSOA	1633	n/a	n/a	1
663.1650000000	n/a	663165	FrequentVariableSOA	1633	n/a	n/a	1
664.7990000000	n/a	664799	FrequentVariableSOA	1500	n/a	n/a	1
666.2990000000	n/a	666299	FrequentVariableSOA	1733	n/a	n/a	1
668.0320000000	n/a	668032	FrequentVariableSOA	1516	n/a	n/a	1
669.5490000000	n/a	669549	NovelVariableSOA	1683	n/a	n/a	1
671.2320000000	n/a	671232	FrequentVariableSOA	1600	n/a	n/a	1
672.8320000000	n/a	672832	GoVariableSOA	409	n/a	n/a	1
674.5820000000	n/a	674582	FrequentVariableSOA	1533	n/a	n/a	1
676.1150000000	n/a	676115	FrequentVariableSOA	1650	n/a	n/a	1
677.7650000000	n/a	677765	FrequentVariableSOA	1500	n/a	n/a	1
679.2650000000	n/a	679265	FrequentVariableSOA	1733	n/a	n/a	1
680.9990000000	n/a	680999	FrequentVariableSOA	1783	n/a	n/a	1
682.7820000000	n/a	682782	FrequentVariableSOA	1683	n/a	n/a	1
684.4650000000	n/a	684465	FrequentVariableSOA	1633	n/a	n/a	1
686.0990000000	n/a	686099	FrequentVariableSOA	1600	n/a	n/a	1
687.6990000000	n/a	687699	NovelVariableSOA	1650	n/a	n/a	1
689.3490000000	n/a	689349	FrequentVariableSOA	1650	n/a	n/a	1
690.9990000000	n/a	690999	FrequentVariableSOA	1616	n/a	n/a	1
692.6150000000	n/a	692615	GoFixedSOA	435	n/a	n/a	1
694.2490000000	n/a	694249	FrequentFixedSOA	1633	n/a	n/a	1
695.8820000000	n/a	695882	FrequentFixedSOA	1633	n/a	n/a	1
697.5150000000	n/a	697515	FrequentFixedSOA	1633	n/a	n/a	1
699.1490000000	n/a	699149	GoFixedSOA	415	n/a	n/a	1
700.7820000000	n/a	700782	FrequentFixedSOA	1633	n/a	n/a	1
702.4150000000	n/a	702415	FrequentFixedSOA	1633	n/a	n/a	1
704.0490000000	n/a	704049	FrequentFixedSOA	1633	n/a	n/a	1
705.6820000000	n/a	705682	FrequentFixedSOA	1633	n/a	n/a	1
707.3150000000	n/a	707315	GoFixedSOA	515	n/a	n/a	1
708.9490000000	n/a	708949	FrequentFixedSOA	1633	n/a	n/a	1
710.5820000000	n/a	710582	FrequentFixedSOA	1633	n/a	n/a	1
712.2150000000	n/a	712215	NovelFixedSOA	1633	n/a	n/a	1
713.8490000000	n/a	713849	FrequentFixedSOA	1633	n/a	n/a	1
715.4820000000	n/a	715482	FrequentFixedSOA	1633	n/a	n/a	1
717.1150000000	n/a	717115	GoFixedSOA	382	n/a	n/a	1
718.7490000000	n/a	718749	FrequentFixedSOA	1633	n/a	n/a	1
720.3820000000	n/a	720382	FrequentFixedSOA	1633	n/a	n/a	1
722.0150000000	n/a	722015	FrequentFixedSOA	1633	n/a	n/a	1
723.6490000000	n/a	723649	NovelFixedSOA	1633	n/a	n/a	1
725.2820000000	n/a	725282	FrequentFixedSOA	1633	n/a	n/a	1
726.9150000000	n/a	726915	NovelFixedSOA	1633	n/a	n/a	1
728.5490000000	n/a	728549	FrequentFixedSOA	1633	n/a	n/a	1
730.1820000000	n/a	730182	FrequentFixedSOA	1633	n/a	n/a	1
731.8150000000	n/a	731815	FrequentFixedSOA	1633	n/a	n/a	1
733.4490000000	n/a	733449	GoFixedSOA	440	n/a	n/a	1
735.0820000000	n/a	735082	FrequentFixedSOA	1633	n/a	n/a	1
736.7150000000	n/a	736715	FrequentFixedSOA	1633	n/a	n/a	1
738.3490000000	n/a	738349	FrequentFixedSOA	1633	n/a	n/a	1
739.9820000000	n/a	739982	GoFixedSOA	363	n/a	n/a	1
741.6150000000	n/a	741615	FrequentFixedSOA	1633	n/a	n/a	1
743.2490000000	n/a	743249	FrequentFixedSOA	1633	n/a	n/a	1
744.8820000000	n/a	744882	NovelFixedSOA	1633	n/a	n/a	1
746.5150000000	n/a	746515	FrequentFixedSOA	1633	n/a	n/a	1
748.1490000000	n/a	748149	GoFixedSOA	305	n/a	n/a	1
749.7820000000	n/a	749782	FrequentFixedSOA	1633	n/a	n/a	1
751.4150000000	n/a	751415	FrequentFixedSOA	1633	n/a	n/a	1
753.0490000000	n/a	753049	FrequentFixedSOA	1633	n/a	n/a	1
754.6820000000	n/a	754682	FrequentFixedSOA	1633	n/a	n/a	1
756.3150000000	n/a	756315	FrequentFixedSOA	1633	n/a	n/a	1
757.9490000000	n/a	757949	FrequentFixedSOA	1633	n/a	n/a	1
759.5820000000	n/a	759582	NovelFixedSOA	1633	n/a	n/a	1
761.2150000000	n/a	761215	FrequentFixedSOA	1633	n/a	n/a	1
762.8490000000	n/a	762849	FrequentFixedSOA	1633	n/a	n/a	1
764.4820000000	n/a	764482	FrequentFixedSOA	1633	n/a	n/a	1
766.1150000000	n/a	766115	GoFixedSOA	351	n/a	n/a	1
767.7490000000	n/a	767749	FrequentFixedSOA	1633	n/a	n/a	1
769.3820000000	n/a	769382	FrequentFixedSOA	1633	n/a	n/a	1
771.0150000000	n/a	771015	FrequentFixedSOA	1633	n/a	n/a	1
772.6490000000	n/a	772649	FrequentFixedSOA	1633	n/a	n/a	1
774.2820000000	n/a	774282	NovelFixedSOA	1633	n/a	n/a	1
775.9150000000	n/a	775915	FrequentFixedSOA	1633	n/a	n/a	1
777.5490000000	n/a	777549	FrequentFixedSOA	1633	n/a	n/a	1
779.1820000000	n/a	779182	NovelFixedSOA	1633	n/a	n/a	1
780.8150000000	n/a	780815	FrequentFixedSOA	1633	n/a	n/a	1
782.4490000000	n/a	782449	NovelFixedSOA	1633	n/a	n/a	1
784.0820000000	n/a	784082	FrequentFixedSOA	1633	n/a	n/a	1
785.7150000000	n/a	785715	FrequentFixedSOA	1633	n/a	n/a	1
787.3490000000	n/a	787349	FrequentFixedSOA	1633	n/a	n/a	1
788.9820000000	n/a	788982	FrequentFixedSOA	1633	n/a	n/a	1
790.6150000000	n/a	790615	FrequentFixedSOA	1633	n/a	n/a	1
792.2490000000	n/a	792249	FrequentFixedSOA	1633	n/a	n/a	1
793.8820000000	n/a	793882	FrequentFixedSOA	1633	n/a	n/a	1
795.5150000000	n/a	795515	GoFixedSOA	475	n/a	n/a	1
797.1490000000	n/a	797149	FrequentFixedSOA	1633	n/a	n/a	1
798.7820000000	n/a	798782	GoFixedSOA	452	n/a	n/a	1
800.4150000000	n/a	800415	FrequentFixedSOA	1633	n/a	n/a	1
802.0490000000	n/a	802049	FrequentFixedSOA	1633	n/a	n/a	1
803.6820000000	n/a	803682	NovelFixedSOA	1633	n/a	n/a	1
805.3150000000	n/a	805315	FrequentFixedSOA	1633	n/a	n/a	1
806.9490000000	n/a	806949	GoVariableSOA	316	n/a	n/a	1
808.4990000000	n/a	808499	FrequentVariableSOA	1583	n/a	n/a	1
810.0820000000	n/a	810082	FrequentVariableSOA	1633	n/a	n/a	1
811.7150000000	n/a	811715	FrequentVariableSOA	1616	n/a	n/a	1
813.3320000000	n/a	813332	GoVariableSOA	358	n/a	n/a	1
814.8990000000	n/a	814899	FrequentVariableSOA	1550	n/a	n/a	1
816.4490000000	n/a	816449	FrequentVariableSOA	1766	n/a	n/a	1
818.2150000000	n/a	818215	FrequentVariableSOA	1566	n/a	n/a	1
819.7820000000	n/a	819782	FrequentVariableSOA	1550	n/a	n/a	1
821.3320000000	n/a	821332	GoVariableSOA	472	n/a	n/a	1
823.0150000000	n/a	823015	FrequentVariableSOA	1783	n/a	n/a	1
824.7990000000	n/a	824799	FrequentVariableSOA	1716	n/a	n/a	1
826.5150000000	n/a	826515	NovelVariableSOA	1633	n/a	n/a	1
828.1490000000	n/a	828149	FrequentVariableSOA	1583	n/a	n/a	1
829.7320000000	n/a	829732	FrequentVariableSOA	1783	n/a	n/a	1
831.5150000000	n/a	831515	GoVariableSOA	357	n/a	n/a	1
833.1480000000	n/a	833148	FrequentVariableSOA	1733	n/a	n/a	1
834.8820000000	n/a	834882	FrequentVariableSOA	1783	n/a	n/a	1
836.6650000000	n/a	836665	FrequentVariableSOA	1683	n/a	n/a	1
838.3480000000	n/a	838348	NovelVariableSOA	1733	n/a	n/a	1
840.0820000000	n/a	840082	FrequentVariableSOA	1783	n/a	n/a	1
841.8650000000	n/a	841865	NovelVariableSOA	1533	n/a	n/a	1
843.3980000000	n/a	843398	FrequentVariableSOA	1700	n/a	n/a	1
845.0980000000	n/a	845098	FrequentVariableSOA	1566	n/a	n/a	1
846.6650000000	n/a	846665	FrequentVariableSOA	1616	n/a	n/a	1
848.2820000000	n/a	848282	GoVariableSOA	318	n/a	n/a	1
850.0650000000	n/a	850065	FrequentVariableSOA	1650	n/a	n/a	1
851.7150000000	n/a	851715	FrequentVariableSOA	1683	n/a	n/a	1
853.3980000000	n/a	853398	FrequentVariableSOA	1516	n/a	n/a	1
854.9150000000	n/a	854915	GoVariableSOA	337	n/a	n/a	1
856.5980000000	n/a	856598	FrequentVariableSOA	1633	n/a	n/a	1
858.2320000000	n/a	858232	FrequentVariableSOA	1683	n/a	n/a	1
859.9150000000	n/a	859915	NovelVariableSOA	1650	n/a	n/a	1
861.5650000000	n/a	861565	FrequentVariableSOA	1783	n/a	n/a	1
863.3480000000	n/a	863348	GoVariableSOA	350	n/a	n/a	1
865.1150000000	n/a	865115	FrequentVariableSOA	1633	n/a	n/a	1
866.7480000000	n/a	866748	FrequentVariableSOA	1600	n/a	n/a	1
868.3480000000	n/a	868348	FrequentVariableSOA	1700	n/a	n/a	1
870.0480000000	n/a	870048	FrequentVariableSOA	1766	n/a	n/a	1
871.8150000000	n/a	871815	FrequentVariableSOA	1633	n/a	n/a	1
873.4480000000	n/a	873448	FrequentVariableSOA	1750	n/a	n/a	1
875.1980000000	n/a	875198	NovelVariableSOA	1766	n/a	n/a	1
876.9650000000	n/a	876965	FrequentVariableSOA	1633	n/a	n/a	1
878.5980000000	n/a	878598	FrequentVariableSOA	1750	n/a	n/a	1
880.3480000000	n/a	880348	FrequentVariableSOA	1500	n/a	n/a	1
881.8480000000	n/a	881848	GoVariableSOA	281	n/a	n/a	1
883.5820000000	n/a	883582	FrequentVariableSOA	1650	n/a	n/a	1
885.2320000000	n/a	885232	FrequentVariableSOA	1550	n/a	n/a	1
886.7820000000	n/a	886782	FrequentVariableSOA	1616	n/a	n/a	1
888.3980000000	n/a	888398	FrequentVariableSOA	1600	n/a	n/a	1
889.9980000000	n/a	889998	NovelVariableSOA	1533	n/a	n/a	1
891.5320000000	n/a	891532	FrequentVariableSOA	1583	n/a	n/a	1
893.1150000000	n/a	893115	FrequentVariableSOA	1550	n/a	n/a	1
894.6650000000	n/a	894665	NovelVariableSOA	1583	n/a	n/a	1
896.2480000000	n/a	896248	FrequentVariableSOA	1633	n/a	n/a	1
897.8820000000	n/a	897882	NovelVariableSOA	1716	n/a	n/a	1
899.5980000000	n/a	899598	FrequentVariableSOA	1600	n/a	n/a	1
901.1980000000	n/a	901198	FrequentVariableSOA	1666	n/a	n/a	1
902.8650000000	n/a	902865	FrequentVariableSOA	1683	n/a	n/a	1
904.5480000000	n/a	904548	FrequentVariableSOA	1666	n/a	n/a	1
906.2150000000	n/a	906215	FrequentVariableSOA	1683	n/a	n/a	1
907.8980000000	n/a	907898	FrequentVariableSOA	1650	n/a	n/a	1
909.5480000000	n/a	909548	FrequentVariableSOA	1766	n/a	n/a	1
911.3150000000	n/a	911315	GoVariableSOA	394	n/a	n/a	1
913.0820000000	n/a	913082	FrequentVariableSOA	1733	n/a	n/a	1
914.8150000000	n/a	914815	GoVariableSOA	399	n/a	n/a	1
916.3320000000	n/a	916332	FrequentVariableSOA	1633	n/a	n/a	1
917.9650000000	n/a	917965	FrequentVariableSOA	1683	n/a	n/a	1
919.6480000000	n/a	919648	NovelVariableSOA	1800	n/a	n/a	1
921.4480000000	n/a	921448	FrequentVariableSOA	1566	n/a	n/a	1
