onset	duration	sample	trial_type	response_time	stim_file	value	correct
10.4720000000	n/a	10472	ignore	11873	n/a	n/a	1
23.4220000000	n/a	23422	ignore	1000	n/a	n/a	1
25.4230000000	n/a	25423	ignore	1700	n/a	n/a	1
27.1220000000	n/a	27122	ignore	3063	n/a	n/a	0
31.2560000000	n/a	31256	ignore	1000	n/a	n/a	1
33.2560000000	n/a	33256	ignore	1700	n/a	n/a	1
34.9560000000	n/a	34956	ignore	2029	n/a	n/a	1
38.0560000000	n/a	38056	ignore	1000	n/a	n/a	1
40.0560000000	n/a	40056	ignore	1700	n/a	n/a	1
41.7560000000	n/a	41756	ignore	1066	n/a	n/a	1
43.8890000000	n/a	43889	ignore	1000	n/a	n/a	1
45.8890000000	n/a	45889	ignore	1700	n/a	n/a	1
47.5890000000	n/a	47589	ignore	993	n/a	n/a	0
49.6560000000	n/a	49656	ignore	1000	n/a	n/a	1
51.6560000000	n/a	51656	ignore	1700	n/a	n/a	1
53.3560000000	n/a	53356	ignore	1722	n/a	n/a	1
56.1560000000	n/a	56156	ignore	1000	n/a	n/a	1
58.1560000000	n/a	58156	ignore	1700	n/a	n/a	1
59.8560000000	n/a	59856	ignore	525	n/a	n/a	1
61.4560000000	n/a	61456	ignore	1000	n/a	n/a	1
63.4560000000	n/a	63456	ignore	1700	n/a	n/a	1
65.1560000000	n/a	65156	ignore	331	n/a	n/a	0
66.5560000000	n/a	66556	ignore	1000	n/a	n/a	1
68.5560000000	n/a	68556	ignore	1700	n/a	n/a	1
70.2560000000	n/a	70256	ignore	4188	n/a	n/a	1
74.5060000000	n/a	74506	ignore 	2000	n/a	n/a	1
82.3060000000	n/a	82306	ignore	1000	n/a	n/a	1
84.3060000000	n/a	84306	ignore	1700	n/a	n/a	1
86.0060000000	n/a	86006	ignore	702	n/a	n/a	1
87.7720000000	n/a	87772	ignore	1000	n/a	n/a	1
89.7720000000	n/a	89772	ignore	1700	n/a	n/a	1
91.4720000000	n/a	91472	ignore	470	n/a	n/a	0
93.0060000000	n/a	93006	ignore	1000	n/a	n/a	1
95.0060000000	n/a	95006	ignore	1700	n/a	n/a	1
96.7060000000	n/a	96706	ignore	685	n/a	n/a	1
98.4560000000	n/a	98456	ignore	1000	n/a	n/a	1
100.4560000000	n/a	100456	ignore	1700	n/a	n/a	1
102.1560000000	n/a	102156	ignore	622	n/a	n/a	0
103.8560000000	n/a	103856	ignore	1000	n/a	n/a	1
105.8560000000	n/a	105856	ignore	1700	n/a	n/a	1
107.5560000000	n/a	107556	ignore	355	n/a	n/a	0
108.9720000000	n/a	108972	ignore	1000	n/a	n/a	1
110.9720000000	n/a	110972	ignore	1700	n/a	n/a	1
112.6720000000	n/a	112672	ignore	444	n/a	n/a	1
114.1890000000	n/a	114189	ignore	1000	n/a	n/a	1
116.1890000000	n/a	116189	ignore	1700	n/a	n/a	1
117.8890000000	n/a	117889	ignore	570	n/a	n/a	0
119.5220000000	n/a	119522	ignore	1000	n/a	n/a	1
121.5220000000	n/a	121522	ignore	1700	n/a	n/a	1
123.2220000000	n/a	123222	ignore	3182	n/a	n/a	1
126.4720000000	n/a	126472	ignore 	2000	n/a	n/a	1
166.5060000000	n/a	166506	PenaltyB1	4218	n/a	n/a	1
171.7890000000	n/a	171789	NeuCorrB1	1000	n/a	n/a	1
173.7890000000	n/a	173789	ignore	1700	n/a	n/a	1
175.4890000000	n/a	175489	PenaltyB1	1499	n/a	n/a	0
178.0560000000	n/a	178056	PunIncorrB1	1000	n/a	n/a	1
180.0560000000	n/a	180056	ignore	1700	n/a	n/a	1
181.7560000000	n/a	181756	PenaltyB1	301	n/a	n/a	0
183.1220000000	n/a	183122	PunIncorrB1	1000	n/a	n/a	1
185.1220000000	n/a	185122	STATUS	1700	n/a	n/a	1
186.8220000000	n/a	186822	RewardB1	1478	n/a	n/a	0
189.3720000000	n/a	189372	NeuIncorrB1	1000	n/a	n/a	1
191.3720000000	n/a	191372	STATUS	1700	n/a	n/a	1
193.0720000000	n/a	193072	RewardB1	324	n/a	n/a	0
194.4720000000	n/a	194472	NeuIncorrB1	1000	n/a	n/a	1
196.4720000000	n/a	196472	STATUS	1700	n/a	n/a	1
198.1720000000	n/a	198172	PenaltyB1	305	n/a	n/a	1
199.5560000000	n/a	199556	NeuCorrB1	1000	n/a	n/a	1
201.5560000000	n/a	201556	STATUS	1700	n/a	n/a	1
203.2560000000	n/a	203256	PenaltyB1	1718	n/a	n/a	0
206.0390000000	n/a	206039	PunIncorrB1	1000	n/a	n/a	1
208.0390000000	n/a	208039	STATUS	1700	n/a	n/a	1
209.7390000000	n/a	209739	PenaltyB1	409	n/a	n/a	1
211.2220000000	n/a	211222	NeuCorrB1	1000	n/a	n/a	1
213.2220000000	n/a	213222	STATUS	1700	n/a	n/a	1
214.9220000000	n/a	214922	PenaltyB1	393	n/a	n/a	0
216.3890000000	n/a	216389	NeuIncorrB1	1000	n/a	n/a	1
218.3890000000	n/a	218389	STATUS	1700	n/a	n/a	1
220.0890000000	n/a	220089	RewardB1	533	n/a	n/a	1
221.6890000000	n/a	221689	RewardCorrB1	1000	n/a	n/a	1
223.6890000000	n/a	223689	STATUS	1700	n/a	n/a	1
225.3890000000	n/a	225389	PenaltyB1	3041	n/a	n/a	0
229.5050000000	n/a	229505	PunIncorrB1	1000	n/a	n/a	1
231.5060000000	n/a	231506	STATUS	1700	n/a	n/a	1
233.2050000000	n/a	233205	RewardB1	477	n/a	n/a	1
234.7550000000	n/a	234755	NeuCorrB1	1000	n/a	n/a	1
236.7560000000	n/a	236756	STATUS	1700	n/a	n/a	1
238.4550000000	n/a	238455	PenaltyB1	548	n/a	n/a	1
240.0720000000	n/a	240072	NeuCorrB1	1000	n/a	n/a	1
242.0720000000	n/a	242072	STATUS	1700	n/a	n/a	1
243.7720000000	n/a	243772	RewardB1	363	n/a	n/a	1
245.2050000000	n/a	245205	RewardCorrB1	1000	n/a	n/a	1
247.2060000000	n/a	247206	STATUS	1700	n/a	n/a	1
248.9050000000	n/a	248905	PenaltyB1	342	n/a	n/a	1
250.3220000000	n/a	250322	NeuCorrB1	1000	n/a	n/a	1
252.3220000000	n/a	252322	STATUS	1700	n/a	n/a	1
254.0220000000	n/a	254022	PenaltyB1	363	n/a	n/a	1
255.4550000000	n/a	255455	NeuCorrB1	1000	n/a	n/a	1
257.4550000000	n/a	257455	STATUS	1700	n/a	n/a	1
259.1550000000	n/a	259155	RewardB1	443	n/a	n/a	0
260.6720000000	n/a	260672	RewIncorrB1	1000	n/a	n/a	1
262.6720000000	n/a	262672	ignore	1700	n/a	n/a	1
264.3720000000	n/a	264372	PenaltyB1	305	n/a	n/a	1
265.7550000000	n/a	265755	NeuCorrB1	1000	n/a	n/a	1
267.7550000000	n/a	267755	ignore	1700	n/a	n/a	1
269.4550000000	n/a	269455	RewardB1	469	n/a	n/a	0
270.9890000000	n/a	270989	NeuIncorrB1	1000	n/a	n/a	1
272.9890000000	n/a	272989	ignore	1700	n/a	n/a	1
274.6890000000	n/a	274689	RewardB1	375	n/a	n/a	1
276.1390000000	n/a	276139	RewardCorrB1	1000	n/a	n/a	1
278.1390000000	n/a	278139	ignore	1700	n/a	n/a	1
279.8390000000	n/a	279839	RewardB1	975	n/a	n/a	0
281.8890000000	n/a	281889	RewIncorrB1	1000	n/a	n/a	1
283.8890000000	n/a	283889	ignore	1700	n/a	n/a	1
285.5890000000	n/a	285589	RewardB1	513	n/a	n/a	0
287.1720000000	n/a	287172	NeuIncorrB1	1000	n/a	n/a	1
289.1720000000	n/a	289172	ignore	1700	n/a	n/a	1
290.8720000000	n/a	290872	RewardB1	409	n/a	n/a	0
292.3550000000	n/a	292355	NeuIncorrB1	1000	n/a	n/a	1
294.3550000000	n/a	294355	ignore	1700	n/a	n/a	1
296.0550000000	n/a	296055	PenaltyB1	398	n/a	n/a	0
297.5220000000	n/a	297522	PunIncorrB1	1000	n/a	n/a	1
299.5220000000	n/a	299522	ignore	1700	n/a	n/a	1
301.2220000000	n/a	301222	RewardB1	419	n/a	n/a	1
302.7050000000	n/a	302705	RewardCorrB1	1000	n/a	n/a	1
304.7050000000	n/a	304705	ignore	1700	n/a	n/a	1
306.4050000000	n/a	306405	PenaltyB1	810	n/a	n/a	0
308.2890000000	n/a	308289	NeuIncorrB1	1000	n/a	n/a	1
310.2890000000	n/a	310289	ignore	1700	n/a	n/a	1
311.9890000000	n/a	311989	RewardB1	512	n/a	n/a	0
313.5720000000	n/a	313572	NeuIncorrB1	1000	n/a	n/a	1
315.5720000000	n/a	315572	ignore	1700	n/a	n/a	1
317.2720000000	n/a	317272	RewardB1	1336	n/a	n/a	0
319.6720000000	n/a	319672	NeuIncorrB1	1000	n/a	n/a	1
321.6720000000	n/a	321672	ignore	1700	n/a	n/a	1
323.3720000000	n/a	323372	RewardB1	482	n/a	n/a	0
324.9220000000	n/a	324922	NeuIncorrB1	1000	n/a	n/a	1
326.9220000000	n/a	326922	ignore	1700	n/a	n/a	1
328.6220000000	n/a	328622	PenaltyB1	646	n/a	n/a	0
330.3390000000	n/a	330339	PunIncorrB1	1000	n/a	n/a	1
332.3390000000	n/a	332339	ignore	1700	n/a	n/a	1
334.0390000000	n/a	334039	RewardB1	468	n/a	n/a	0
335.5720000000	n/a	335572	RewIncorrB1	1000	n/a	n/a	1
337.5720000000	n/a	337572	ignore	1700	n/a	n/a	1
339.2720000000	n/a	339272	PenaltyB1	850	n/a	n/a	0
341.1890000000	n/a	341189	PunIncorrB1	1000	n/a	n/a	1
343.1890000000	n/a	343189	ignore	1700	n/a	n/a	1
344.8890000000	n/a	344889	RewardB1	370	n/a	n/a	0
346.3220000000	n/a	346322	NeuIncorrB1	1000	n/a	n/a	1
348.3220000000	n/a	348322	ignore	1700	n/a	n/a	1
350.0220000000	n/a	350022	PenaltyB1	388	n/a	n/a	1
351.4890000000	n/a	351489	PunCorrB1	1000	n/a	n/a	1
353.4890000000	n/a	353489	ignore	1700	n/a	n/a	1
355.1890000000	n/a	355189	RewardB1	427	n/a	n/a	1
356.6890000000	n/a	356689	RewardCorrB1	1000	n/a	n/a	1
358.6890000000	n/a	358689	ignore	1700	n/a	n/a	1
360.3890000000	n/a	360389	PenaltyB1	606	n/a	n/a	0
362.0720000000	n/a	362072	PunIncorrB1	1000	n/a	n/a	1
364.0720000000	n/a	364072	ignore	1700	n/a	n/a	1
365.7720000000	n/a	365772	PenaltyB1	400	n/a	n/a	0
367.2390000000	n/a	367239	PunIncorrB1	1000	n/a	n/a	1
369.2390000000	n/a	369239	STATUS	1700	n/a	n/a	1
370.9390000000	n/a	370939	RewardB1	349	n/a	n/a	1
372.3550000000	n/a	372355	RewardCorrB1	1000	n/a	n/a	1
374.3550000000	n/a	374355	ignore	1700	n/a	n/a	1
376.0550000000	n/a	376055	PenaltyB1	343	n/a	n/a	1
377.4720000000	n/a	377472	PunCorrB1	1000	n/a	n/a	1
379.4720000000	n/a	379472	STATUS	1700	n/a	n/a	1
381.1720000000	n/a	381172	RewardB1	446	n/a	n/a	1
382.6890000000	n/a	382689	RewardCorrB1	1000	n/a	n/a	1
384.6890000000	n/a	384689	ignore	1700	n/a	n/a	1
387.9720000000	n/a	387972	RewardB2	661	n/a	n/a	1
389.7050000000	n/a	389705	RewardCorrB2	1000	n/a	n/a	1
391.7050000000	n/a	391705	ignore	1700	n/a	n/a	1
393.4050000000	n/a	393405	PenaltyB2	750	n/a	n/a	0
395.2220000000	n/a	395222	PunIncorrB2	1000	n/a	n/a	1
397.2220000000	n/a	397222	ignore	1700	n/a	n/a	1
398.9220000000	n/a	398922	RewardB2	345	n/a	n/a	1
400.3390000000	n/a	400339	RewardCorrB2	1000	n/a	n/a	1
402.3390000000	n/a	402339	ignore	1700	n/a	n/a	1
404.0390000000	n/a	404039	RewardB2	446	n/a	n/a	0
405.5550000000	n/a	405555	RewIncorrB2	1000	n/a	n/a	1
407.5550000000	n/a	407555	ignore	1700	n/a	n/a	1
409.2550000000	n/a	409255	PenaltyB2	437	n/a	n/a	0
410.7550000000	n/a	410755	PunIncorrB2	1000	n/a	n/a	1
412.7550000000	n/a	412755	ignore	1700	n/a	n/a	1
414.4550000000	n/a	414455	RewardB2	629	n/a	n/a	1
416.1550000000	n/a	416155	RewardCorrB2	1000	n/a	n/a	1
418.1550000000	n/a	418155	ignore	1700	n/a	n/a	1
419.8550000000	n/a	419855	PenaltyB2	453	n/a	n/a	1
421.3720000000	n/a	421372	NeuCorrB2	1000	n/a	n/a	1
423.3720000000	n/a	423372	ignore	1700	n/a	n/a	1
425.0720000000	n/a	425072	RewardB2	576	n/a	n/a	1
426.7220000000	n/a	426722	RewardCorrB2	1000	n/a	n/a	1
428.7220000000	n/a	428722	ignore	1700	n/a	n/a	1
430.4220000000	n/a	430422	PenaltyB2	763	n/a	n/a	1
432.2550000000	n/a	432255	NeuCorrB2	1000	n/a	n/a	1
434.2550000000	n/a	434255	ignore	1700	n/a	n/a	1
435.9550000000	n/a	435955	RewardB2	332	n/a	n/a	1
437.3550000000	n/a	437355	RewardCorrB2	1000	n/a	n/a	1
439.3550000000	n/a	439355	ignore	1700	n/a	n/a	1
441.0550000000	n/a	441055	PenaltyB2	568	n/a	n/a	1
442.6880000000	n/a	442688	PunCorrB2	1000	n/a	n/a	1
444.6890000000	n/a	444689	ignore	1700	n/a	n/a	1
446.3880000000	n/a	446388	RewardB2	345	n/a	n/a	1
447.8050000000	n/a	447805	RewardCorrB2	1000	n/a	n/a	1
449.8050000000	n/a	449805	ignore	1700	n/a	n/a	1
451.5050000000	n/a	451505	PenaltyB2	653	n/a	n/a	0
453.2220000000	n/a	453222	PunIncorrB2	1000	n/a	n/a	1
455.2220000000	n/a	455222	ignore	1700	n/a	n/a	1
456.9220000000	n/a	456922	RewardB2	573	n/a	n/a	1
458.5720000000	n/a	458572	RewardCorrB2	1000	n/a	n/a	1
460.5720000000	n/a	460572	ignore	1700	n/a	n/a	1
462.2720000000	n/a	462272	PenaltyB2	695	n/a	n/a	1
464.0380000000	n/a	464038	NeuCorrB2	1000	n/a	n/a	1
466.0390000000	n/a	466039	ignore	1700	n/a	n/a	1
467.7380000000	n/a	467738	RewardB2	557	n/a	n/a	0
469.3720000000	n/a	469372	RewIncorrB2	1000	n/a	n/a	1
471.3720000000	n/a	471372	ignore	1700	n/a	n/a	1
473.0720000000	n/a	473072	PenaltyB2	732	n/a	n/a	1
474.8720000000	n/a	474872	NeuCorrB2	1000	n/a	n/a	1
476.8720000000	n/a	476872	ignore	1700	n/a	n/a	1
478.5720000000	n/a	478572	RewardB2	372	n/a	n/a	1
480.0220000000	n/a	480022	RewardCorrB2	1000	n/a	n/a	1
482.0220000000	n/a	482022	ignore	1700	n/a	n/a	1
483.7220000000	n/a	483722	PenaltyB2	472	n/a	n/a	1
485.2720000000	n/a	485272	NeuCorrB2	1000	n/a	n/a	1
487.2720000000	n/a	487272	ignore	1700	n/a	n/a	1
488.9720000000	n/a	488972	RewardB2	463	n/a	n/a	1
490.5050000000	n/a	490505	RewardCorrB2	1000	n/a	n/a	1
492.5050000000	n/a	492505	ignore	1700	n/a	n/a	1
494.2050000000	n/a	494205	PenaltyB2	735	n/a	n/a	1
496.0050000000	n/a	496005	PunCorrB2	1000	n/a	n/a	1
498.0050000000	n/a	498005	ignore	1700	n/a	n/a	1
499.7050000000	n/a	499705	PenaltyB2	370	n/a	n/a	1
501.1380000000	n/a	501138	NeuCorrB2	1000	n/a	n/a	1
503.1380000000	n/a	503138	ignore	1700	n/a	n/a	1
504.8380000000	n/a	504838	PenaltyB2	503	n/a	n/a	1
506.4050000000	n/a	506405	NeuCorrB2	1000	n/a	n/a	1
508.4050000000	n/a	508405	ignore	1700	n/a	n/a	1
510.1050000000	n/a	510105	RewardB2	1522	n/a	n/a	0
512.7050000000	n/a	512705	NeuIncorrB2	1000	n/a	n/a	1
514.7050000000	n/a	514705	ignore	1700	n/a	n/a	1
516.4050000000	n/a	516405	RewardB2	361	n/a	n/a	0
517.8380000000	n/a	517838	RewIncorrB2	1000	n/a	n/a	1
519.8380000000	n/a	519838	ignore	1700	n/a	n/a	1
521.5380000000	n/a	521538	RewardB2	295	n/a	n/a	0
522.9050000000	n/a	522905	NeuIncorrB2	1000	n/a	n/a	1
524.9050000000	n/a	524905	ignore	1700	n/a	n/a	1
526.6050000000	n/a	526605	PenaltyB2	593	n/a	n/a	0
528.2720000000	n/a	528272	PunIncorrB2	1000	n/a	n/a	1
530.2720000000	n/a	530272	ignore	1700	n/a	n/a	1
531.9720000000	n/a	531972	PenaltyB2	366	n/a	n/a	0
533.4050000000	n/a	533405	PunIncorrB2	1000	n/a	n/a	1
535.4050000000	n/a	535405	ignore	1700	n/a	n/a	1
537.1050000000	n/a	537105	RewardB2	367	n/a	n/a	0
538.5380000000	n/a	538538	NeuIncorrB2	1000	n/a	n/a	1
540.5380000000	n/a	540538	ignore	1700	n/a	n/a	1
542.2380000000	n/a	542238	PenaltyB2	337	n/a	n/a	0
543.6380000000	n/a	543638	PunIncorrB2	1000	n/a	n/a	1
545.6380000000	n/a	545638	ignore	1700	n/a	n/a	1
547.3380000000	n/a	547338	RewardB2	583	n/a	n/a	1
548.9880000000	n/a	548988	NeuCorrB2	1000	n/a	n/a	1
550.9880000000	n/a	550988	ignore	1700	n/a	n/a	1
552.6880000000	n/a	552688	PenaltyB2	457	n/a	n/a	1
554.2220000000	n/a	554222	NeuCorrB2	1000	n/a	n/a	1
556.2220000000	n/a	556222	ignore	1700	n/a	n/a	1
557.9220000000	n/a	557922	RewardB2	532	n/a	n/a	0
559.5220000000	n/a	559522	NeuIncorrB2	1000	n/a	n/a	1
561.5220000000	n/a	561522	ignore	1700	n/a	n/a	1
563.2220000000	n/a	563222	PenaltyB2	415	n/a	n/a	0
564.7050000000	n/a	564705	PunIncorrB2	1000	n/a	n/a	1
566.7050000000	n/a	566705	ignore	1700	n/a	n/a	1
568.4050000000	n/a	568405	PenaltyB2	403	n/a	n/a	0
569.8720000000	n/a	569872	NeuIncorrB2	1000	n/a	n/a	1
571.8720000000	n/a	571872	ignore	1700	n/a	n/a	1
573.5720000000	n/a	573572	RewardB2	434	n/a	n/a	0
575.0720000000	n/a	575072	NeuIncorrB2	1000	n/a	n/a	1
577.0720000000	n/a	577072	ignore	1700	n/a	n/a	1
578.7720000000	n/a	578772	PenaltyB2	489	n/a	n/a	1
580.3380000000	n/a	580338	NeuCorrB2	1000	n/a	n/a	1
582.3380000000	n/a	582338	ignore	1700	n/a	n/a	1
584.0380000000	n/a	584038	RewardB2	449	n/a	n/a	1
585.5550000000	n/a	585555	RewardCorrB2	1000	n/a	n/a	1
587.5550000000	n/a	587555	ignore	1700	n/a	n/a	1
589.2550000000	n/a	589255	PenaltyB2	803	n/a	n/a	0
591.1220000000	n/a	591122	NeuIncorrB2	1000	n/a	n/a	1
593.1220000000	n/a	593122	ignore	1700	n/a	n/a	1
594.8220000000	n/a	594822	RewardB2	469	n/a	n/a	1
596.3550000000	n/a	596355	RewardCorrB2	1000	n/a	n/a	1
598.3550000000	n/a	598355	ignore	1700	n/a	n/a	1
604.3880000000	n/a	604388	RewardB3	588	n/a	n/a	1
606.0550000000	n/a	606055	RewardCorrB3	1000	n/a	n/a	1
608.0550000000	n/a	608055	ignore	1700	n/a	n/a	1
609.7550000000	n/a	609755	PenaltyB3	569	n/a	n/a	1
611.3880000000	n/a	611388	PunCorrB3	1000	n/a	n/a	1
613.3880000000	n/a	613388	ignore	1700	n/a	n/a	1
615.0880000000	n/a	615088	RewardB3	798	n/a	n/a	0
616.9550000000	n/a	616955	NeuIncorrB3	1000	n/a	n/a	1
618.9550000000	n/a	618955	ignore	1700	n/a	n/a	1
620.6550000000	n/a	620655	PenaltyB3	464	n/a	n/a	1
622.1880000000	n/a	622188	NeuCorrB3	1000	n/a	n/a	1
624.1880000000	n/a	624188	ignore	1700	n/a	n/a	1
625.8880000000	n/a	625888	PenaltyB3	616	n/a	n/a	1
627.5720000000	n/a	627572	NeuCorrB3	1000	n/a	n/a	1
629.5720000000	n/a	629572	ignore	1700	n/a	n/a	1
631.2720000000	n/a	631272	RewardB3	2339	n/a	n/a	0
634.6880000000	n/a	634688	NeuIncorrB3	1000	n/a	n/a	1
636.6880000000	n/a	636688	ignore	1700	n/a	n/a	1
638.3880000000	n/a	638388	PenaltyB3	412	n/a	n/a	0
639.8720000000	n/a	639872	NeuIncorrB3	1000	n/a	n/a	1
641.8720000000	n/a	641872	ignore	1700	n/a	n/a	1
643.5720000000	n/a	643572	RewardB3	984	n/a	n/a	0
645.6220000000	n/a	645622	NeuIncorrB3	1000	n/a	n/a	1
647.6220000000	n/a	647622	ignore	1700	n/a	n/a	1
649.3220000000	n/a	649322	PenaltyB3	383	n/a	n/a	0
650.7720000000	n/a	650772	PunIncorrB3	1000	n/a	n/a	1
652.7720000000	n/a	652772	ignore	1700	n/a	n/a	1
654.4720000000	n/a	654472	RewardB3	1260	n/a	n/a	0
656.8050000000	n/a	656805	RewIncorrB3	1000	n/a	n/a	1
658.8050000000	n/a	658805	ignore	1700	n/a	n/a	1
660.5050000000	n/a	660505	PenaltyB3	950	n/a	n/a	0
662.5210000000	n/a	662521	PunIncorrB3	1000	n/a	n/a	1
664.5220000000	n/a	664522	ignore	1700	n/a	n/a	1
666.2210000000	n/a	666221	RewardB3	1710	n/a	n/a	1
669.0050000000	n/a	669005	RewardCorrB3	1000	n/a	n/a	1
671.0050000000	n/a	671005	ignore	1700	n/a	n/a	1
672.7050000000	n/a	672705	RewardB3	1354	n/a	n/a	1
675.1210000000	n/a	675121	RewardCorrB3	1000	n/a	n/a	1
677.1220000000	n/a	677122	ignore	1700	n/a	n/a	1
678.8210000000	n/a	678821	RewardB3	985	n/a	n/a	1
680.8710000000	n/a	680871	RewardCorrB3	1000	n/a	n/a	1
682.8720000000	n/a	682872	ignore	1700	n/a	n/a	1
684.5710000000	n/a	684571	PenaltyB3	1567	n/a	n/a	1
687.2050000000	n/a	687205	PunCorrB3	1000	n/a	n/a	1
689.2050000000	n/a	689205	ignore	1700	n/a	n/a	1
690.9050000000	n/a	690905	RewardB3	895	n/a	n/a	1
692.8710000000	n/a	692871	RewardCorrB3	1000	n/a	n/a	1
694.8720000000	n/a	694872	ignore	1700	n/a	n/a	1
696.5710000000	n/a	696571	PenaltyB3	977	n/a	n/a	1
698.6210000000	n/a	698621	NeuCorrB3	1000	n/a	n/a	1
700.6220000000	n/a	700622	ignore	1700	n/a	n/a	1
702.3210000000	n/a	702321	RewardB3	870	n/a	n/a	1
704.2550000000	n/a	704255	RewardCorrB3	1000	n/a	n/a	1
706.2550000000	n/a	706255	ignore	1700	n/a	n/a	1
707.9550000000	n/a	707955	RewardB3	1000	n/a	n/a	1
710.0210000000	n/a	710021	RewardCorrB3	1000	n/a	n/a	1
712.0210000000	n/a	712021	STATUS	1700	n/a	n/a	1
713.7210000000	n/a	713721	RewardB3	1136	n/a	n/a	1
715.9210000000	n/a	715921	NeuCorrB3	1000	n/a	n/a	1
717.9210000000	n/a	717921	STATUS	1700	n/a	n/a	1
719.6210000000	n/a	719621	RewardB3	692	n/a	n/a	1
721.3880000000	n/a	721388	RewardCorrB3	1000	n/a	n/a	1
723.3880000000	n/a	723388	STATUS	1700	n/a	n/a	1
725.0880000000	n/a	725088	RewardB3	1232	n/a	n/a	1
727.3880000000	n/a	727388	RewardCorrB3	1000	n/a	n/a	1
729.3880000000	n/a	729388	STATUS	1700	n/a	n/a	1
731.0880000000	n/a	731088	PenaltyB3	637	n/a	n/a	0
732.7880000000	n/a	732788	PunIncorrB3	1000	n/a	n/a	1
734.7880000000	n/a	734788	STATUS	1700	n/a	n/a	1
736.4880000000	n/a	736488	RewardB3	688	n/a	n/a	1
738.2380000000	n/a	738238	NeuCorrB3	1000	n/a	n/a	1
740.2380000000	n/a	740238	STATUS	1700	n/a	n/a	1
741.9380000000	n/a	741938	PenaltyB3	668	n/a	n/a	1
743.6710000000	n/a	743671	NeuCorrB3	1000	n/a	n/a	1
745.6710000000	n/a	745671	STATUS	1700	n/a	n/a	1
747.3710000000	n/a	747371	PenaltyB3	355	n/a	n/a	1
748.8050000000	n/a	748805	NeuCorrB3	1000	n/a	n/a	1
750.8050000000	n/a	750805	STATUS	1700	n/a	n/a	1
752.5050000000	n/a	752505	RewardB3	1903	n/a	n/a	1
755.4710000000	n/a	755471	RewardCorrB3	1000	n/a	n/a	1
757.4710000000	n/a	757471	STATUS	1700	n/a	n/a	1
759.1710000000	n/a	759171	PenaltyB3	916	n/a	n/a	0
761.1550000000	n/a	761155	PunIncorrB3	1000	n/a	n/a	1
763.1550000000	n/a	763155	STATUS	1700	n/a	n/a	1
764.8550000000	n/a	764855	RewardB3	853	n/a	n/a	1
766.7710000000	n/a	766771	NeuCorrB3	1000	n/a	n/a	1
768.7710000000	n/a	768771	STATUS	1700	n/a	n/a	1
770.4710000000	n/a	770471	PenaltyB3	469	n/a	n/a	0
772.0050000000	n/a	772005	PunIncorrB3	1000	n/a	n/a	1
774.0050000000	n/a	774005	STATUS	1700	n/a	n/a	1
775.7050000000	n/a	775705	RewardB3	493	n/a	n/a	0
777.2710000000	n/a	777271	NeuIncorrB3	1000	n/a	n/a	1
779.2710000000	n/a	779271	STATUS	1700	n/a	n/a	1
780.9710000000	n/a	780971	PenaltyB3	873	n/a	n/a	0
782.9210000000	n/a	782921	NeuIncorrB3	1000	n/a	n/a	1
784.9210000000	n/a	784921	STATUS	1700	n/a	n/a	1
786.6210000000	n/a	786621	PenaltyB3	1012	n/a	n/a	0
788.7050000000	n/a	788705	PunIncorrB3	1000	n/a	n/a	1
790.7050000000	n/a	790705	ignore	1700	n/a	n/a	1
792.4050000000	n/a	792405	PenaltyB3	603	n/a	n/a	1
794.0710000000	n/a	794071	NeuCorrB3	1000	n/a	n/a	1
796.0710000000	n/a	796071	ignore	1700	n/a	n/a	1
797.7710000000	n/a	797771	PenaltyB3	368	n/a	n/a	1
799.2050000000	n/a	799205	NeuCorrB3	1000	n/a	n/a	1
801.2050000000	n/a	801205	ignore	1700	n/a	n/a	1
802.9050000000	n/a	802905	RewardB3	830	n/a	n/a	0
804.8050000000	n/a	804805	NeuIncorrB3	1000	n/a	n/a	1
806.8050000000	n/a	806805	ignore	1700	n/a	n/a	1
808.5050000000	n/a	808505	RewardB3	1940	n/a	n/a	1
811.5210000000	n/a	811521	RewardCorrB3	1000	n/a	n/a	1
813.5210000000	n/a	813521	STATUS	1700	n/a	n/a	1
815.2210000000	n/a	815221	PenaltyB3	1699	n/a	n/a	0
817.9880000000	n/a	817988	PunIncorrB3	1000	n/a	n/a	1
819.9880000000	n/a	819988	ignore	1700	n/a	n/a	1
821.6880000000	n/a	821688	PenaltyB3	571	n/a	n/a	0
823.3210000000	n/a	823321	PunIncorrB3	1000	n/a	n/a	1
825.3210000000	n/a	825321	ignore	1700	n/a	n/a	1
827.0210000000	n/a	827021	PenaltyB3	458	n/a	n/a	0
828.5550000000	n/a	828555	PunIncorrB3	1000	n/a	n/a	1
830.5550000000	n/a	830555	ignore	1700	n/a	n/a	1
834.2380000000	n/a	834238	RewardB4	691	n/a	n/a	1
836.0050000000	n/a	836005	RewardCorrB4	1000	n/a	n/a	1
838.0050000000	n/a	838005	ignore	1700	n/a	n/a	1
839.7050000000	n/a	839705	PenaltyB4	3203	n/a	n/a	1
843.9710000000	n/a	843971	PunCorrB4	1000	n/a	n/a	1
845.9710000000	n/a	845971	ignore	1700	n/a	n/a	1
847.6710000000	n/a	847671	RewardB4	1061	n/a	n/a	1
849.8050000000	n/a	849805	RewardCorrB4	1000	n/a	n/a	1
851.8050000000	n/a	851805	ignore	1700	n/a	n/a	1
853.5050000000	n/a	853505	PenaltyB4	912	n/a	n/a	0
855.4880000000	n/a	855488	PunIncorrB4	1000	n/a	n/a	1
857.4880000000	n/a	857488	ignore	1700	n/a	n/a	1
859.1880000000	n/a	859188	RewardB4	577	n/a	n/a	1
860.8380000000	n/a	860838	RewardCorrB4	1000	n/a	n/a	1
862.8380000000	n/a	862838	ignore	1700	n/a	n/a	1
864.5380000000	n/a	864538	PenaltyB4	554	n/a	n/a	0
866.1550000000	n/a	866155	NeuIncorrB4	1000	n/a	n/a	1
868.1550000000	n/a	868155	ignore	1700	n/a	n/a	1
869.8550000000	n/a	869855	PenaltyB4	1298	n/a	n/a	0
872.2210000000	n/a	872221	PunIncorrB4	1000	n/a	n/a	1
874.2210000000	n/a	874221	ignore	1700	n/a	n/a	1
875.9210000000	n/a	875921	RewardB4	847	n/a	n/a	1
877.8380000000	n/a	877838	RewardCorrB4	1000	n/a	n/a	1
879.8380000000	n/a	879838	ignore	1700	n/a	n/a	1
881.5380000000	n/a	881538	PenaltyB4	1902	n/a	n/a	1
884.5050000000	n/a	884505	NeuCorrB4	1000	n/a	n/a	1
886.5050000000	n/a	886505	ignore	1700	n/a	n/a	1
888.2040000000	n/a	888204	RewardB4	624	n/a	n/a	1
889.9040000000	n/a	889904	NeuCorrB4	1000	n/a	n/a	1
891.9050000000	n/a	891905	ignore	1700	n/a	n/a	1
893.6040000000	n/a	893604	PenaltyB4	385	n/a	n/a	1
895.0540000000	n/a	895054	NeuCorrB4	1000	n/a	n/a	1
897.0550000000	n/a	897055	ignore	1700	n/a	n/a	1
898.7540000000	n/a	898754	RewardB4	507	n/a	n/a	1
900.3380000000	n/a	900338	RewardCorrB4	1000	n/a	n/a	1
902.3380000000	n/a	902338	ignore	1700	n/a	n/a	1
904.0380000000	n/a	904038	PenaltyB4	420	n/a	n/a	0
905.5210000000	n/a	905521	PunIncorrB4	1000	n/a	n/a	1
907.5210000000	n/a	907521	ignore	1700	n/a	n/a	1
909.2210000000	n/a	909221	PenaltyB4	2480	n/a	n/a	0
912.7710000000	n/a	912771	PunIncorrB4	1000	n/a	n/a	1
914.7710000000	n/a	914771	ignore	1700	n/a	n/a	1
916.4710000000	n/a	916471	RewardB4	1341	n/a	n/a	1
918.8880000000	n/a	918888	RewardCorrB4	1000	n/a	n/a	1
920.8880000000	n/a	920888	ignore	1700	n/a	n/a	1
922.5880000000	n/a	922588	RewardB4	2560	n/a	n/a	1
926.2210000000	n/a	926221	NeuCorrB4	1000	n/a	n/a	1
928.2210000000	n/a	928221	ignore	1700	n/a	n/a	1
929.9210000000	n/a	929921	RewardB4	2340	n/a	n/a	1
933.3380000000	n/a	933338	RewardCorrB4	1000	n/a	n/a	1
935.3380000000	n/a	935338	ignore	1700	n/a	n/a	1
937.0380000000	n/a	937038	PenaltyB4	988	n/a	n/a	0
939.0880000000	n/a	939088	PunIncorrB4	1000	n/a	n/a	1
941.0880000000	n/a	941088	ignore	1700	n/a	n/a	1
942.7880000000	n/a	942788	PenaltyB4	506	n/a	n/a	0
944.3710000000	n/a	944371	PunIncorrB4	1000	n/a	n/a	1
946.3710000000	n/a	946371	ignore	1700	n/a	n/a	1
948.0710000000	n/a	948071	PenaltyB4	488	n/a	n/a	0
949.6210000000	n/a	949621	NeuIncorrB4	1000	n/a	n/a	1
951.6210000000	n/a	951621	ignore	1700	n/a	n/a	1
953.3210000000	n/a	953321	RewardB4	564	n/a	n/a	1
954.9540000000	n/a	954954	RewardCorrB4	1000	n/a	n/a	1
956.9540000000	n/a	956954	ignore	1700	n/a	n/a	1
958.6540000000	n/a	958654	PenaltyB4	2215	n/a	n/a	0
961.9380000000	n/a	961938	PunIncorrB4	1000	n/a	n/a	1
963.9380000000	n/a	963938	ignore	1700	n/a	n/a	1
965.6380000000	n/a	965638	RewardB4	390	n/a	n/a	1
967.1040000000	n/a	967104	RewardCorrB4	1000	n/a	n/a	1
969.1040000000	n/a	969104	ignore	1700	n/a	n/a	1
970.8040000000	n/a	970804	PenaltyB4	446	n/a	n/a	0
972.3210000000	n/a	972321	PunIncorrB4	1000	n/a	n/a	1
974.3210000000	n/a	974321	ignore	1700	n/a	n/a	1
976.0210000000	n/a	976021	RewardB4	898	n/a	n/a	0
977.9880000000	n/a	977988	RewIncorrB4	1000	n/a	n/a	1
979.9880000000	n/a	979988	ignore	1700	n/a	n/a	1
981.6880000000	n/a	981688	PenaltyB4	502	n/a	n/a	0
983.2540000000	n/a	983254	PunIncorrB4	1000	n/a	n/a	1
985.2540000000	n/a	985254	ignore	1700	n/a	n/a	1
986.9540000000	n/a	986954	RewardB4	994	n/a	n/a	1
989.0210000000	n/a	989021	RewardCorrB4	1000	n/a	n/a	1
991.0210000000	n/a	991021	ignore	1700	n/a	n/a	1
992.7210000000	n/a	992721	PenaltyB4	3046	n/a	n/a	0
996.8380000000	n/a	996838	PunIncorrB4	1000	n/a	n/a	1
998.8380000000	n/a	998838	ignore	1700	n/a	n/a	1
1000.5380000000	n/a	1000538	RewardB4	549	n/a	n/a	0
1002.1540000000	n/a	1002154	NeuIncorrB4	1000	n/a	n/a	1
1004.1540000000	n/a	1004154	ignore	1700	n/a	n/a	1
1005.8540000000	n/a	1005854	PenaltyB4	419	n/a	n/a	0
1007.3380000000	n/a	1007338	NeuIncorrB4	1000	n/a	n/a	1
1009.3380000000	n/a	1009338	ignore	1700	n/a	n/a	1
1011.0380000000	n/a	1011038	RewardB4	1302	n/a	n/a	0
1013.4040000000	n/a	1013404	NeuIncorrB4	1000	n/a	n/a	1
1015.4040000000	n/a	1015404	ignore	1700	n/a	n/a	1
1017.1040000000	n/a	1017104	PenaltyB4	586	n/a	n/a	0
1018.7540000000	n/a	1018754	PunIncorrB4	1000	n/a	n/a	1
1020.7540000000	n/a	1020754	ignore	1700	n/a	n/a	1
1022.4540000000	n/a	1022454	RewardB4	560	n/a	n/a	1
1024.0880000000	n/a	1024088	RewardCorrB4	1000	n/a	n/a	1
1026.0880000000	n/a	1026088	ignore	1700	n/a	n/a	1
1027.7880000000	n/a	1027788	PenaltyB4	464	n/a	n/a	0
1029.3210000000	n/a	1029321	PunIncorrB4	1000	n/a	n/a	1
1031.3210000000	n/a	1031321	ignore	1700	n/a	n/a	1
1033.0210000000	n/a	1033021	RewardB4	842	n/a	n/a	1
1034.9380000000	n/a	1034938	RewardCorrB4	1000	n/a	n/a	1
1036.9380000000	n/a	1036938	ignore	1700	n/a	n/a	1
1038.6380000000	n/a	1038638	PenaltyB4	759	n/a	n/a	0
1040.4710000000	n/a	1040471	PunIncorrB4	1000	n/a	n/a	1
1042.4710000000	n/a	1042471	ignore	1700	n/a	n/a	1
1044.1710000000	n/a	1044171	RewardB4	297	n/a	n/a	1
1045.5380000000	n/a	1045538	NeuCorrB4	1000	n/a	n/a	1
1047.5380000000	n/a	1047538	ignore	1700	n/a	n/a	1
1049.2380000000	n/a	1049238	RewardB4	339	n/a	n/a	1
1050.6540000000	n/a	1050654	RewardCorrB4	1000	n/a	n/a	1
1052.6540000000	n/a	1052654	ignore	1700	n/a	n/a	1
1054.3540000000	n/a	1054354	PenaltyB4	593	n/a	n/a	1
1056.0210000000	n/a	1056021	NeuCorrB4	1000	n/a	n/a	1
1058.0210000000	n/a	1058021	ignore	1700	n/a	n/a	1
1059.7210000000	n/a	1059721	RewardB4	1207	n/a	n/a	1
1062.0040000000	n/a	1062004	RewardCorrB4	1000	n/a	n/a	1
1064.0040000000	n/a	1064004	ignore	1700	n/a	n/a	1
1068.5380000000	n/a	1068538	ignore	1700	n/a	n/a	1
