onset	duration	sample	trial_type	response_time	stim_file	value	correct
5.8750000000	n/a	5875	ignore	2210	n/a	n/a	1
9.1580000000	n/a	9158	ignore	1000	n/a	n/a	1
11.1580000000	n/a	11158	ignore	1700	n/a	n/a	1
12.8580000000	n/a	12858	ignore	3170	n/a	n/a	0
17.0920000000	n/a	17092	ignore	1000	n/a	n/a	1
19.0920000000	n/a	19092	ignore	1700	n/a	n/a	1
20.7920000000	n/a	20792	ignore	1251	n/a	n/a	1
23.1080000000	n/a	23108	ignore	1000	n/a	n/a	1
25.1080000000	n/a	25108	ignore	1700	n/a	n/a	1
26.8080000000	n/a	26808	ignore	1732	n/a	n/a	1
29.6080000000	n/a	29608	ignore	1000	n/a	n/a	1
31.6080000000	n/a	31608	ignore	1700	n/a	n/a	1
33.3080000000	n/a	33308	ignore	1429	n/a	n/a	1
35.8080000000	n/a	35808	ignore	1000	n/a	n/a	1
37.8080000000	n/a	37808	ignore	1700	n/a	n/a	1
39.5080000000	n/a	39508	ignore	629	n/a	n/a	0
41.2080000000	n/a	41208	ignore	1000	n/a	n/a	1
43.2080000000	n/a	43208	ignore	1700	n/a	n/a	1
44.9080000000	n/a	44908	ignore	2905	n/a	n/a	0
48.8920000000	n/a	48892	ignore	1000	n/a	n/a	1
50.8920000000	n/a	50892	ignore	1700	n/a	n/a	1
52.5920000000	n/a	52592	ignore	1803	n/a	n/a	1
55.4580000000	n/a	55458	ignore	1000	n/a	n/a	1
57.4580000000	n/a	57458	STATUS	1700	n/a	n/a	1
59.1580000000	n/a	59158	ignore	6419	n/a	n/a	1
65.6420000000	n/a	65642	ignore 	2000	n/a	n/a	1
71.7580000000	n/a	71758	ignore	1000	n/a	n/a	1
73.7580000000	n/a	73758	STATUS	1700	n/a	n/a	1
75.4580000000	n/a	75458	ignore	2567	n/a	n/a	0
79.0920000000	n/a	79092	ignore	1000	n/a	n/a	1
81.0920000000	n/a	81092	ignore	1700	n/a	n/a	1
82.7920000000	n/a	82792	ignore	7295	n/a	n/a	0
91.1580000000	n/a	91158	ignore	1000	n/a	n/a	1
93.1580000000	n/a	93158	ignore	1700	n/a	n/a	1
94.8580000000	n/a	94858	ignore	2402	n/a	n/a	1
98.3250000000	n/a	98325	ignore	1000	n/a	n/a	1
100.3250000000	n/a	100325	ignore	1700	n/a	n/a	1
102.0250000000	n/a	102025	ignore	784	n/a	n/a	1
103.8750000000	n/a	103875	ignore	1000	n/a	n/a	1
105.8750000000	n/a	105875	ignore	1700	n/a	n/a	1
107.5750000000	n/a	107575	ignore	1717	n/a	n/a	0
110.3580000000	n/a	110358	ignore	1000	n/a	n/a	1
112.3580000000	n/a	112358	ignore	1700	n/a	n/a	1
114.0580000000	n/a	114058	ignore	1587	n/a	n/a	0
116.7080000000	n/a	116708	ignore	1000	n/a	n/a	1
118.7080000000	n/a	118708	ignore	1700	n/a	n/a	1
120.4080000000	n/a	120408	ignore	1373	n/a	n/a	0
122.8580000000	n/a	122858	ignore	1000	n/a	n/a	1
124.8580000000	n/a	124858	ignore	1700	n/a	n/a	1
126.5580000000	n/a	126558	ignore	8213	n/a	n/a	0
134.8420000000	n/a	134842	STATUS	2000	n/a	n/a	1
144.4410000000	n/a	144441	PenaltyB1	3555	n/a	n/a	1
149.0750000000	n/a	149075	NeuCorrB1	1000	n/a	n/a	1
151.0750000000	n/a	151075	ignore	1700	n/a	n/a	1
152.7750000000	n/a	152775	PenaltyB1	2725	n/a	n/a	0
156.5750000000	n/a	156575	PunIncorrB1	1000	n/a	n/a	1
158.5750000000	n/a	158575	ignore	1700	n/a	n/a	1
160.2750000000	n/a	160275	PenaltyB1	1501	n/a	n/a	0
162.8410000000	n/a	162841	PunIncorrB1	1000	n/a	n/a	1
164.8420000000	n/a	164842	STATUS	1700	n/a	n/a	1
166.5410000000	n/a	166541	RewardB1	1274	n/a	n/a	1
168.8910000000	n/a	168891	RewardCorrB1	1000	n/a	n/a	1
170.8920000000	n/a	170892	ignore	1700	n/a	n/a	1
172.5910000000	n/a	172591	RewardB1	1529	n/a	n/a	0
175.1910000000	n/a	175191	NeuIncorrB1	1000	n/a	n/a	1
177.1910000000	n/a	177191	ignore	1700	n/a	n/a	1
178.8910000000	n/a	178891	PenaltyB1	1221	n/a	n/a	1
181.1750000000	n/a	181175	NeuCorrB1	1000	n/a	n/a	1
183.1750000000	n/a	183175	ignore	1700	n/a	n/a	1
184.8750000000	n/a	184875	PenaltyB1	1243	n/a	n/a	0
187.1910000000	n/a	187191	PunIncorrB1	1000	n/a	n/a	1
189.1910000000	n/a	189191	STATUS	1700	n/a	n/a	1
190.8910000000	n/a	190891	PenaltyB1	1695	n/a	n/a	1
193.6580000000	n/a	193658	NeuCorrB1	1000	n/a	n/a	1
195.6580000000	n/a	195658	STATUS	1700	n/a	n/a	1
197.3580000000	n/a	197358	PenaltyB1	1922	n/a	n/a	1
200.3580000000	n/a	200358	PunCorrB1	1000	n/a	n/a	1
202.3580000000	n/a	202358	STATUS	1700	n/a	n/a	1
204.0580000000	n/a	204058	RewardB1	943	n/a	n/a	0
206.0750000000	n/a	206075	NeuIncorrB1	1000	n/a	n/a	1
208.0750000000	n/a	208075	STATUS	1700	n/a	n/a	1
209.7750000000	n/a	209775	PenaltyB1	689	n/a	n/a	1
211.5410000000	n/a	211541	NeuCorrB1	1000	n/a	n/a	1
213.5410000000	n/a	213541	STATUS	1700	n/a	n/a	1
215.2410000000	n/a	215241	RewardB1	3864	n/a	n/a	1
220.1750000000	n/a	220175	NeuCorrB1	1000	n/a	n/a	1
222.1750000000	n/a	222175	STATUS	1700	n/a	n/a	1
223.8750000000	n/a	223875	PenaltyB1	676	n/a	n/a	0
225.6250000000	n/a	225625	PunIncorrB1	1000	n/a	n/a	1
227.6250000000	n/a	227625	STATUS	1700	n/a	n/a	1
229.3250000000	n/a	229325	RewardB1	410	n/a	n/a	1
230.8080000000	n/a	230808	RewardCorrB1	1000	n/a	n/a	1
232.8080000000	n/a	232808	STATUS	1700	n/a	n/a	1
234.5080000000	n/a	234508	PenaltyB1	1581	n/a	n/a	1
237.1580000000	n/a	237158	NeuCorrB1	1000	n/a	n/a	1
239.1580000000	n/a	239158	STATUS	1700	n/a	n/a	1
240.8580000000	n/a	240858	PenaltyB1	1015	n/a	n/a	0
242.9410000000	n/a	242941	PunIncorrB1	1000	n/a	n/a	1
244.9410000000	n/a	244941	STATUS	1700	n/a	n/a	1
246.6410000000	n/a	246641	RewardB1	698	n/a	n/a	1
248.4080000000	n/a	248408	NeuCorrB1	1000	n/a	n/a	1
250.4080000000	n/a	250408	STATUS	1700	n/a	n/a	1
252.1080000000	n/a	252108	PenaltyB1	3303	n/a	n/a	0
256.4750000000	n/a	256475	PunIncorrB1	1000	n/a	n/a	1
258.4750000000	n/a	258475	STATUS	1700	n/a	n/a	1
260.1750000000	n/a	260175	RewardB1	889	n/a	n/a	0
262.1410000000	n/a	262141	NeuIncorrB1	1000	n/a	n/a	1
264.1410000000	n/a	264141	STATUS	1700	n/a	n/a	1
265.8410000000	n/a	265841	RewardB1	740	n/a	n/a	1
267.6580000000	n/a	267658	RewardCorrB1	1000	n/a	n/a	1
269.6580000000	n/a	269658	STATUS	1700	n/a	n/a	1
271.3580000000	n/a	271358	RewardB1	982	n/a	n/a	1
273.4080000000	n/a	273408	NeuCorrB1	1000	n/a	n/a	1
275.4080000000	n/a	275408	STATUS	1700	n/a	n/a	1
277.1080000000	n/a	277108	RewardB1	771	n/a	n/a	1
278.9410000000	n/a	278941	RewardCorrB1	1000	n/a	n/a	1
280.9410000000	n/a	280941	STATUS	1700	n/a	n/a	1
282.6410000000	n/a	282641	RewardB1	1762	n/a	n/a	0
285.4750000000	n/a	285475	NeuIncorrB1	1000	n/a	n/a	1
287.4750000000	n/a	287475	STATUS	1700	n/a	n/a	1
289.1750000000	n/a	289175	PenaltyB1	721	n/a	n/a	0
290.9580000000	n/a	290958	PunIncorrB1	1000	n/a	n/a	1
292.9580000000	n/a	292958	STATUS	1700	n/a	n/a	1
294.6580000000	n/a	294658	RewardB1	744	n/a	n/a	1
296.4750000000	n/a	296475	RewardCorrB1	1000	n/a	n/a	1
298.4750000000	n/a	298475	STATUS	1700	n/a	n/a	1
300.1750000000	n/a	300175	PenaltyB1	833	n/a	n/a	0
302.0750000000	n/a	302075	NeuIncorrB1	1000	n/a	n/a	1
304.0750000000	n/a	304075	STATUS	1700	n/a	n/a	1
305.7750000000	n/a	305775	RewardB1	342	n/a	n/a	0
307.1910000000	n/a	307191	NeuIncorrB1	1000	n/a	n/a	1
309.1910000000	n/a	309191	STATUS	1700	n/a	n/a	1
310.8910000000	n/a	310891	RewardB1	431	n/a	n/a	0
312.3910000000	n/a	312391	NeuIncorrB1	1000	n/a	n/a	1
314.3910000000	n/a	314391	STATUS	1700	n/a	n/a	1
316.0910000000	n/a	316091	RewardB1	330	n/a	n/a	0
317.4910000000	n/a	317491	NeuIncorrB1	1000	n/a	n/a	1
319.4910000000	n/a	319491	STATUS	1700	n/a	n/a	1
321.1910000000	n/a	321191	PenaltyB1	328	n/a	n/a	0
322.5910000000	n/a	322591	PunIncorrB1	1000	n/a	n/a	1
324.5910000000	n/a	324591	STATUS	1700	n/a	n/a	1
326.2910000000	n/a	326291	RewardB1	576	n/a	n/a	0
327.9410000000	n/a	327941	RewIncorrB1	1000	n/a	n/a	1
329.9410000000	n/a	329941	STATUS	1700	n/a	n/a	1
331.6410000000	n/a	331641	PenaltyB1	610	n/a	n/a	0
333.3250000000	n/a	333325	PunIncorrB1	1000	n/a	n/a	1
335.3250000000	n/a	335325	STATUS	1700	n/a	n/a	1
337.0240000000	n/a	337024	RewardB1	597	n/a	n/a	0
338.6910000000	n/a	338691	NeuIncorrB1	1000	n/a	n/a	1
340.6910000000	n/a	340691	STATUS	1700	n/a	n/a	1
342.3910000000	n/a	342391	PenaltyB1	588	n/a	n/a	0
344.0410000000	n/a	344041	NeuIncorrB1	1000	n/a	n/a	1
346.0410000000	n/a	346041	STATUS	1700	n/a	n/a	1
347.7410000000	n/a	347741	RewardB1	451	n/a	n/a	0
349.2580000000	n/a	349258	NeuIncorrB1	1000	n/a	n/a	1
351.2580000000	n/a	351258	STATUS	1700	n/a	n/a	1
352.9580000000	n/a	352958	PenaltyB1	1198	n/a	n/a	1
355.2240000000	n/a	355224	NeuCorrB1	1000	n/a	n/a	1
357.2250000000	n/a	357225	STATUS	1700	n/a	n/a	1
358.9240000000	n/a	358924	PenaltyB1	1066	n/a	n/a	1
361.0580000000	n/a	361058	NeuCorrB1	1000	n/a	n/a	1
363.0580000000	n/a	363058	STATUS	1700	n/a	n/a	1
364.7580000000	n/a	364758	RewardB1	595	n/a	n/a	0
366.4240000000	n/a	366424	NeuIncorrB1	1000	n/a	n/a	1
368.4250000000	n/a	368425	STATUS	1700	n/a	n/a	1
370.1240000000	n/a	370124	PenaltyB1	451	n/a	n/a	1
371.6410000000	n/a	371641	PunCorrB1	1000	n/a	n/a	1
373.6410000000	n/a	373641	STATUS	1700	n/a	n/a	1
375.3410000000	n/a	375341	RewardB1	654	n/a	n/a	1
377.0580000000	n/a	377058	RewardCorrB1	1000	n/a	n/a	1
379.0580000000	n/a	379058	STATUS	1700	n/a	n/a	1
384.0410000000	n/a	384041	RewardB2	2378	n/a	n/a	1
387.4910000000	n/a	387491	RewardCorrB2	1000	n/a	n/a	1
389.4910000000	n/a	389491	STATUS	1700	n/a	n/a	1
391.1910000000	n/a	391191	PenaltyB2	777	n/a	n/a	0
393.0410000000	n/a	393041	PunIncorrB2	1000	n/a	n/a	1
395.0410000000	n/a	395041	STATUS	1700	n/a	n/a	1
396.7410000000	n/a	396741	RewardB2	479	n/a	n/a	1
398.2910000000	n/a	398291	RewardCorrB2	1000	n/a	n/a	1
400.2910000000	n/a	400291	STATUS	1700	n/a	n/a	1
401.9910000000	n/a	401991	RewardB2	388	n/a	n/a	0
403.4410000000	n/a	403441	RewIncorrB2	1000	n/a	n/a	1
405.4410000000	n/a	405441	STATUS	1700	n/a	n/a	1
407.1410000000	n/a	407141	PenaltyB2	1852	n/a	n/a	0
410.0580000000	n/a	410058	PunIncorrB2	1000	n/a	n/a	1
412.0580000000	n/a	412058	STATUS	1700	n/a	n/a	1
413.7580000000	n/a	413758	RewardB2	542	n/a	n/a	0
415.3740000000	n/a	415374	NeuIncorrB2	1000	n/a	n/a	1
417.3740000000	n/a	417374	STATUS	1700	n/a	n/a	1
419.0740000000	n/a	419074	PenaltyB2	1060	n/a	n/a	1
421.2080000000	n/a	421208	NeuCorrB2	1000	n/a	n/a	1
423.2080000000	n/a	423208	STATUS	1700	n/a	n/a	1
424.9080000000	n/a	424908	RewardB2	445	n/a	n/a	0
426.4240000000	n/a	426424	NeuIncorrB2	1000	n/a	n/a	1
428.4240000000	n/a	428424	STATUS	1700	n/a	n/a	1
430.1240000000	n/a	430124	PenaltyB2	960	n/a	n/a	0
432.1580000000	n/a	432158	PunIncorrB2	1000	n/a	n/a	1
434.1580000000	n/a	434158	STATUS	1700	n/a	n/a	1
435.8580000000	n/a	435858	RewardB2	551	n/a	n/a	1
437.4740000000	n/a	437474	RewardCorrB2	1000	n/a	n/a	1
439.4740000000	n/a	439474	STATUS	1700	n/a	n/a	1
441.1740000000	n/a	441174	PenaltyB2	816	n/a	n/a	0
443.0580000000	n/a	443058	NeuIncorrB2	1000	n/a	n/a	1
445.0580000000	n/a	445058	STATUS	1700	n/a	n/a	1
446.7580000000	n/a	446758	RewardB2	551	n/a	n/a	1
448.3740000000	n/a	448374	RewardCorrB2	1000	n/a	n/a	1
450.3740000000	n/a	450374	STATUS	1700	n/a	n/a	1
452.0740000000	n/a	452074	PenaltyB2	589	n/a	n/a	1
453.7410000000	n/a	453741	NeuCorrB2	1000	n/a	n/a	1
455.7410000000	n/a	455741	STATUS	1700	n/a	n/a	1
457.4410000000	n/a	457441	RewardB2	602	n/a	n/a	0
459.1080000000	n/a	459108	NeuIncorrB2	1000	n/a	n/a	1
461.1080000000	n/a	461108	STATUS	1700	n/a	n/a	1
462.8080000000	n/a	462808	PenaltyB2	761	n/a	n/a	1
464.6410000000	n/a	464641	NeuCorrB2	1000	n/a	n/a	1
466.6410000000	n/a	466641	STATUS	1700	n/a	n/a	1
468.3410000000	n/a	468341	RewardB2	529	n/a	n/a	0
469.9410000000	n/a	469941	RewIncorrB2	1000	n/a	n/a	1
471.9410000000	n/a	471941	ignore	1700	n/a	n/a	1
473.6410000000	n/a	473641	PenaltyB2	1110	n/a	n/a	0
475.8240000000	n/a	475824	PunIncorrB2	1000	n/a	n/a	1
477.8240000000	n/a	477824	STATUS	1700	n/a	n/a	1
479.5240000000	n/a	479524	RewardB2	975	n/a	n/a	0
481.5740000000	n/a	481574	NeuIncorrB2	1000	n/a	n/a	1
483.5740000000	n/a	483574	STATUS	1700	n/a	n/a	1
485.2740000000	n/a	485274	PenaltyB2	1688	n/a	n/a	0
488.0240000000	n/a	488024	PunIncorrB2	1000	n/a	n/a	1
490.0240000000	n/a	490024	STATUS	1700	n/a	n/a	1
491.7240000000	n/a	491724	RewardB2	548	n/a	n/a	1
493.3410000000	n/a	493341	RewardCorrB2	1000	n/a	n/a	1
495.3410000000	n/a	495341	STATUS	1700	n/a	n/a	1
497.0410000000	n/a	497041	PenaltyB2	708	n/a	n/a	0
498.8240000000	n/a	498824	NeuIncorrB2	1000	n/a	n/a	1
500.8240000000	n/a	500824	STATUS	1700	n/a	n/a	1
502.5240000000	n/a	502524	PenaltyB2	774	n/a	n/a	1
504.3740000000	n/a	504374	NeuCorrB2	1000	n/a	n/a	1
506.3740000000	n/a	506374	STATUS	1700	n/a	n/a	1
508.0740000000	n/a	508074	PenaltyB2	736	n/a	n/a	0
509.8740000000	n/a	509874	PunIncorrB2	1000	n/a	n/a	1
511.8740000000	n/a	511874	STATUS	1700	n/a	n/a	1
513.5740000000	n/a	513574	RewardB2	577	n/a	n/a	0
515.2240000000	n/a	515224	NeuIncorrB2	1000	n/a	n/a	1
517.2240000000	n/a	517224	STATUS	1700	n/a	n/a	1
518.9240000000	n/a	518924	RewardB2	385	n/a	n/a	1
520.3740000000	n/a	520374	NeuCorrB2	1000	n/a	n/a	1
522.3740000000	n/a	522374	STATUS	1700	n/a	n/a	1
524.0740000000	n/a	524074	RewardB2	484	n/a	n/a	1
525.6240000000	n/a	525624	RewardCorrB2	1000	n/a	n/a	1
527.6240000000	n/a	527624	STATUS	1700	n/a	n/a	1
529.3240000000	n/a	529324	PenaltyB2	726	n/a	n/a	1
531.1240000000	n/a	531124	NeuCorrB2	1000	n/a	n/a	1
533.1240000000	n/a	533124	STATUS	1700	n/a	n/a	1
534.8240000000	n/a	534824	PenaltyB2	658	n/a	n/a	0
536.5570000000	n/a	536557	PunIncorrB2	1000	n/a	n/a	1
538.5580000000	n/a	538558	STATUS	1700	n/a	n/a	1
540.2570000000	n/a	540257	RewardB2	432	n/a	n/a	0
541.7570000000	n/a	541757	NeuIncorrB2	1000	n/a	n/a	1
543.7580000000	n/a	543758	STATUS	1700	n/a	n/a	1
545.4570000000	n/a	545457	PenaltyB2	828	n/a	n/a	0
547.3570000000	n/a	547357	PunIncorrB2	1000	n/a	n/a	1
549.3580000000	n/a	549358	STATUS	1700	n/a	n/a	1
551.0570000000	n/a	551057	RewardB2	497	n/a	n/a	1
552.6240000000	n/a	552624	NeuCorrB2	1000	n/a	n/a	1
554.6240000000	n/a	554624	STATUS	1700	n/a	n/a	1
556.3240000000	n/a	556324	PenaltyB2	967	n/a	n/a	0
558.3570000000	n/a	558357	PunIncorrB2	1000	n/a	n/a	1
560.3580000000	n/a	560358	STATUS	1700	n/a	n/a	1
562.0570000000	n/a	562057	RewardB2	1307	n/a	n/a	1
564.4410000000	n/a	564441	RewardCorrB2	1000	n/a	n/a	1
566.4410000000	n/a	566441	STATUS	1700	n/a	n/a	1
568.1410000000	n/a	568141	PenaltyB2	809	n/a	n/a	1
570.0240000000	n/a	570024	NeuCorrB2	1000	n/a	n/a	1
572.0240000000	n/a	572024	STATUS	1700	n/a	n/a	1
573.7240000000	n/a	573724	PenaltyB2	455	n/a	n/a	1
575.2570000000	n/a	575257	PunCorrB2	1000	n/a	n/a	1
577.2570000000	n/a	577257	STATUS	1700	n/a	n/a	1
578.9570000000	n/a	578957	RewardB2	511	n/a	n/a	1
580.5410000000	n/a	580541	RewardCorrB2	1000	n/a	n/a	1
582.5410000000	n/a	582541	STATUS	1700	n/a	n/a	1
584.2410000000	n/a	584241	PenaltyB2	2373	n/a	n/a	1
587.6910000000	n/a	587691	NeuCorrB2	1000	n/a	n/a	1
589.6910000000	n/a	589691	STATUS	1700	n/a	n/a	1
591.3910000000	n/a	591391	RewardB2	1584	n/a	n/a	1
594.0410000000	n/a	594041	RewardCorrB2	1000	n/a	n/a	1
596.0410000000	n/a	596041	STATUS	1700	n/a	n/a	1
597.7410000000	n/a	597741	PenaltyB2	798	n/a	n/a	1
599.6070000000	n/a	599607	PunCorrB2	1000	n/a	n/a	1
601.6070000000	n/a	601607	STATUS	1700	n/a	n/a	1
603.3070000000	n/a	603307	RewardB2	546	n/a	n/a	1
604.9240000000	n/a	604924	RewardCorrB2	1000	n/a	n/a	1
606.9240000000	n/a	606924	STATUS	1700	n/a	n/a	1
626.7410000000	n/a	626741	RewardB3	2285	n/a	n/a	1
630.0910000000	n/a	630091	RewardCorrB3	1000	n/a	n/a	1
632.0910000000	n/a	632091	STATUS	1700	n/a	n/a	1
633.7910000000	n/a	633791	PenaltyB3	1862	n/a	n/a	1
636.7240000000	n/a	636724	PunCorrB3	1000	n/a	n/a	1
638.7240000000	n/a	638724	STATUS	1700	n/a	n/a	1
640.4240000000	n/a	640424	RewardB3	1035	n/a	n/a	1
642.5240000000	n/a	642524	RewardCorrB3	1000	n/a	n/a	1
644.5240000000	n/a	644524	STATUS	1700	n/a	n/a	1
646.2240000000	n/a	646224	PenaltyB3	1439	n/a	n/a	0
648.7410000000	n/a	648741	PunIncorrB3	1000	n/a	n/a	1
650.7410000000	n/a	650741	STATUS	1700	n/a	n/a	1
652.4410000000	n/a	652441	PenaltyB3	692	n/a	n/a	1
654.2070000000	n/a	654207	NeuCorrB3	1000	n/a	n/a	1
656.2070000000	n/a	656207	STATUS	1700	n/a	n/a	1
657.9070000000	n/a	657907	RewardB3	1986	n/a	n/a	1
660.9570000000	n/a	660957	RewardCorrB3	1000	n/a	n/a	1
662.9570000000	n/a	662957	STATUS	1700	n/a	n/a	1
664.6570000000	n/a	664657	PenaltyB3	671	n/a	n/a	1
666.3910000000	n/a	666391	PunCorrB3	1000	n/a	n/a	1
668.3910000000	n/a	668391	STATUS	1700	n/a	n/a	1
670.0910000000	n/a	670091	RewardB3	1261	n/a	n/a	1
672.4240000000	n/a	672424	RewardCorrB3	1000	n/a	n/a	1
674.4240000000	n/a	674424	STATUS	1700	n/a	n/a	1
676.1240000000	n/a	676124	PenaltyB3	2309	n/a	n/a	0
679.5070000000	n/a	679507	PunIncorrB3	1000	n/a	n/a	1
681.5070000000	n/a	681507	STATUS	1700	n/a	n/a	1
683.2070000000	n/a	683207	RewardB3	804	n/a	n/a	1
685.0740000000	n/a	685074	NeuCorrB3	1000	n/a	n/a	1
687.0740000000	n/a	687074	STATUS	1700	n/a	n/a	1
688.7740000000	n/a	688774	PenaltyB3	2808	n/a	n/a	0
692.6570000000	n/a	692657	PunIncorrB3	1000	n/a	n/a	1
694.6570000000	n/a	694657	STATUS	1700	n/a	n/a	1
696.3570000000	n/a	696357	RewardB3	729	n/a	n/a	1
698.1570000000	n/a	698157	RewardCorrB3	1000	n/a	n/a	1
700.1570000000	n/a	700157	STATUS	1700	n/a	n/a	1
701.8570000000	n/a	701857	RewardB3	611	n/a	n/a	1
703.5410000000	n/a	703541	RewardCorrB3	1000	n/a	n/a	1
705.5410000000	n/a	705541	STATUS	1700	n/a	n/a	1
707.2410000000	n/a	707241	RewardB3	1117	n/a	n/a	1
709.4240000000	n/a	709424	RewardCorrB3	1000	n/a	n/a	1
711.4240000000	n/a	711424	ignore	1700	n/a	n/a	1
713.1240000000	n/a	713124	PenaltyB3	974	n/a	n/a	0
715.1740000000	n/a	715174	NeuIncorrB3	1000	n/a	n/a	1
717.1740000000	n/a	717174	ignore	1700	n/a	n/a	1
718.8740000000	n/a	718874	RewardB3	1733	n/a	n/a	1
721.6740000000	n/a	721674	RewardCorrB3	1000	n/a	n/a	1
723.6740000000	n/a	723674	ignore	1700	n/a	n/a	1
725.3740000000	n/a	725374	PenaltyB3	3255	n/a	n/a	0
729.7070000000	n/a	729707	PunIncorrB3	1000	n/a	n/a	1
731.7070000000	n/a	731707	ignore	1700	n/a	n/a	1
733.4070000000	n/a	733407	RewardB3	923	n/a	n/a	1
735.4070000000	n/a	735407	RewardCorrB3	1000	n/a	n/a	1
737.4070000000	n/a	737407	ignore	1700	n/a	n/a	1
739.1070000000	n/a	739107	RewardB3	937	n/a	n/a	1
741.1070000000	n/a	741107	RewardCorrB3	1000	n/a	n/a	1
743.1070000000	n/a	743107	ignore	1700	n/a	n/a	1
744.8070000000	n/a	744807	RewardB3	2295	n/a	n/a	1
748.1740000000	n/a	748174	NeuCorrB3	1000	n/a	n/a	1
750.1740000000	n/a	750174	ignore	1700	n/a	n/a	1
751.8740000000	n/a	751874	RewardB3	335	n/a	n/a	1
753.2740000000	n/a	753274	RewardCorrB3	1000	n/a	n/a	1
755.2740000000	n/a	755274	ignore	1700	n/a	n/a	1
756.9740000000	n/a	756974	RewardB3	1149	n/a	n/a	1
759.1900000000	n/a	759190	RewardCorrB3	1000	n/a	n/a	1
761.1910000000	n/a	761191	ignore	1700	n/a	n/a	1
762.8900000000	n/a	762890	PenaltyB3	2115	n/a	n/a	0
766.0740000000	n/a	766074	PunIncorrB3	1000	n/a	n/a	1
768.0740000000	n/a	768074	ignore	1700	n/a	n/a	1
769.7740000000	n/a	769774	RewardB3	740	n/a	n/a	1
771.5900000000	n/a	771590	NeuCorrB3	1000	n/a	n/a	1
773.5900000000	n/a	773590	ignore	1700	n/a	n/a	1
775.2900000000	n/a	775290	PenaltyB3	920	n/a	n/a	1
777.2740000000	n/a	777274	NeuCorrB3	1000	n/a	n/a	1
779.2740000000	n/a	779274	ignore	1700	n/a	n/a	1
780.9740000000	n/a	780974	PenaltyB3	1323	n/a	n/a	1
783.3740000000	n/a	783374	NeuCorrB3	1000	n/a	n/a	1
785.3740000000	n/a	785374	ignore	1700	n/a	n/a	1
787.0740000000	n/a	787074	RewardB3	737	n/a	n/a	1
788.8740000000	n/a	788874	RewardCorrB3	1000	n/a	n/a	1
790.8740000000	n/a	790874	ignore	1700	n/a	n/a	1
792.5740000000	n/a	792574	PenaltyB3	1787	n/a	n/a	0
795.4240000000	n/a	795424	PunIncorrB3	1000	n/a	n/a	1
797.4240000000	n/a	797424	ignore	1700	n/a	n/a	1
799.1240000000	n/a	799124	RewardB3	615	n/a	n/a	1
800.8070000000	n/a	800807	NeuCorrB3	1000	n/a	n/a	1
802.8070000000	n/a	802807	ignore	1700	n/a	n/a	1
804.5070000000	n/a	804507	PenaltyB3	2496	n/a	n/a	0
808.0740000000	n/a	808074	PunIncorrB3	1000	n/a	n/a	1
810.0740000000	n/a	810074	ignore	1700	n/a	n/a	1
811.7740000000	n/a	811774	RewardB3	1669	n/a	n/a	1
814.5070000000	n/a	814507	RewardCorrB3	1000	n/a	n/a	1
816.5070000000	n/a	816507	ignore	1700	n/a	n/a	1
818.2070000000	n/a	818207	PenaltyB3	2179	n/a	n/a	1
821.4570000000	n/a	821457	PunCorrB3	1000	n/a	n/a	1
823.4570000000	n/a	823457	ignore	1700	n/a	n/a	1
825.1570000000	n/a	825157	PenaltyB3	1129	n/a	n/a	0
827.3570000000	n/a	827357	PunIncorrB3	1000	n/a	n/a	1
829.3570000000	n/a	829357	ignore	1700	n/a	n/a	1
831.0570000000	n/a	831057	PenaltyB3	1782	n/a	n/a	1
833.9070000000	n/a	833907	NeuCorrB3	1000	n/a	n/a	1
835.9070000000	n/a	835907	ignore	1700	n/a	n/a	1
837.6070000000	n/a	837607	PenaltyB3	651	n/a	n/a	0
839.3240000000	n/a	839324	PunIncorrB3	1000	n/a	n/a	1
841.3240000000	n/a	841324	ignore	1700	n/a	n/a	1
843.0240000000	n/a	843024	RewardB3	856	n/a	n/a	1
844.9570000000	n/a	844957	RewardCorrB3	1000	n/a	n/a	1
846.9570000000	n/a	846957	ignore	1700	n/a	n/a	1
848.6570000000	n/a	848657	RewardB3	1287	n/a	n/a	1
851.0070000000	n/a	851007	RewardCorrB3	1000	n/a	n/a	1
853.0070000000	n/a	853007	ignore	1700	n/a	n/a	1
854.7070000000	n/a	854707	PenaltyB3	3200	n/a	n/a	0
858.9740000000	n/a	858974	PunIncorrB3	1000	n/a	n/a	1
860.9740000000	n/a	860974	ignore	1700	n/a	n/a	1
862.6740000000	n/a	862674	PenaltyB3	3963	n/a	n/a	1
867.7070000000	n/a	867707	NeuCorrB3	1000	n/a	n/a	1
869.7070000000	n/a	869707	ignore	1700	n/a	n/a	1
871.4070000000	n/a	871407	PenaltyB3	1240	n/a	n/a	1
873.7240000000	n/a	873724	NeuCorrB3	1000	n/a	n/a	1
875.7240000000	n/a	875724	ignore	1700	n/a	n/a	1
887.8740000000	n/a	887874	RewardB4	1784	n/a	n/a	1
890.7240000000	n/a	890724	RewardCorrB4	1000	n/a	n/a	1
892.7240000000	n/a	892724	ignore	1700	n/a	n/a	1
894.4240000000	n/a	894424	PenaltyB4	1137	n/a	n/a	1
896.6240000000	n/a	896624	PunCorrB4	1000	n/a	n/a	1
898.6240000000	n/a	898624	ignore	1700	n/a	n/a	1
900.3240000000	n/a	900324	RewardB4	963	n/a	n/a	1
902.3570000000	n/a	902357	RewardCorrB4	1000	n/a	n/a	1
904.3570000000	n/a	904357	ignore	1700	n/a	n/a	1
906.0570000000	n/a	906057	PenaltyB4	1553	n/a	n/a	0
908.6740000000	n/a	908674	PunIncorrB4	1000	n/a	n/a	1
910.6740000000	n/a	910674	ignore	1700	n/a	n/a	1
912.3740000000	n/a	912374	RewardB4	554	n/a	n/a	1
913.9900000000	n/a	913990	RewardCorrB4	1000	n/a	n/a	1
915.9900000000	n/a	915990	ignore	1700	n/a	n/a	1
917.6900000000	n/a	917690	PenaltyB4	1193	n/a	n/a	0
919.9570000000	n/a	919957	NeuIncorrB4	1000	n/a	n/a	1
921.9570000000	n/a	921957	ignore	1700	n/a	n/a	1
923.6570000000	n/a	923657	PenaltyB4	2195	n/a	n/a	1
926.9240000000	n/a	926924	NeuCorrB4	1000	n/a	n/a	1
928.9240000000	n/a	928924	ignore	1700	n/a	n/a	1
930.6240000000	n/a	930624	RewardB4	1168	n/a	n/a	1
932.8570000000	n/a	932857	RewardCorrB4	1000	n/a	n/a	1
934.8570000000	n/a	934857	ignore	1700	n/a	n/a	1
936.5570000000	n/a	936557	PenaltyB4	447	n/a	n/a	1
938.0730000000	n/a	938073	NeuCorrB4	1000	n/a	n/a	1
940.0740000000	n/a	940074	ignore	1700	n/a	n/a	1
941.7730000000	n/a	941773	RewardB4	613	n/a	n/a	1
943.4570000000	n/a	943457	NeuCorrB4	1000	n/a	n/a	1
945.4570000000	n/a	945457	ignore	1700	n/a	n/a	1
947.1570000000	n/a	947157	PenaltyB4	619	n/a	n/a	0
948.8400000000	n/a	948840	PunIncorrB4	1000	n/a	n/a	1
950.8400000000	n/a	950840	ignore	1700	n/a	n/a	1
952.5400000000	n/a	952540	RewardB4	349	n/a	n/a	0
953.9570000000	n/a	953957	NeuIncorrB4	1000	n/a	n/a	1
955.9570000000	n/a	955957	ignore	1700	n/a	n/a	1
957.6570000000	n/a	957657	PenaltyB4	830	n/a	n/a	0
959.5570000000	n/a	959557	PunIncorrB4	1000	n/a	n/a	1
961.5570000000	n/a	961557	ignore	1700	n/a	n/a	1
963.2570000000	n/a	963257	PenaltyB4	1469	n/a	n/a	1
965.7900000000	n/a	965790	NeuCorrB4	1000	n/a	n/a	1
967.7900000000	n/a	967790	ignore	1700	n/a	n/a	1
969.4900000000	n/a	969490	RewardB4	1267	n/a	n/a	1
971.8230000000	n/a	971823	RewardCorrB4	1000	n/a	n/a	1
973.8230000000	n/a	973823	ignore	1700	n/a	n/a	1
975.5230000000	n/a	975523	RewardB4	575	n/a	n/a	1
977.1730000000	n/a	977173	NeuCorrB4	1000	n/a	n/a	1
979.1730000000	n/a	979173	ignore	1700	n/a	n/a	1
980.8730000000	n/a	980873	RewardB4	224	n/a	n/a	1
982.1730000000	n/a	982173	RewardCorrB4	1000	n/a	n/a	1
984.1730000000	n/a	984173	ignore	1700	n/a	n/a	1
985.8730000000	n/a	985873	PenaltyB4	1884	n/a	n/a	1
988.8230000000	n/a	988823	NeuCorrB4	1000	n/a	n/a	1
990.8230000000	n/a	990823	ignore	1700	n/a	n/a	1
992.5230000000	n/a	992523	PenaltyB4	310	n/a	n/a	0
993.9070000000	n/a	993907	PunIncorrB4	1000	n/a	n/a	1
995.9070000000	n/a	995907	ignore	1700	n/a	n/a	1
997.6070000000	n/a	997607	PenaltyB4	692	n/a	n/a	1
999.3730000000	n/a	999373	PunCorrB4	1000	n/a	n/a	1
1001.3730000000	n/a	1001373	ignore	1700	n/a	n/a	1
1003.0730000000	n/a	1003073	RewardB4	352	n/a	n/a	1
1004.4900000000	n/a	1004490	RewardCorrB4	1000	n/a	n/a	1
1006.4900000000	n/a	1006490	ignore	1700	n/a	n/a	1
1008.1900000000	n/a	1008190	PenaltyB4	672	n/a	n/a	0
1009.9400000000	n/a	1009940	PunIncorrB4	1000	n/a	n/a	1
1011.9400000000	n/a	1011940	ignore	1700	n/a	n/a	1
1013.6400000000	n/a	1013640	RewardB4	1387	n/a	n/a	1
1016.0900000000	n/a	1016090	RewardCorrB4	1000	n/a	n/a	1
1018.0900000000	n/a	1018090	ignore	1700	n/a	n/a	1
1019.7900000000	n/a	1019790	PenaltyB4	1386	n/a	n/a	1
1022.2400000000	n/a	1022240	NeuCorrB4	1000	n/a	n/a	1
1024.2400000000	n/a	1024240	ignore	1700	n/a	n/a	1
1025.9400000000	n/a	1025940	RewardB4	1136	n/a	n/a	1
1028.1400000000	n/a	1028140	NeuCorrB4	1000	n/a	n/a	1
1030.1400000000	n/a	1030140	ignore	1700	n/a	n/a	1
1031.8400000000	n/a	1031840	PenaltyB4	794	n/a	n/a	1
1033.7070000000	n/a	1033707	NeuCorrB4	1000	n/a	n/a	1
1035.7070000000	n/a	1035707	ignore	1700	n/a	n/a	1
1037.4070000000	n/a	1037407	RewardB4	863	n/a	n/a	1
1039.3400000000	n/a	1039340	RewardCorrB4	1000	n/a	n/a	1
1041.3400000000	n/a	1041340	ignore	1700	n/a	n/a	1
1043.0400000000	n/a	1043040	PenaltyB4	792	n/a	n/a	1
1044.9070000000	n/a	1044907	NeuCorrB4	1000	n/a	n/a	1
1046.9070000000	n/a	1046907	ignore	1700	n/a	n/a	1
1048.6070000000	n/a	1048607	RewardB4	2730	n/a	n/a	1
1052.4070000000	n/a	1052407	RewardCorrB4	1000	n/a	n/a	1
1054.4070000000	n/a	1054407	ignore	1700	n/a	n/a	1
1056.1070000000	n/a	1056107	PenaltyB4	1131	n/a	n/a	1
1058.3070000000	n/a	1058307	PunCorrB4	1000	n/a	n/a	1
1060.3070000000	n/a	1060307	ignore	1700	n/a	n/a	1
1062.0070000000	n/a	1062007	RewardB4	1808	n/a	n/a	1
1064.8900000000	n/a	1064890	RewardCorrB4	1000	n/a	n/a	1
1066.8900000000	n/a	1066890	ignore	1700	n/a	n/a	1
1068.5900000000	n/a	1068590	PenaltyB4	3410	n/a	n/a	1
1073.0730000000	n/a	1073073	NeuCorrB4	1000	n/a	n/a	1
1075.0730000000	n/a	1075073	ignore	1700	n/a	n/a	1
1076.7730000000	n/a	1076773	RewardB4	4886	n/a	n/a	1
1082.7230000000	n/a	1082723	RewardCorrB4	1000	n/a	n/a	1
1084.7230000000	n/a	1084723	ignore	1700	n/a	n/a	1
1086.4230000000	n/a	1086423	PenaltyB4	4659	n/a	n/a	1
1092.1570000000	n/a	1092157	NeuCorrB4	1000	n/a	n/a	1
1094.1570000000	n/a	1094157	ignore	1700	n/a	n/a	1
1095.8570000000	n/a	1095857	RewardB4	1540	n/a	n/a	1
1098.4730000000	n/a	1098473	RewardCorrB4	1000	n/a	n/a	1
1100.4730000000	n/a	1100473	ignore	1700	n/a	n/a	1
1102.1730000000	n/a	1102173	PenaltyB4	845	n/a	n/a	1
1104.0900000000	n/a	1104090	NeuCorrB4	1000	n/a	n/a	1
1106.0900000000	n/a	1106090	ignore	1700	n/a	n/a	1
1107.7900000000	n/a	1107790	RewardB4	572	n/a	n/a	1
1109.4400000000	n/a	1109440	NeuCorrB4	1000	n/a	n/a	1
1111.4400000000	n/a	1111440	ignore	1700	n/a	n/a	1
1113.1400000000	n/a	1113140	RewardB4	1183	n/a	n/a	1
1115.3900000000	n/a	1115390	RewardCorrB4	1000	n/a	n/a	1
1117.3900000000	n/a	1117390	ignore	1700	n/a	n/a	1
1119.0900000000	n/a	1119090	PenaltyB4	3967	n/a	n/a	1
1124.1230000000	n/a	1124123	NeuCorrB4	1000	n/a	n/a	1
1126.1230000000	n/a	1126123	ignore	1700	n/a	n/a	1
1127.8230000000	n/a	1127823	RewardB4	709	n/a	n/a	1
1129.6070000000	n/a	1129607	RewardCorrB4	1000	n/a	n/a	1
1131.6070000000	n/a	1131607	ignore	1700	n/a	n/a	1
1141.2570000000	n/a	1141257	ignore	1700	n/a	n/a	1
